timestamp,yaw,pitch,roll,ax,ay,az,gx,gy,gz,mx,my,mz
1774889190.8885446,0.0,0.0,0.0,-0.026087642194193725,-1.2412431704631666,6.604030737156013,0.0,-0.001090830782496456,0.002181661564992912,42.75,24.875,-56.75
1774889191.265986,0.0,0.0,0.0,-0.026087642194193725,-1.2412431704631666,6.604030737156013,0.0,-0.001090830782496456,0.002181661564992912,42.75,24.875,-56.75
1774889191.6185563,-0.02058555697157424,0.2649824023323141,-8.88464049623493,-0.030741481291455604,-1.3378355555683754,7.659737710063968,-0.001090830782496456,-0.001090830782496456,0.003272492347489368,42.75,25.6875,-57.25
1774889191.7783718,0.0,0.0,0.0,-0.03924474169862434,-1.4393238521072815,8.829845536295208,0.0,0.0,0.001090830782496456,42.0625,26.75,-58.875
1774889191.8320794,0.0,0.0,0.0,-0.03924474169862434,-1.4393238521072815,8.829845536295208,0.0,0.0,0.001090830782496456,42.0625,26.75,-58.875
1774889192.0465825,-0.02058555697157424,0.2649824023323141,-8.88464049623493,-0.04284249574454191,-1.4663109247890178,9.144337706617955,-0.001090830782496456,0.002181661564992912,0.001090830782496456,42.0625,26.75,-58.875
1774889192.0652409,0.0,0.0,0.0,-0.04523676087255403,-1.4842705201933586,9.353628732860013,0.0,0.00545415391248228,-0.003272492347489368,42.5,26.75,-57.75
1774889192.0905066,0.0,0.0,0.0,-0.03679478244759401,-1.4962224303131213,9.476184014353555,-0.001090830782496456,0.002181661564992912,0.0,42.5,26.75,-57.75
1774889192.1158626,0.0,0.0,0.0,-0.03679478244759401,-1.4962224303131213,9.476184014353555,-0.001090830782496456,0.002181661564992912,0.0,42.5,26.75,-57.75
1774889192.1384048,0.0,0.0,0.0,-0.03679478244759401,-1.4962224303131213,9.476184014353555,-0.001090830782496456,0.002181661564992912,0.0,42.5,26.75,-57.75
1774889192.432298,-0.02058555697157424,0.2649824023323141,-8.88464049623493,-0.031176740108861126,-1.5041762929862394,9.557743185155308,0.0,0.001090830782496456,0.0,42.5,26.75,-57.75
1774889192.475005,0.0,0.0,0.0,-0.02743799569007938,-1.5094694997447318,9.612019902248242,-0.002181661564992912,0.002181661564992912,-0.001090830782496456,42.5,26.75,-57.75
1774889192.5106406,-0.02058555697157424,0.2649824023323141,-8.88464049623493,-0.03164012645853058,-1.5129920697135146,9.654830674577571,0.001090830782496456,0.002181661564992912,0.0,42.75,24.875,-57.25
1774889192.5450199,-0.02058555697157424,0.2649824023323141,-8.88464049623493,-0.03443659754405847,-1.5153363006780547,9.683320765335077,0.0,0.001090830782496456,0.001090830782496456,42.75,24.875,-57.25
1774889192.8414097,-0.02058555697157424,0.2649824023323141,-8.88464049623493,-0.03443659754405847,-1.5153363006780547,9.683320765335077,0.0,0.001090830782496456,0.001090830782496456,42.75,24.875,-57.25
1774889192.8884938,0.0,0.0,0.0,-0.03629761781284841,-1.5168963601981804,9.70228060247903,0.0,0.0,0.001090830782496456,42.75,26.375,-58.0625
1774889192.9465647,-0.02058555697157424,0.2649824023323141,-8.88464049623493,-0.027217813712608906,-1.51528036263023,9.721057052951707,0.0,0.003272492347489368,-0.002181661564992912,42.75,27.1875,-57.0
1774889193.1827276,-0.02058555697157424,0.2649824023323141,-8.88464049623493,-0.027217813712608906,-1.51528036263023,9.721057052951707,0.0,0.003272492347489368,-0.002181661564992912,42.75,27.1875,-57.0
1774889193.2278483,0.0,0.0,0.0,-0.024803374397479063,-1.516859134052222,9.734083903760583,0.0,-0.002181661564992912,0.001090830782496456,42.75,27.1875,-57.0
1774889193.268687,-0.02058555697157424,0.2649824023323141,-8.88464049623493,-0.026541703711633904,-1.514564677090206,9.729372680625154,0.001090830782496456,0.002181661564992912,-0.001090830782496456,43.1875,25.25,-57.75
1774889193.592685,-0.02058555697157424,0.2649824023323141,-8.88464049623493,-0.02846840571063369,-1.5153548748237917,9.719686840570347,-0.001090830782496456,0.0,0.001090830782496456,42.75,26.0625,-58.5
1774889193.6511543,-0.02058555697157424,0.2649824023323141,-8.88464049623493,-0.03232585281677535,-1.5102184976700428,9.723136707605105,0.0,0.003272492347489368,0.0,42.75,26.0625,-58.5
1774889193.888374,-0.02058555697157424,0.2649824023323141,-8.88464049623493,-0.03232585281677535,-1.5102184976700428,9.723136707605105,0.0,0.003272492347489368,0.0,42.75,26.0625,-58.5
1774889193.9149287,0.0,0.0,0.0,-0.03823805248272442,-1.5068002960513152,9.725432555579197,-0.002181661564992912,0.002181661564992912,0.0,42.5,26.375,-58.5
1774889193.9509509,-0.02058555697157424,0.2649824023323141,-8.88464049623493,-0.038827443609496505,-1.5078706327651854,9.730305528466973,-0.001090830782496456,0.0,0.0,42.5,26.375,-58.5
1774889193.9790573,-0.02058555697157424,0.2649824023323141,-8.88464049623493,-0.03921967682043304,-1.5085829298918214,9.733548437489114,-0.002181661564992912,0.001090830782496456,0.001090830782496456,42.5,26.375,-58.5
1774889194.2375307,0.0,0.0,0.0,-0.036135591933459874,-1.5090569556727174,9.722326110388403,-0.001090830782496456,0.002181661564992912,-0.003272492347489368,42.0625,24.875,-57.375
1774889194.265238,0.0,0.0,0.0,-0.036135591933459874,-1.5090569556727174,9.722326110388403,-0.001090830782496456,0.002181661564992912,-0.003272492347489368,42.0625,24.875,-57.375
1774889194.311972,-0.02058555697157424,0.2649824023323141,-8.88464049623493,-0.03408316789266477,-1.5093724145346887,9.714857777064488,-0.001090830782496456,0.001090830782496456,0.001090830782496456,42.0625,24.875,-57.375
1774889194.608377,0.0,0.0,0.0,-0.036272423480510324,-1.5097220578473876,9.712151389872526,-0.001090830782496456,0.003272492347489368,0.0,43.5625,27.5,-59.25
1774889194.623193,0.0,0.0,0.0,-0.036272423480510324,-1.5097220578473876,9.712151389872526,-0.001090830782496456,0.003272492347489368,0.0,43.5625,27.5,-59.25
1774889194.6381314,0.0,0.0,0.0,-0.03417422775871832,-1.5098150326022537,9.711431725927566,0.001090830782496456,0.001090830782496456,0.001090830782496456,43.5625,27.5,-59.25
1774889194.6615145,0.0,0.0,0.0,-0.03417422775871832,-1.5098150326022537,9.711431725927566,0.001090830782496456,0.001090830782496456,0.001090830782496456,43.5625,27.5,-59.25
1774889194.710141,-0.02058555697157424,0.2649824023323141,-8.88464049623493,-0.03612301365156708,-1.5132220179703404,9.71095279761137,-0.002181661564992912,0.004363323129985824,0.001090830782496456,42.75,25.25,-57.75
1774889194.948412,-0.02058555697157424,0.2649824023323141,-8.88464049623493,-0.03741990889389312,-1.5154893286742819,9.71063407616692,-0.001090830782496456,0.003272492347489368,-0.001090830782496456,42.75,25.25,-57.75
1774889194.9837258,0.0,0.0,0.0,-0.038282978190391996,-1.5169981986202348,9.717112194020629,-0.001090830782496456,0.001090830782496456,0.002181661564992912,43.1875,26.0625,-57.375
1774889195.0283246,-0.02058555697157424,0.2649824023323141,-8.88464049623493,-0.038857341166096245,-1.5180023347140847,9.721423309086955,-0.001090830782496456,0.001090830782496456,0.002181661564992912,43.1875,26.0625,-57.375
1774889195.2779782,-0.02058555697157424,0.2649824023323141,-8.88464049623493,-0.038857341166096245,-1.5180023347140847,9.721423309086955,-0.001090830782496456,0.001090830782496456,0.002181661564992912,43.1875,26.0625,-57.375
1774889195.3093252,-0.02058555697157424,0.2649824023323141,-8.88464049623493,-0.038857341166096245,-1.5180023347140847,9.721423309086955,-0.001090830782496456,0.001090830782496456,0.002181661564992912,43.1875,26.0625,-57.375
1774889195.3419454,0.0,0.0,0.0,-0.04258468501769196,-1.538741246311523,9.918308787029808,0.0,0.001090830782496456,0.0,42.5,25.6875,-58.0625
1774889195.3796718,-0.02058555697157424,0.2649824023323141,-8.88464049623493,-0.03837496729913114,-1.5324720900668798,9.855317394221355,0.001090830782496456,0.0,0.001090830782496456,42.5,25.6875,-58.0625
1774889195.60132,0.0,0.0,0.0,-0.04226367059769585,-1.54837070686105,9.870264224991724,0.003272492347489368,0.004363323129985824,-0.004363323129985824,43.5625,26.375,-58.1875
1774889195.6365292,0.0,0.0,0.0,-0.04226367059769585,-1.54837070686105,9.870264224991724,0.003272492347489368,0.004363323129985824,-0.004363323129985824,43.5625,26.375,-58.1875
1774889195.6685042,-0.02058555697157424,0.2649824023323141,-8.88464049623493,-0.03816133578858976,-1.5355352767871482,9.809963828048657,-0.001090830782496456,0.0,0.0,43.5625,26.375,-58.1875
1774889195.699903,-0.02058555697157424,0.2649824023323141,-8.88464049623493,-0.03208616609189275,-1.526993441454115,9.773179699189935,-0.001090830782496456,0.002181661564992912,0.001090830782496456,42.0625,27.5,-58.1875
1774889195.9558403,-0.02058555697157424,0.2649824023323141,-8.88464049623493,-0.03208616609189275,-1.526993441454115,9.773179699189935,-0.001090830782496456,0.002181661564992912,0.001090830782496456,42.0625,27.5,-58.1875
1774889196.0079722,-0.02058555697157424,0.2649824023323141,-8.88464049623493,-0.025352665423419064,-1.511954730692262,9.730183352750775,0.0,0.001090830782496456,0.001090830782496456,42.75,26.0625,-57.75
1774889196.0489452,-0.02058555697157424,0.2649824023323141,-8.88464049623493,-0.023562139046094787,-1.5079557397326084,9.726776907500136,0.0,0.004363323129985824,-0.002181661564992912,42.75,26.0625,-57.75
1774889196.2782001,0.0,0.0,0.0,-0.029060787158114436,-1.5086395676279343,9.724509956238323,0.002181661564992912,0.0,0.0,42.75,24.875,-58.0625
1774889196.3417351,-0.02058555697157424,0.2649824023323141,-8.88464049623493,-0.029374964345420047,-1.512439759160735,9.716311102082454,-0.001090830782496456,0.0,0.0,42.75,24.875,-58.0625
1774889196.3650804,-0.02058555697157424,0.2649824023323141,-8.88464049623493,-0.02958404575398279,-1.5116236324675736,9.710854856228924,-0.001090830782496456,0.003272492347489368,-0.001090830782496456,42.75,24.875,-58.0625
1774889196.6123984,-0.02058555697157424,0.2649824023323141,-8.88464049623493,-0.02958404575398279,-1.5116236324675736,9.710854856228924,-0.001090830782496456,0.003272492347489368,-0.001090830782496456,42.75,24.875,-58.0625
1774889196.6415765,0.0,0.0,0.0,-0.029723187095788927,-1.5144256209773266,9.70722378556366,0.001090830782496456,0.001090830782496456,-0.002181661564992912,41.75,26.375,-57.75
1774889196.67186,0.0,0.0,0.0,-0.029723187095788927,-1.5144256209773266,9.70722378556366,0.001090830782496456,0.001090830782496456,-0.002181661564992912,41.75,26.375,-57.75
1774889196.9090066,-0.02058555697157424,0.2649824023323141,-8.88464049623493,-0.026470672397130898,-1.5162903130303047,9.704807348597644,-0.002181661564992912,-0.001090830782496456,-0.001090830782496456,41.75,26.375,-57.75
1774889196.9413934,0.0,0.0,0.0,-0.024306160198143804,-1.5208763564689058,9.676438343131574,0.001090830782496456,0.001090830782496456,0.001090830782496456,42.75,25.25,-57.0
1774889196.9721758,-0.02058555697157424,0.2649824023323141,-8.88464049623493,-0.033049584704580366,-1.5192691394723856,9.692910233923977,-0.001090830782496456,0.002181661564992912,0.0,42.75,25.25,-57.0
1774889197.2178936,-0.02058555697157424,0.2649824023323141,-8.88464049623493,-0.033049584704580366,-1.5192691394723856,9.692910233923977,-0.001090830782496456,0.002181661564992912,0.0,42.75,25.25,-57.0
1774889197.2490604,0.0,0.0,0.0,-0.03537457626212436,-1.5161685087758003,9.701972063288922,0.0,0.001090830782496456,0.002181661564992912,43.1875,26.0625,-58.0625
1774889197.2751682,-0.02058555697157424,0.2649824023323141,-8.88464049623493,-0.03023160875717367,-1.514105073683537,9.708002609504026,-0.002181661564992912,0.001090830782496456,-0.001090830782496456,43.1875,26.0625,-58.0625
1774889197.5213788,-0.02058555697157424,0.2649824023323141,-8.88464049623493,-0.03023160875717367,-1.514105073683537,9.708002609504026,-0.002181661564992912,0.001090830782496456,-0.001090830782496456,43.1875,26.0625,-58.0625
1774889197.5420306,0.0,0.0,0.0,-0.026809021333340354,-1.5093867689723968,9.705325647229925,0.003272492347489368,0.004363323129985824,0.001090830782496456,43.1875,25.6875,-57.75
1774889197.5787227,-0.02058555697157424,0.2649824023323141,-8.88464049623493,-0.02453132763558593,-1.5062467898940501,9.703544158740138,0.0,0.001090830782496456,0.001090830782496456,43.1875,25.6875,-57.75
1774889197.6167178,-0.02058555697157424,0.2649824023323141,-8.88464049623493,-0.023015547923236096,-1.5075022806005944,9.702358598050715,-0.001090830782496456,0.001090830782496456,0.0,43.1875,25.6875,-57.75
1774889197.8066618,-0.02058555697157424,0.2649824023323141,-8.88464049623493,-0.023015547923236096,-1.5075022806005944,9.702358598050715,-0.001090830782496456,0.001090830782496456,0.0,43.1875,25.6875,-57.75
1774889197.8440268,0.0,0.0,0.0,-0.025351925164355506,-1.5116829073483689,9.704914732362804,0.001090830782496456,0.003272492347489368,0.0,42.5,25.25,-57.75
1774889197.8658361,-0.02058555697157424,0.2649824023323141,-8.88464049623493,-0.02459637037483507,-1.514090429941898,9.697712525031253,0.0,-0.001090830782496456,-0.002181661564992912,42.5,25.25,-57.75
1774889198.1442995,-0.02058555697157424,0.2649824023323141,-8.88464049623493,-0.02305883313963139,-1.5093770237259174,9.69178748754643,0.001090830782496456,0.0,0.001090830782496456,43.1875,27.875,-56.5625
1774889198.1631484,0.0,0.0,0.0,-0.022035619285019643,-1.5062403045413797,9.687844441287286,0.002181661564992912,0.002181661564992912,0.0,43.1875,27.875,-56.5625
1774889198.194081,0.0,0.0,0.0,-0.021354681894823212,-1.5041528529635189,9.685220388048538,0.0,-0.001090830782496456,-0.001090830782496456,43.1875,25.6875,-57.375
1774889198.2191653,0.0,0.0,0.0,-0.021354681894823212,-1.5041528529635189,9.685220388048538,0.0,-0.001090830782496456,-0.001090830782496456,43.1875,25.6875,-57.375
1774889198.2398787,-0.02058555697157424,0.2649824023323141,-8.88464049623493,-0.02090152566821654,-1.5094539006714534,9.680128998223427,-0.002181661564992912,0.002181661564992912,-0.001090830782496456,43.1875,25.6875,-57.375
1774889198.4550593,-0.02058555697157424,0.2649824023323141,-8.88464049623493,-0.02090152566821654,-1.5094539006714534,9.680128998223427,-0.002181661564992912,0.002181661564992912,-0.001090830782496456,43.1875,25.6875,-57.375
1774889198.4821942,0.0,0.0,0.0,-0.023945066968815914,-1.512981688704501,9.680085846876686,-0.001090830782496456,0.002181661564992912,-0.004363323129985824,43.1875,24.875,-58.5625
1774889198.519341,-0.02058555697157424,0.2649824023323141,-8.88464049623493,-0.025970509705780787,-1.5220196156471584,9.696782688674059,-0.002181661564992912,-0.001090830782496456,-0.002181661564992912,43.1875,24.875,-58.5625
1774889198.5584419,-0.02058555697157424,0.2649824023323141,-8.88464049623493,-0.02731841922155304,-1.5280342550672377,9.707894250374267,0.0,0.002181661564992912,-0.001090830782496456,43.5625,27.875,-58.1875
1774889198.813205,0.0,0.0,0.0,-0.028215437947163594,-1.5320369304133759,9.715288870561478,-0.001090830782496456,0.0,-0.003272492347489368,43.5625,27.875,-58.1875
1774889198.8608274,-0.02058555697157424,0.2649824023323141,-8.88464049623493,-0.02881239388870169,-1.5246653310214593,9.71017457257079,-0.002181661564992912,-0.001090830782496456,0.0,42.0625,26.375,-57.375
1774889198.8911648,-0.02058555697157424,0.2649824023323141,-8.88464049623493,-0.02586454969204111,-1.5197596139722995,9.710116176095758,-0.001090830782496456,0.002181661564992912,-0.001090830782496456,42.0625,26.375,-57.375
1774889199.139505,-0.02058555697157424,0.2649824023323141,-8.88464049623493,-0.02586454969204111,-1.5197596139722995,9.710116176095758,-0.001090830782496456,0.002181661564992912,-0.001090830782496456,42.0625,26.375,-57.375
1774889199.1619093,0.0,0.0,0.0,-0.02390279230874081,-1.5164949140765338,9.710077313893954,-0.001090830782496456,0.0,-0.002181661564992912,43.1875,26.0625,-57.75
1774889199.1820166,0.0,0.0,0.0,-0.02390279230874081,-1.5164949140765338,9.710077313893954,-0.001090830782496456,0.0,-0.002181661564992912,43.1875,26.0625,-57.75
1774889199.2287698,-0.02058555697157424,0.2649824023323141,-8.88464049623493,-0.027299696815328404,-1.5184476837331207,9.716724463834948,0.0,0.001090830782496456,-0.001090830782496456,43.1875,26.0625,-57.75
1774889199.485411,-0.02058555697157424,0.2649824023323141,-8.88464049623493,-0.027299696815328404,-1.5184476837331207,9.716724463834948,0.0,0.001090830782496456,-0.001090830782496456,43.1875,26.0625,-57.75
1774889199.5166929,0.0,0.0,0.0,-0.02820297839496408,-1.5189669508649006,9.721165278979614,0.0,0.002181661564992912,0.0,43.1875,26.0625,-57.75
1774889199.5455682,-0.02058555697157424,0.2649824023323141,-8.88464049623493,-0.03214921390321462,-1.5193125173405064,9.724120591851234,0.001090830782496456,0.001090830782496456,0.0,42.5,26.375,-57.75
1774889199.844742,-0.02058555697157424,0.2649824023323141,-8.88464049623493,-0.03477538955161632,-1.5195424879697916,9.709361761017691,0.001090830782496456,0.001090830782496456,0.0,42.5,26.375,-57.75
1774889199.8856962,0.0,0.0,0.0,-0.03652308010932346,-1.5196955308546405,9.699539923964911,0.002181661564992912,0.001090830782496456,0.004363323129985824,42.5,25.6875,-58.1875
1774889200.2298958,-0.02058555697157424,0.2649824023323141,-8.88464049623493,-0.03434103694517545,-1.516452267477587,9.696348712830716,0.002181661564992912,-0.002181661564992912,0.001090830782496456,42.5,25.6875,-58.1875
1774889200.262183,0.0,0.0,0.0,-0.03957913500909298,-1.5377096938810195,9.844755024298445,0.001090830782496456,0.0,0.002181661564992912,42.5,25.6875,-57.375
1774889200.3365724,-0.02058555697157424,0.2649824023323141,-8.88464049623493,-0.03424236307523764,-1.5222719412593504,9.765227413898751,0.0,0.0,-0.001090830782496456,42.75,26.75,-57.0
1774889200.5749347,-0.02058555697157424,0.2649824023323141,-8.88464049623493,-0.03424236307523764,-1.5222719412593504,9.765227413898751,0.0,0.0,-0.001090830782496456,42.75,26.75,-57.0
1774889200.5910535,0.0,0.0,0.0,-0.029478133528950567,-1.5181668398215316,9.736717891897024,0.001090830782496456,-0.001090830782496456,0.002181661564992912,42.75,26.75,-57.0
1774889200.6358864,-0.02058555697157424,0.2649824023323141,-8.88464049623493,-0.02754274371346845,-1.5169620040120375,9.699547711852162,0.001090830782496456,-0.001090830782496456,0.0,41.75,26.0625,-57.0
1774889200.9313815,0.0,0.0,0.0,-0.028364723390664533,-1.5179782476066497,9.713079454119281,0.0,0.001090830782496456,-0.001090830782496456,42.75,26.0625,-57.0
1774889200.965594,0.0,0.0,0.0,-0.028364723390664533,-1.5179782476066497,9.713079454119281,0.0,0.001090830782496456,-0.001090830782496456,42.75,26.0625,-57.0
1774889201.017452,-0.02058555697157424,0.2649824023323141,-8.88464049623493,-0.028911741683723895,-1.51530943465936,9.722084677438584,0.0,0.0,0.0,42.75,26.0625,-57.0
1774889201.2843864,-0.02058555697157424,0.2649824023323141,-8.88464049623493,-0.02927577624716018,-1.5135333694555329,9.728077552962644,0.002181661564992912,0.003272492347489368,0.001090830782496456,43.1875,27.1875,-57.75
1774889201.3313842,-0.02058555697157424,0.2649824023323141,-8.88464049623493,-0.029679259128894082,-1.5115648423469443,9.73471984171538,0.0,-0.002181661564992912,0.0,42.5,26.375,-58.1875
1774889201.3935444,-0.02058555697157424,0.2649824023323141,-8.88464049623493,-0.029679259128894082,-1.5115648423469443,9.73471984171538,0.0,-0.002181661564992912,0.0,42.5,26.375,-58.1875
1774889201.636228,-0.02058555697157424,0.2649824023323141,-8.88464049623493,-0.029679259128894082,-1.5115648423469443,9.73471984171538,0.0,-0.002181661564992912,0.0,42.5,26.375,-58.1875
1774889201.6597571,0.0,0.0,0.0,-0.03313166224050869,-1.5344571670526927,9.853565023400996,-0.002181661564992912,-0.001090830782496456,0.0,42.0625,25.6875,-57.75
1774889201.7143214,-0.02058555697157424,0.2649824023323141,-8.88464049623493,-0.029160801636811402,-1.5264027233793724,9.779152660744606,-0.001090830782496456,0.003272492347489368,-0.1407171709420428,42.0625,25.6875,-57.75
1774889201.9629977,0.0,0.0,0.0,-0.029441522863757945,-1.5242609408858658,9.759365434947018,0.002181661564992912,0.003272492347489368,-0.002181661564992912,42.0625,25.6875,-57.75
1774889202.0074186,-0.02058555697157424,0.2649824023323141,-8.88464049623493,-0.029628339704429296,-1.5228356085617152,9.746197257216519,0.0,0.0,-0.002181661564992912,43.1875,26.375,-59.0
1774889202.0373673,-0.02058555697157424,0.2649824023323141,-8.88464049623493,-0.029628339704429296,-1.5228356085617152,9.746197257216519,0.0,0.0,-0.002181661564992912,43.1875,26.375,-59.0
1774889202.276405,-0.02058555697157424,0.2649824023323141,-8.88464049623493,-0.02975266422501523,-1.5218870658219983,9.737433982035055,0.0,0.0,0.002181661564992912,43.1875,26.375,-59.0
1774889202.3087492,0.0,0.0,0.0,-0.029835400804669277,-1.5212558212246334,9.73160212029399,0.001090830782496456,0.002181661564992912,0.002181661564992912,42.75,26.0625,-57.0
1774889202.3388011,-0.02058555697157424,0.2649824023323141,-8.88464049623493,-0.03323557278152028,-1.5208357349965513,9.727721081451476,-0.001090830782496456,0.001090830782496456,-0.002181661564992912,42.75,26.0625,-57.0
1774889202.356277,-0.02058555697157424,0.2649824023323141,-8.88464049623493,-0.03549834924970492,-1.5205561723044334,9.721793181748506,-0.001090830782496456,-0.002181661564992912,-0.001090830782496456,42.75,26.0625,-57.0
1774889202.3850844,-0.02058555697157424,0.2649824023323141,-8.88464049623493,-0.03549834924970492,-1.5205561723044334,9.721793181748506,-0.001090830782496456,-0.002181661564992912,-0.001090830782496456,42.75,26.0625,-57.0
1774889202.6323538,0.0,0.0,0.0,-0.037004201712412435,-1.5203701264557488,9.717848230715159,-0.001090830782496456,0.003272492347489368,0.0,43.1875,26.375,-57.75
1774889202.6531289,-0.02058555697157424,0.2649824023323141,-8.88464049623493,-0.0346612179975507,-1.5235914267290367,9.721913133285096,-0.001090830782496456,-0.001090830782496456,-0.001090830782496456,43.1875,26.375,-57.75
1774889202.6715448,-0.02058555697157424,0.2649824023323141,-8.88464049623493,-0.0346612179975507,-1.5235914267290367,9.721913133285096,-0.001090830782496456,-0.001090830782496456,-0.001090830782496456,43.1875,26.375,-57.75
1774889202.724205,-0.02058555697157424,0.2649824023323141,-8.88464049623493,-0.0346612179975507,-1.5235914267290367,9.721913133285096,-0.001090830782496456,-0.001090830782496456,-0.001090830782496456,43.1875,26.375,-57.75
1774889202.9419827,-0.02058555697157424,0.2649824023323141,-8.88464049623493,-0.029756876800833852,-1.525735166076628,9.724618280537452,-0.001090830782496456,0.003272492347489368,-0.003272492347489368,42.0625,27.1875,-57.75
1774889202.9565644,0.0,0.0,0.0,-0.02314798081218025,-1.5238166889579932,9.719728302400782,-0.001090830782496456,0.0,0.003272492347489368,42.0625,27.1875,-57.75
1774889202.9915292,0.0,0.0,0.0,-0.01874983435793677,-1.5225399638663353,9.709783853160824,-0.002181661564992912,-0.002181661564992912,0.001090830782496456,42.0625,26.75,-58.1875
1774889203.015408,0.0,0.0,0.0,-0.01874983435793677,-1.5225399638663353,9.709783853160824,-0.002181661564992912,-0.002181661564992912,0.001090830782496456,42.0625,26.75,-58.1875
1774889203.033498,-0.02058555697157424,0.2649824023323141,-8.88464049623493,-0.02251314043779157,-1.5216903175797907,9.699820821571087,-0.001090830782496456,0.001090830782496456,-0.002181661564992912,42.0625,26.75,-58.1875
1774889203.2841032,-0.02058555697157424,0.2649824023323141,-8.88464049623493,-0.02251314043779157,-1.5216903175797907,9.699820821571087,-0.001090830782496456,0.001090830782496456,-0.002181661564992912,42.0625,26.75,-58.1875
1774889203.3125358,0.0,0.0,0.0,-0.028362690302370906,-1.5244699991745856,9.696535647049794,0.003272492347489368,0.002181661564992912,-0.003272492347489368,43.1875,26.75,-58.5625
1774889203.3379076,0.0,0.0,0.0,-0.03560061210081434,-1.5229747345175242,9.707729846932954,0.002181661564992912,-0.002181661564992912,0.0,43.1875,26.75,-58.5625
1774889203.3534596,-0.02058555697157424,0.2649824023323141,-8.88464049623493,-0.036932642170662854,-1.5213174366854418,9.713446874041255,-0.002181661564992912,0.002181661564992912,-0.001090830782496456,43.1875,26.75,-58.5625
1774889203.6259391,0.0,0.0,0.0,-0.03461359592188881,-1.5208767393974294,9.71229385617035,0.0,0.003272492347489368,0.0,43.1875,26.75,-58.5625
1774889203.6594388,-0.02058555697157424,0.2649824023323141,-8.88464049623493,-0.03307029654877369,-1.5239285719824878,9.714871647364635,-0.001090830782496456,-0.001090830782496456,0.0,42.0625,26.75,-57.75
1774889203.7925117,-0.02058555697157424,0.2649824023323141,-8.88464049623493,-0.03538835976306856,-1.5192693090620017,9.719932250315937,0.0,0.002181661564992912,0.001090830782496456,42.0625,26.75,-57.75
1774889203.9689221,0.0,0.0,0.0,-0.03693100493771901,-1.5161686216357955,9.723300025049388,0.0,0.003272492347489368,-0.001090830782496456,42.0625,26.0625,-57.375
1774889203.9921415,-0.02058555697157424,0.2649824023323141,-8.88464049623493,-0.03461250636165378,-1.5141051487906032,9.718851018099354,-0.001090830782496456,-0.001090830782496456,0.0,42.0625,26.0625,-57.375
1774889204.6497328,0.0,0.0,0.0,-0.04204718292053181,-1.6542194790571747,9.42105303773573,-0.00545415391248228,0.001090830782496456,0.017453292519943295,42.5,25.6875,-58.1875
1774889204.700273,-0.13243624826400444,0.2561594142219172,-9.010857559709809,-0.04470748907240167,-1.736435808860865,9.490948130703634,0.008726646259971648,-0.009817477042468103,0.011999138607461015,42.75,26.0625,-58.5625
1774889205.1255598,0.17602843563001538,0.25939226085238803,-8.996056709571032,-0.10631181757467593,-1.6356411940025732,9.562658361636762,0.002181661564992912,-0.004363323129985824,0.04036073895236887,-2003.3125,26.0625,-62.5
1774889205.3578427,0.25966826999928383,0.26600907616422864,-9.009996297880704,-0.013608129747580466,-1.6169390446170562,9.55003483056267,0.007635815477475192,-0.002181661564992912,0.03381575425739013,47.25,28.5625,-66.0625
1774889205.387743,0.3159976677399641,0.26343193290615163,-9.009893868154712,-0.02912672857816151,-1.530990063995459,9.533297620813777,0.004363323129985824,-0.002181661564992912,0.014180800172453928,46.875,30.75,-65.0
1774889205.663856,0.0,0.0,0.0,0.027448051400582082,-1.5373490999438773,9.662653886400186,0.00545415391248228,0.00545415391248228,0.007635815477475192,46.875,30.75,-65.0
1774889205.6899955,0.0,0.0,0.0,0.027448051400582082,-1.5373490999438773,9.662653886400186,0.00545415391248228,0.00545415391248228,0.007635815477475192,46.875,30.75,-65.0
1774889205.7243614,0.46137006374292255,0.28882601757829407,-8.988369146943848,-0.02856519231020843,-1.5415809673324636,9.588173674192443,0.006544984694978736,0.0,0.030543261909900768,49.75,31.875,-67.25
1774889205.7382646,0.46137006374292255,0.28882601757829407,-8.988369146943848,-0.019009816388337646,-1.5443972278065117,9.538607924966676,-0.001090830782496456,-0.00545415391248228,0.00545415391248228,49.75,31.875,-67.25
1774889205.7544932,0.46137006374292255,0.28882601757829407,-8.988369146943848,-0.019009816388337646,-1.5443972278065117,9.538607924966676,-0.001090830782496456,-0.00545415391248228,0.00545415391248228,49.75,31.875,-67.25
1774889206.0411854,0.530565229261557,0.3012460274975523,-8.981130881908172,-0.05279216094070823,-1.5596518645215773,9.505622472542626,-0.009817477042468103,0.0,-0.001090830782496456,52.375,38.5625,-70.0625
1774889206.0837975,0.5788274455770154,0.3120523953243076,-8.980990407486525,-0.03513259337896301,-1.569803654849996,9.513777027791942,-0.008726646259971648,0.004363323129985824,0.019634954084936207,52.375,38.5625,-70.0625
1774889206.3391204,0.5788274455770154,0.3120523953243076,-8.980990407486525,-0.03513259337896301,-1.569803654849996,9.513777027791942,-0.008726646259971648,0.004363323129985824,0.019634954084936207,52.375,38.5625,-70.0625
1774889206.3732295,0.0,0.0,0.0,-0.02338034843691695,-1.5765595579106302,9.519203793218011,-0.006544984694978736,-0.007635815477475192,0.015271630954950384,54.6875,41.875,-68.0625
1774889206.4151678,0.8062645319975253,0.274101659568062,-9.023189501725785,-0.015559360709163216,-1.4974277432461156,9.549576138646673,0.006544984694978736,-0.015271630954950384,0.05126904677733343,54.6875,41.875,-68.0625
1774889206.6502068,0.8062645319975253,0.274101659568062,-9.023189501725785,-0.015559360709163216,-1.4974277432461156,9.549576138646673,0.006544984694978736,-0.015271630954950384,0.05126904677733343,54.6875,41.875,-68.0625
1774889206.6893268,0.0,0.0,0.0,-0.030425250986416807,-1.4447664045471704,9.29214432354061,-0.00545415391248228,0.003272492347489368,0.009817477042468103,56.5,46.25,-67.6875
1774889206.734186,0.8545138487861011,0.28497929218806206,-9.030111154681224,-0.04031833490305376,-1.4264464304453175,9.324878140435807,-0.008726646259971648,-0.003272492347489368,0.013089969389957472,56.5,46.25,-67.6875
1774889206.7528825,0.8545138487861011,0.28497929218806206,-9.030111154681224,-0.04690207173658718,-1.474466703059803,9.346662129918867,0.002181661564992912,0.007635815477475192,0.030543261909900768,57.1875,48.0625,-68.0625
1774889207.027288,0.0,0.0,0.0,-0.02786769310290866,-1.4997334346485116,9.55517561060126,0.011999138607461015,-0.006544984694978736,0.04254240051736178,57.1875,48.0625,-68.0625
1774889207.0660596,1.110970885811982,0.32585727534583764,-8.987084735892626,0.04166637227429259,-1.5165481622729116,9.693939002747195,0.009817477042468103,0.004363323129985824,0.03490658503988659,58.6875,49.5625,-66.0625
1774889207.4448955,1.255893746311958,0.3577386047634825,-8.93716272719921,-0.011880176424516695,-1.4788570780571875,9.826525850382463,-0.006544984694978736,0.00545415391248228,-0.01090830782496456,61.25,53.6875,-64.5625
1774889207.4651415,1.255893746311958,0.3577386047634825,-8.93716272719921,-0.031321906651485334,-1.4658589513850553,9.79758198687245,0.011999138607461015,0.002181661564992912,0.03599741582238305,61.25,54.0625,-64.5625
1774889207.7456143,0.0,0.0,0.0,-0.027534602402579256,-1.4739344018199372,9.778320169030675,-0.004363323129985824,0.001090830782496456,0.001090830782496456,61.25,54.0625,-64.5625
1774889207.7888987,0.0,0.0,0.0,-0.0015984117806571094,-1.5094145292415333,9.732050527352385,0.01090830782496456,-0.003272492347489368,0.031634092692397225,61.25,54.0625,-64.5625
1774889207.8190794,1.3894364567532045,0.35449633671481184,-8.965256941356216,-0.004408836891917161,-1.533026157701613,9.661117257193414,0.016362461737446838,0.003272492347489368,0.031634092692397225,62.6875,56.25,-63.6875
1774889208.0122013,1.3894364567532045,0.35449633671481184,-8.965256941356216,-0.004408836891917161,-1.533026157701613,9.661117257193414,0.016362461737446838,0.003272492347489368,0.031634092692397225,62.6875,56.25,-63.6875
1774889208.0410542,0.0,0.0,0.0,-0.0062791434089551745,-1.5019078687801526,9.613911958279164,0.002181661564992912,-0.00545415391248228,-0.001090830782496456,62.6875,56.25,-63.6875
1774889208.05676,0.0,0.0,0.0,-0.0062791434089551745,-1.5019078687801526,9.613911958279164,0.002181661564992912,-0.00545415391248228,-0.001090830782496456,62.6875,56.25,-63.6875
1774889208.0788605,1.3760187614298656,0.3465155382154074,-8.972423991174688,-0.015042347630956935,-1.4674174710274226,9.689729956553505,0.011999138607461015,0.001090830782496456,0.002181661564992912,63.5,59.1875,-62.1875
1774889208.3601604,1.3550951775839668,0.3448737016096184,-8.972467001573964,-0.015042347630956935,-1.4674174710274226,9.689729956553505,0.011999138607461015,0.001090830782496456,0.002181661564992912,63.5,59.1875,-62.1875
1774889208.3916016,1.2932700329206421,0.3263908925188334,-9.007493998979202,-0.02894687017621741,-1.4298575382266925,9.394604356802214,-0.028361600344907856,-0.015271630954950384,-0.038179077387375956,62.6875,62.5,-60.5625
1774889208.442337,1.2868316067181282,0.31894928340584944,-9.014640273572475,-0.03264426557382303,-1.436595416695905,9.553629509969168,-0.011999138607461015,0.002181661564992912,-0.016362461737446838,62.6875,62.5,-60.5625
1774889208.6673896,0.0,0.0,0.0,-0.03175972920099732,-1.5380876390623937,9.71632587199885,0.006544984694978736,0.001090830782496456,0.0,62.375,65.75,-58.1875
1774889208.727373,1.2181552846417396,0.29973354668270835,-9.036087406585635,-0.027825968418481145,-1.6357355846707566,9.767731584467725,-0.02945243112740431,-0.003272492347489368,-0.04690572364734761,62.375,65.75,-58.1875
1774889208.7419558,1.2181552846417396,0.29973354668270835,-9.036087406585635,-0.027825968418481145,-1.6357355846707566,9.767731584467725,-0.02945243112740431,-0.003272492347489368,-0.04690572364734761,62.375,65.75,-58.1875
1774889208.9836023,0.0,0.0,0.0,-0.02346592875192016,-1.6235410514117568,9.848076338396002,0.004363323129985824,0.0,-0.001090830782496456,62.375,65.75,-58.1875
1774889209.0156996,0.0,0.0,0.0,-0.02346592875192016,-1.6235410514117568,9.848076338396002,0.004363323129985824,0.0,-0.001090830782496456,62.375,65.75,-58.1875
1774889209.0595202,0.0,0.0,0.0,-0.02937963514670332,-1.558070222022243,9.64845317518637,0.016362461737446838,0.001090830782496456,0.001090830782496456,62.0,67.25,-57.5
1774889209.335308,0.0,0.0,0.0,0.007209074660452678,-1.565405977727474,9.705837504390125,0.0,0.003272492347489368,-0.007635815477475192,60.5,70.25,-53.75
1774889209.3893409,1.030951462224273,0.2710374312776389,-9.05065391899,-0.018618223295344984,-1.5535622826669477,9.71726524079171,-0.017453292519943295,-0.002181661564992912,-0.04908738521234052,60.5,70.25,-53.75
1774889209.4202962,1.030951462224273,0.2710374312776389,-9.05065391899,-0.018618223295344984,-1.5535622826669477,9.71726524079171,-0.017453292519943295,-0.002181661564992912,-0.04908738521234052,60.5,70.25,-53.75
1774889209.6651006,0.9762696355170789,0.2526776909665499,-9.050857723156287,0.014370674034684585,-1.666104457370408,9.791772505857171,-0.014180800172453928,0.008726646259971648,-0.039269908169872414,59.75,71.75,-53.5
1774889209.700886,0.0,0.0,0.0,0.03297930499037086,-1.7410000174570954,9.84135625845755,-0.02181661564992912,0.002181661564992912,-0.007635815477475192,59.75,71.75,-53.5
1774889209.7172096,0.8576447388090689,0.24372109448482332,-9.107511844749418,0.04536314101935193,-1.790842176056561,9.874353691926293,-0.009817477042468103,-0.01090830782496456,-0.04036073895236887,58.0,71.0,-51.5
1774889209.75158,0.8303291762471224,0.23442427230891288,-9.093482159098775,0.05360444556012619,-1.8005957938798764,9.802649987489316,0.01090830782496456,0.002181661564992912,-0.01090830782496456,58.0,71.0,-51.5
1774889209.9507837,0.8303291762471224,0.23442427230891288,-9.093482159098775,0.05360444556012619,-1.8005957938798764,9.802649987489316,0.01090830782496456,0.002181661564992912,-0.01090830782496456,58.0,71.0,-51.5
1774889209.969383,0.0,0.0,0.0,0.018947601182775005,-1.7970513824642846,9.754931973169368,-0.00545415391248228,-0.009817477042468103,-0.007635815477475192,57.5625,71.375,-48.0
1774889209.9998617,0.0,0.0,0.0,-0.004116141608033842,-1.7545512757730455,9.72317616768459,-0.004363323129985824,-0.008726646259971648,-0.038179077387375956,57.5625,71.375,-48.0
1774889210.0387695,0.7011365477878289,0.18227415073838968,-9.12921505569719,-0.019464804796428918,-1.6861265890394925,9.65521146996759,-0.02181661564992912,-0.014180800172453928,-0.07090400086226964,57.5625,71.375,-48.0
1774889210.271022,0.7011442312141697,0.18223060806214536,-9.122154846370607,-0.006263386741268065,-1.627210277542869,9.546424600413276,0.02399827721492203,0.003272492347489368,0.013089969389957472,57.5625,71.375,-48.0
1774889210.31401,0.0,0.0,0.0,0.0393182382854524,-1.601382577209466,9.474028153953839,0.004363323129985824,-0.002181661564992912,0.006544984694978736,56.0625,69.875,-45.0625
1774889210.3574474,0.6529003168018345,0.17132445157855677,-9.115185554800675,0.06965230056062038,-1.5841945311519035,9.47937091487349,0.003272492347489368,-0.003272492347489368,-0.019634954084936207,56.0625,69.875,-45.0625
1774889210.5909376,0.6529003168018345,0.17132445157855677,-9.115185554800675,0.06965230056062038,-1.5841945311519035,9.47937091487349,0.003272492347489368,-0.003272492347489368,-0.019634954084936207,56.0625,69.875,-45.0625
1774889210.6224716,0.0,0.0,0.0,-0.013859182775834492,-1.62962297752808,9.697013611851409,-0.017453292519943295,-0.004363323129985824,-0.04908738521234052,53.875,70.25,-41.5625
1774889210.655264,0.5360375652464054,0.1409598787402577,-9.115399708532257,-0.06943514205185108,-1.6598551011224285,9.627765246193547,0.018544123302439753,-0.003272492347489368,-0.022907446432425576,53.875,70.25,-41.5625
1774889210.6748214,0.45293232782069703,0.12729007140300908,-9.10843658693281,-0.07965942846734177,-1.679974241659519,9.591716567525129,-0.007635815477475192,0.003272492347489368,-0.044724062082354694,53.875,70.25,-40.75
1774889210.9217439,0.45293232782069703,0.12729007140300908,-9.10843658693281,-0.07965942846734177,-1.679974241659519,9.591716567525129,-0.007635815477475192,0.003272492347489368,-0.044724062082354694,53.875,70.25,-40.75
1774889210.9400134,0.0,0.0,0.0,-0.053012459790894174,-1.606390400551123,9.47071833504916,0.004363323129985824,0.002181661564992912,-0.006544984694978736,53.875,70.25,-40.75
1774889210.9541912,0.0,0.0,0.0,-0.03527919980286236,-1.537350506034933,9.487203602487485,0.017453292519943295,0.022907446432425576,-0.004363323129985824,50.1875,64.75,-38.25
1774889210.9784229,0.0,0.0,0.0,-0.03527919980286236,-1.537350506034933,9.487203602487485,0.017453292519943295,0.022907446432425576,-0.004363323129985824,50.1875,64.75,-38.25
1774889211.0060022,0.32861255346337837,0.10314914567732544,-9.038524826521426,-0.0234779133743209,-1.4914052274605636,9.611908161864045,0.020725784867432664,0.013089969389957472,-0.018544123302439753,50.1875,64.75,-38.25
1774889211.242386,0.32861255346337837,0.10314914567732544,-9.038524826521426,-0.0234779133743209,-1.4914052274605636,9.611908161864045,0.020725784867432664,0.013089969389957472,-0.018544123302439753,50.1875,64.75,-38.25
1774889211.2700675,0.0,0.0,0.0,0.04458772164661512,-1.4608291578117114,9.694897653087942,0.011999138607461015,-0.002181661564992912,-0.007635815477475192,48.6875,63.25,-37.875
1774889211.3126566,0.0,0.0,0.0,0.0698139711661687,-1.4371360133101587,9.579525535370797,0.02945243112740431,0.011999138607461015,0.007635815477475192,48.6875,63.25,-37.875
1774889211.533691,0.175267843930152,0.09094059188772491,-8.982700595369804,0.08660175842576043,-1.4113331551921833,9.502746679821037,-0.002181661564992912,-0.001090830782496456,-0.04254240051736178,48.6875,63.25,-37.875
1774889211.5710666,0.0,0.0,0.0,0.02418138575412096,-1.4041969764734399,9.562039895470225,-0.00545415391248228,0.001090830782496456,-0.020725784867432664,48.6875,63.25,-37.875
1774889211.6031737,0.04334954296714315,0.07354963161651455,-8.95455818512977,-0.017358674977604495,-1.463005051691524,9.66840110228253,-0.009817477042468103,0.009817477042468103,-0.028361600344907856,47.1875,61.0625,-36.25
1774889211.6287138,-0.033915761868040635,0.07450970088311631,-8.982839740344762,-0.04500312136168465,-1.5021411688199149,9.739183297283589,-0.03490658503988659,0.011999138607461015,-0.06654067773228381,47.1875,61.0625,-36.25
1774889211.8531013,-0.033915761868040635,0.07450970088311631,-8.982839740344762,-0.04500312136168465,-1.5021411688199149,9.739183297283589,-0.03490658503988659,0.011999138607461015,-0.06654067773228381,47.1875,61.0625,-36.25
1774889211.885337,0.0,0.0,0.0,-0.029949074548396012,-1.4846993653946334,9.675899371026327,0.008726646259971648,0.004363323129985824,0.00545415391248228,46.875,58.875,-36.6875
1774889211.9273639,-0.11007716732323466,0.06149946198273448,-8.996999865090235,-0.029966109680832114,-1.4697469283454998,9.633784625029897,0.0,-0.002181661564992912,-0.015271630954950384,46.875,58.875,-36.6875
1774889211.954268,-0.166946409664986,0.07107624739321296,-8.98293909646286,-0.019942111249215293,-1.4597962485189675,9.635863737387684,-0.003272492347489368,0.019634954084936207,-0.044724062082354694,46.875,58.875,-36.6875
1774889212.1613748,-0.166946409664986,0.07107624739321296,-8.98293909646286,-0.019942111249215293,-1.4597962485189675,9.635863737387684,-0.003272492347489368,0.019634954084936207,-0.044724062082354694,46.875,58.875,-36.6875
1774889212.2203004,-0.3412623453919125,0.05740433448304865,-8.976007375773033,0.05472525230406715,-1.549049702384137,9.517744129652513,0.014180800172453928,0.001090830782496456,-0.04036073895236887,45.375,56.25,-34.6875
1774889212.2432766,-0.3841825078950298,0.06811236999350623,-8.961970697918622,0.09997616652630123,-1.592854039747315,9.438216062507806,0.009817477042468103,0.014180800172453928,-0.0272707695624114,45.375,56.25,-34.6875
1774889212.4669611,-0.3841825078950298,0.06811236999350623,-8.961970697918622,0.09997616652630123,-1.592854039747315,9.438216062507806,0.009817477042468103,0.014180800172453928,-0.0272707695624114,45.375,56.25,-34.6875
1774889212.5055327,0.0,0.0,0.0,0.13009014445536526,-1.51161665059446,9.602723283185481,-0.02399827721492203,0.002181661564992912,-0.03381575425739013,43.5,53.875,-33.375
1774889212.5412588,-0.5230902477714142,0.05024287797374083,-8.954997947775345,0.12002465500610789,-1.5679427619358721,9.71220100088041,0.00545415391248228,-0.009817477042468103,-0.037088246604879506,43.5,53.875,-33.375
1774889212.5654464,-0.517202938521558,0.06476557504963562,-8.948000062481444,0.11332618421651157,-1.6087722715370105,9.855304544913857,0.018544123302439753,0.016362461737446838,0.020725784867432664,43.5,53.875,-33.375
1774889212.8715487,0.0,0.0,0.0,0.10255672721657907,-1.6651687311000503,9.797708487803872,0.02399827721492203,0.006544984694978736,-0.018544123302439753,43.5,50.5625,-31.375
1774889212.9143293,-0.7494768979993923,0.07478888510239644,-8.92722434415828,0.07159546803624454,-1.6801652913451708,9.758333683743512,0.007635815477475192,0.017453292519943295,-0.05126904677733343,43.5,50.5625,-31.375
1774889213.1760778,0.0,0.0,0.0,0.07775198957021376,-1.7102160049096604,9.785651978803834,-0.013089969389957472,0.004363323129985824,-0.019634954084936207,42.875,49.0625,-31.375
1774889213.2576292,-0.8460234581184272,0.053172176547226696,-8.934287831938525,0.02498218685378903,-1.7302144190983624,9.803831999001128,-0.017453292519943295,0.00545415391248228,-0.038179077387375956,42.875,49.0625,-31.375
1774889213.481583,-0.8460234581184272,0.053172176547226696,-8.934287831938525,0.02498218685378903,-1.7302144190983624,9.803831999001128,-0.017453292519943295,0.00545415391248228,-0.038179077387375956,42.875,49.0625,-31.375
1774889213.5143864,0.0,0.0,0.0,-0.010135527376671047,-1.7468682520513388,9.876142610090044,-0.013089969389957472,0.002181661564992912,-0.01090830782496456,41.6875,46.5,-29.0625
1774889213.5651894,-0.8992076385705162,0.10480546927849933,-8.976594738128735,-0.03350597390647027,-1.7579511918460409,9.910884067177987,-0.019634954084936207,0.017453292519943295,-0.014180800172453928,41.6875,46.5,-29.0625
1774889213.8092694,-0.8992076385705162,0.10480546927849933,-8.976594738128735,-0.03350597390647027,-1.7579511918460409,9.910884067177987,-0.019634954084936207,0.017453292519943295,-0.014180800172453928,41.6875,46.5,-29.0625
1774889213.8459866,0.0,0.0,0.0,-0.04905874500705819,-1.7653267644748656,9.934004118782509,0.022907446432425576,-0.00545415391248228,0.02181661564992912,41.6875,42.75,-27.0625
1774889213.8625927,0.0,0.0,0.0,-0.04905874500705819,-1.7653267644748656,9.934004118782509,0.022907446432425576,-0.00545415391248228,0.02181661564992912,41.6875,42.75,-27.0625
1774889213.8976617,-0.9014350322120208,0.13253225506785193,-8.997997169913873,-0.04602849360938505,-1.763544902254165,9.752028664125575,-0.018544123302439753,0.014180800172453928,-0.006544984694978736,41.6875,42.75,-27.0625
1774889214.1714408,-0.9153938449272604,0.1313800844765862,-9.005079834913804,-0.04770264009780088,-1.683744724487562,9.60924410921805,0.003272492347489368,-0.001090830782496456,-0.015271630954950384,41.0,40.5625,-27.5
1774889214.5038505,0.0,0.0,0.0,-0.03843579752631997,-1.6356605084126878,9.606151851421146,0.018544123302439753,0.004363323129985824,0.04581489286485115,41.0,40.5625,-27.5
1774889214.5439427,-0.7974128474561817,0.14763726360790919,-9.011981485739442,-0.03895904072705247,-1.6504925636532186,9.60409398840009,0.00545415391248228,-0.006544984694978736,0.019634954084936207,41.0,35.75,-24.6875
1774889214.562635,-0.7764938354036245,0.1492854791651155,-9.0119435400669,-0.0426523649394498,-1.6603631307308786,9.589344056718135,-0.01090830782496456,-0.004363323129985824,0.00545415391248228,41.0,35.75,-24.6875
1774889214.5793102,-0.7764938354036245,0.1492854791651155,-9.0119435400669,-0.0426523649394498,-1.6603631307308786,9.589344056718135,-0.01090830782496456,-0.004363323129985824,0.00545415391248228,41.0,35.75,-24.6875
1774889214.9058573,-0.7282461194674086,0.16006014185721296,-9.018960569366204,-0.003264472213199806,-1.650446000281397,9.769213395847105,0.003272492347489368,-0.001090830782496456,0.016362461737446838,39.5,30.5625,-24.6875
1774889215.1931734,-0.6939181399203624,0.16982308396829818,-9.011881842929245,-0.003264472213199806,-1.650446000281397,9.769213395847105,0.003272492347489368,-0.001090830782496456,0.016362461737446838,39.5,30.5625,-24.6875
1774889215.2218149,0.0,0.0,0.0,0.007862865330617695,-1.6469516964978008,9.819653199332983,-0.02399827721492203,-0.006544984694978736,0.004363323129985824,39.5,30.5625,-24.6875
1774889215.2461653,-0.610230788957451,0.17645223971506194,-9.004661581006305,-0.021528244614989873,-1.6011398241685963,9.756212085591049,-0.01090830782496456,-0.001090830782496456,0.007635815477475192,39.875,25.875,-29.0625
1774889215.275138,-0.5678319717125614,0.172807463089561,-8.997484883449896,0.005743863938890235,-1.5907232051295725,9.70395739795751,0.009817477042468103,-0.011999138607461015,0.031634092692397225,39.875,25.875,-29.0625
1774889215.53815,0.0,0.0,0.0,-0.02293841637038797,-1.5637203912764448,9.669182487060496,0.01090830782496456,-0.002181661564992912,-0.002181661564992912,38.0,22.1875,-32.5625
1774889215.5557957,0.0,0.0,0.0,-0.02293841637038797,-1.5637203912764448,9.669182487060496,0.01090830782496456,-0.002181661564992912,-0.002181661564992912,38.0,22.1875,-32.5625
1774889215.6422474,-0.4379216106583895,0.21844022411782327,-8.90617660638768,0.06004120597187913,-1.552731311818787,9.728695517163986,0.013089969389957472,-0.004363323129985824,0.039269908169872414,38.375,24.0,-31.75
1774889215.9746194,0.0,0.0,0.0,0.08344320406522038,-1.5518176575046507,9.745857439781258,0.017453292519943295,0.00545415391248228,0.020725784867432664,38.375,24.0,-31.75
1774889216.01735,0.0,0.0,0.0,0.08344320406522038,-1.5518176575046507,9.745857439781258,0.017453292519943295,0.00545415391248228,0.020725784867432664,38.375,24.0,-31.75
1774889216.0539904,0.0,0.0,0.0,0.04549518506178132,-1.547864519057461,9.757278507571815,-0.006544984694978736,0.006544984694978736,-0.018544123302439753,38.1875,22.375,-36.375
1774889216.340022,-0.5070938171514267,0.20606725151204988,-8.89923740424462,0.04549518506178132,-1.547864519057461,9.757278507571815,-0.006544984694978736,0.006544984694978736,-0.018544123302439753,38.1875,22.375,-36.375
1774889216.3626578,0.0,0.0,0.0,0.0202412023221405,-1.4816766271412378,9.577552844994859,0.003272492347489368,0.001090830782496456,0.00545415391248228,38.1875,22.375,-36.375
1774889216.392024,-0.5972079173597555,0.19212632432733415,-8.885811734055412,0.003434958914381104,-1.4376293244381895,9.457947424217094,0.017453292519943295,0.00545415391248228,-0.001090830782496456,37.0,21.5625,-40.0
1774889216.4506114,-0.6594286143004181,0.1802775910737414,-8.88589757384294,-0.007749408335442777,-1.488599017505587,9.405112246428141,0.02181661564992912,-0.004363323129985824,-0.030543261909900768,37.0,21.5625,-40.0
1774889216.7050645,-0.6594286143004181,0.1802775910737414,-8.88589757384294,-0.007749408335442777,-1.488599017505587,9.405112246428141,0.02181661564992912,-0.004363323129985824,-0.030543261909900768,37.0,21.5625,-40.0
1774889216.7321706,0.0,0.0,0.0,-0.08543982565633917,-1.5292090022878007,9.390021696061115,0.01090830782496456,0.00545415391248228,-0.016362461737446838,36.6875,19.75,-43.0625
1774889216.7744925,-0.7988422015436172,0.16947687723710686,-8.878584311844929,-0.13714193052456966,-1.5562344935171097,9.359908433120436,0.00545415391248228,-0.001090830782496456,0.001090830782496456,36.6875,19.75,-43.0625
1774889217.0414898,-0.8535734027121019,0.15109847373195084,-8.892698931292887,-0.14813332181278724,-1.574219656035697,9.380009733508436,0.009817477042468103,0.006544984694978736,-0.003272492347489368,36.6875,22.0,-42.0
1774889217.0964243,-0.9018460439856824,0.1403306456671944,-8.892732864000184,-0.0656046014670763,-1.6498662283149332,9.803419020502028,0.007635815477475192,0.006544984694978736,0.002181661564992912,36.375,20.5,-44.0
1774889217.135515,-0.9646477010030611,0.13527714483701203,-8.914017093345493,-0.043659129424922366,-1.669981646681832,9.89593844775608,-0.025089107997418487,-0.002181661564992912,-0.05126904677733343,36.375,20.5,-44.0
1774889217.3983912,-0.9646477010030611,0.13527714483701203,-8.914017093345493,-0.043659129424922366,-1.669981646681832,9.89593844775608,-0.025089107997418487,-0.002181661564992912,-0.05126904677733343,36.375,20.5,-44.0
1774889217.4346957,0.0,0.0,0.0,-0.042435109757131904,-1.6566073392425018,9.957509093083932,-0.014180800172453928,-0.00545415391248228,-0.03381575425739013,37.0,21.5625,-46.6875
1774889217.4537487,-1.0488776220450078,0.13572879235893393,-8.91423536813774,-0.07841676712192616,-1.6477068870424307,9.791086743906641,0.006544984694978736,-0.008726646259971648,-0.02181661564992912,37.0,21.5625,-46.6875
1774889217.4796498,-1.0488776220450078,0.13572879235893393,-8.91423536813774,-0.07841676712192616,-1.6477068870424307,9.791086743906641,0.006544984694978736,-0.008726646259971648,-0.02181661564992912,37.0,21.5625,-46.6875
1774889217.704124,0.0,0.0,0.0,-0.1458486103518996,-1.641783735527849,9.680334529588606,-0.004363323129985824,0.003272492347489368,-0.020725784867432664,37.0,22.0,-48.25
1774889217.729942,0.0,0.0,0.0,-0.19072374875840212,-1.580975045336403,9.606630168143251,0.001090830782496456,0.003272492347489368,-0.019634954084936207,37.0,22.0,-48.25
1774889217.7483883,0.0,0.0,0.0,-0.19072374875840212,-1.580975045336403,9.606630168143251,0.001090830782496456,0.003272492347489368,-0.019634954084936207,37.0,22.0,-48.25
1774889217.7818258,-1.1958328237956632,0.1311316356936,-8.92816188249071,-0.08343807207969295,-1.6442060042184745,9.724836324299002,0.006544984694978736,0.003272492347489368,-0.018544123302439753,37.0,22.0,-48.25
1774889218.098365,0.0,0.0,0.0,0.015402862075935931,-1.5627817719333268,9.728962132308613,0.007635815477475192,0.00545415391248228,-0.002181661564992912,37.0,23.75,-49.0625
1774889218.1698709,-1.410903274082851,0.10057031830337641,-8.907233465247659,0.013595544357611412,-1.558506126439881,9.829662661864704,-0.001090830782496456,0.001090830782496456,-0.032724923474893676,36.375,22.375,-48.25
1774889218.4827693,-1.5799126795233187,0.10855098075740349,-8.900776662580748,0.011592378080445703,-1.6540495852568833,9.950180062763891,-0.003272492347489368,0.003272492347489368,-0.022907446432425576,37.0,23.75,-50.5625
1774889218.5214362,-1.6357554964307872,0.10391327433820656,-8.922057458029597,-0.019046295541366522,-1.6828009591174988,9.906633377562786,-0.014180800172453928,0.001090830782496456,-0.04363323129985824,37.0,23.75,-50.5625
1774889218.7299278,-1.6357554964307872,0.10391327433820656,-8.922057458029597,-0.019046295541366522,-1.6828009591174988,9.906633377562786,-0.014180800172453928,0.001090830782496456,-0.04363323129985824,37.0,23.75,-50.5625
1774889218.7458837,0.0,0.0,0.0,-0.03274576716563381,-1.7019346772478483,9.877653545009796,-0.001090830782496456,-0.003272492347489368,-0.00545415391248228,37.0,23.75,-52.25
1774889218.764937,0.0,0.0,0.0,-0.03274576716563381,-1.7019346772478483,9.877653545009796,-0.001090830782496456,-0.003272492347489368,-0.00545415391248228,37.0,23.75,-52.25
1774889218.8038657,0.0,0.0,0.0,-0.055727151880687074,-1.6729651300399426,9.755238959651388,-0.04690572364734761,0.0,-0.05890486225480862,37.375,25.6875,-51.5
1774889219.071679,0.0,0.0,0.0,-0.0772271375513545,-1.645212367260354,9.699964681807874,0.002181661564992912,-0.004363323129985824,0.00545415391248228,37.375,25.6875,-51.5
1774889219.1583946,-1.7526575521063745,0.07234324847661057,-9.012629090655214,-0.08658116813223711,-1.6479033153081537,9.860502440421449,-0.006544984694978736,0.0,0.026179938779914945,38.1875,24.1875,-52.25
1774889219.570102,-1.6578340456700844,0.11510797485360576,-8.999396070330294,-0.06178408983749485,-1.6824989070535807,9.865793764674716,0.009817477042468103,0.003272492347489368,0.009817477042468103,37.0,26.0,-53.75
1774889219.8314579,0.0,0.0,0.0,-0.12139930258901241,-1.6181058722904689,9.71332565884106,-0.003272492347489368,0.003272492347489368,0.017453292519943295,36.6875,27.5,-54.0625
1774889219.8781662,-1.3880137390067762,0.16447288864561369,-8.992113196336827,-0.1306077718183768,-1.5356042647424113,9.538764220812217,-0.009817477042468103,0.006544984694978736,0.00545415391248228,35.5625,30.0625,-55.25
1774889220.1617196,-1.3880137390067762,0.16447288864561369,-8.992113196336827,-0.1306077718183768,-1.5356042647424113,9.538764220812217,-0.009817477042468103,0.006544984694978736,0.00545415391248228,35.5625,30.0625,-55.25
1774889220.1872191,0.0,0.0,0.0,-0.09026312486804108,-1.4902431233871836,9.492346038852617,0.006544984694978736,0.006544984694978736,0.016362461737446838,35.5625,30.0625,-55.25
1774889220.2119334,0.0,0.0,0.0,-0.0634142130018289,-1.536993359800776,9.52166726801532,0.003272492347489368,-0.003272492347489368,0.019634954084936207,33.6875,27.875,-54.375
1774889220.228831,-1.2061889563966044,0.17191355803717964,-8.978034443646939,-0.04554656207686199,-1.5681051198996625,9.541180218483508,-0.009817477042468103,-0.01090830782496456,0.022907446432425576,33.6875,27.875,-54.375
1774889220.2712977,-1.1579033703270138,0.182786417525646,-8.970938445255957,-0.026965616566396594,-1.5888096487043395,9.554165869046148,0.007635815477475192,-0.006544984694978736,0.05235987755982989,33.6875,27.875,-54.375
1774889220.5054379,-1.1579033703270138,0.182786417525646,-8.970938445255957,-0.026965616566396594,-1.5888096487043395,9.554165869046148,0.007635815477475192,-0.006544984694978736,0.05235987755982989,33.6875,27.875,-54.375
1774889220.5610435,0.0,0.0,0.0,-0.06542873507255567,-1.4880359542413788,9.536202919562482,0.013089969389957472,-0.007635815477475192,0.030543261909900768,31.5,29.0,-55.25
1774889220.8300424,-0.9277776093272687,0.20083230539542565,-8.97039575889684,-0.06542873507255567,-1.4880359542413788,9.536202919562482,0.013089969389957472,-0.007635815477475192,0.030543261909900768,31.5,29.0,-55.25
1774889220.862382,0.0,0.0,0.0,-0.07699320937711908,-1.495383172902105,9.771630904897357,-0.008726646259971648,-0.014180800172453928,0.028361600344907856,29.6875,30.0625,-55.5625
1774889220.9338756,-0.7560584634357358,0.15813231353176818,-8.976663922656881,-0.08468923784316355,-1.4434057658225787,9.684112444600485,0.001090830782496456,-0.00545415391248228,0.022907446432425576,29.6875,30.0625,-55.5625
1774889221.1757028,-0.7560584634357358,0.15813231353176818,-8.976663922656881,-0.08468923784316355,-1.4434057658225787,9.684112444600485,0.001090830782496456,-0.00545415391248228,0.022907446432425576,29.6875,30.0625,-55.5625
1774889221.2223449,0.0,0.0,0.0,-0.1466777578414747,-1.5827611908174433,9.856682594723216,-0.009817477042468103,-0.014180800172453928,0.026179938779914945,28.1875,29.6875,-56.375
1774889221.2447765,-0.4980921216502169,0.1783224398503483,-8.99029607834509,-0.11099285617486478,-1.6453946640835544,9.877862974090062,0.006544984694978736,-0.001090830782496456,0.030543261909900768,28.1875,29.6875,-56.375
1774889221.276684,-0.4980921216502169,0.1783224398503483,-8.99029607834509,-0.11099285617486478,-1.6453946640835544,9.877862974090062,0.006544984694978736,-0.001090830782496456,0.030543261909900768,28.1875,29.6875,-56.375
1774889221.5529995,-0.25461569005076107,0.20446470809384215,-8.996915241420895,-0.09929721919520723,-1.725946036641021,9.881267878314908,-0.02181661564992912,-0.008726646259971648,0.037088246604879506,27.0625,31.5,-55.5625
1774889221.802167,-0.05297836002973652,0.22734301618862476,-9.00358866113255,-0.09618719551766701,-1.7105765741337406,9.864118200318845,0.008726646259971648,0.008726646259971648,0.05999569303730508,25.6875,31.5,-56.75
1774889221.975981,0.11920783697332893,0.26893883235574295,-8.975534056410778,-0.06488392567168533,-1.677958670628956,9.718066786075235,-0.009817477042468103,0.00545415391248228,-0.006544984694978736,22.375,31.5,-55.5625
1774889222.4515128,0.04302294111403553,0.25595365271841636,-8.989821304790196,-0.07222194555491049,-1.5988841844576749,9.562112696789029,-0.003272492347489368,0.008726646259971648,-0.028361600344907856,21.5625,30.375,-57.1875
1774889222.7306519,-1.5398753823425178,0.13045928719529307,-9.069279784520925,-0.10441152207331432,-1.5772208480408076,9.5999343846656,-0.015271630954950384,0.016362461737446838,-0.29888763440402893,20.375,31.1875,-58.0
1774889223.077987,-2.4518055269930197,0.034848481067648665,-9.175050231096735,-0.09834517439989562,-1.5925928990346745,9.589421476851617,0.001090830782496456,-0.015271630954950384,-0.13199052468207118,19.6875,29.6875,-60.75
1774889223.3632686,-3.349094704923502,-0.06562959453903597,-9.187928975315373,-0.12067041695355406,-1.5977342171737283,9.397408685515826,-0.02181661564992912,0.02399827721492203,-0.1439896632895322,19.6875,31.1875,-62.375
1774889223.745629,-4.597660667058572,-0.1687746453537434,-9.256803477320341,-0.107238734590304,-1.739452548512697,9.622964628101071,-0.015271630954950384,0.022907446432425576,-0.19416787928436915,18.5625,30.375,-65.5
1774889224.3673096,-5.776620374656907,-0.26908312169232956,-9.212298993067428,-0.059797451583543,-1.7950074932828883,9.540205032926378,-0.020725784867432664,0.017453292519943295,-0.16253378659197193,16.0,35.5625,-67.1875
1774889224.4964662,-6.4689799537599715,-0.30886478462095424,-9.176230580965735,-0.061437544722383754,-1.6659769646392713,9.725243439984329,-0.006544984694978736,0.008726646259971648,-0.07853981633974483,13.75,37.75,-66.6875
1774889224.7267044,-6.4689799537599715,-0.30886478462095424,-9.176230580965735,-0.061437544722383754,-1.6659769646392713,9.725243439984329,-0.006544984694978736,0.008726646259971648,-0.07853981633974483,13.75,37.75,-66.6875
1774889224.7482235,0.0,0.0,0.0,-0.08771756361287472,-1.6104558158832551,9.733524785858467,-0.015271630954950384,0.015271630954950384,-0.07635815477475191,13.75,39.5625,-65.875
1774889224.7697105,-6.83435945221241,-0.30975144147257655,-9.169846320114424,-0.10520662261745009,-1.5835424467199541,9.74572615244365,0.003272492347489368,0.009817477042468103,-0.10690141668465268,13.75,39.5625,-65.875
1774889224.81879,-7.0600648872060585,-0.2994116696184226,-9.163873591941709,-0.06666872040961425,-1.56563190018381,9.753846025607894,-0.006544984694978736,0.017453292519943295,-0.11017390903214205,13.75,39.5625,-65.875
1774889225.031493,-7.0600648872060585,-0.2994116696184226,-9.163873591941709,-0.06666872040961425,-1.56563190018381,9.753846025607894,-0.006544984694978736,0.017453292519943295,-0.11017390903214205,13.75,39.5625,-65.875
1774889225.0575724,0.0,0.0,0.0,-0.027641730157596994,-1.5838186369037945,9.796045939274284,-0.009817477042468103,0.011999138607461015,-0.05672320068981571,12.0625,38.875,-63.5
1774889225.0714977,0.0,0.0,0.0,-0.027641730157596994,-1.5838186369037945,9.796045939274284,-0.009817477042468103,0.011999138607461015,-0.05672320068981571,12.0625,38.875,-63.5
1774889225.1279895,-7.6779274600324925,-0.3129497247733709,-9.150773121170996,-0.0016697041049259786,-1.6026119304464224,9.67359948358597,-0.008726646259971648,0.026179938779914945,-0.13199052468207118,12.0625,38.875,-63.5
1774889225.361729,0.0,0.0,0.0,-0.007801392844650034,-1.615118657364197,9.592112735141932,-0.008726646259971648,0.008726646259971648,-0.03490658503988659,12.0625,38.875,-61.5625
1774889225.412629,0.0,0.0,0.0,-0.031952633449401455,-1.623441744418682,9.537884214319048,-0.017453292519943295,0.020725784867432664,-0.1734420944169365,12.0625,38.875,-61.5625
1774889225.439569,0.0,0.0,0.0,-0.031952633449401455,-1.623441744418682,9.537884214319048,-0.017453292519943295,0.020725784867432664,-0.1734420944169365,12.0625,38.875,-61.5625
1774889225.4599137,-8.463495783146065,-0.34082290002236026,-9.150974703095105,-0.04802501428482875,-1.6724671180736193,9.54193707997152,-0.006544984694978736,0.031634092692397225,-0.1505346479845109,12.0625,38.875,-61.5625
1774889225.6783526,-8.463495783146065,-0.34082290002236026,-9.150974703095105,-0.04802501428482875,-1.6724671180736193,9.54193707997152,-0.006544984694978736,0.031634092692397225,-0.1505346479845109,12.0625,38.875,-61.5625
1774889225.7421246,-9.1237354633612,-0.3586645403778734,-9.151800493620001,-0.021269096541213613,-1.7468757579148575,9.62002158877434,0.003272492347489368,0.014180800172453928,-0.15162547876700738,11.375,37.6875,-61.5625
1774889225.7593985,-9.269830847258628,-0.37568017171401874,-9.129489216792308,-0.014154346156801625,-1.7378855166704503,9.73709327684434,0.009817477042468103,0.006544984694978736,-0.1265363707695889,11.375,37.6875,-61.5625
1774889225.775545,-9.269830847258628,-0.37568017171401874,-9.129489216792308,-0.014154346156801625,-1.7378855166704503,9.73709327684434,0.009817477042468103,0.006544984694978736,-0.1265363707695889,11.375,37.6875,-61.5625
1774889226.0181875,-9.269830847258628,-0.37568017171401874,-9.129489216792308,-0.014154346156801625,-1.7378855166704503,9.73709327684434,0.009817477042468103,0.006544984694978736,-0.1265363707695889,11.375,37.6875,-61.5625
1774889226.0359879,0.0,0.0,0.0,-0.0060744475456254166,-1.7319026115498724,9.848454294551672,-0.006544984694978736,0.03381575425739013,-0.14289883250703572,12.75,36.25,-60.0
1774889226.08044,-10.073287476532983,-0.3655917712199947,-9.083945901674994,-0.0006973652782691249,-1.727921055025557,9.922563807851825,-0.008726646259971648,0.014180800172453928,-0.16798794050445423,12.75,36.25,-60.0
1774889226.1264026,-10.585797020605629,-0.3860144762424142,-9.090993176524908,0.06643814534378018,-1.6249180224159443,9.955157302558973,-0.019634954084936207,0.022907446432425576,-0.14726215563702155,12.75,37.375,-60.375
1774889226.3520377,-10.585797020605629,-0.3860144762424142,-9.090993176524908,0.06643814534378018,-1.6249180224159443,9.955157302558973,-0.019634954084936207,0.022907446432425576,-0.14726215563702155,12.75,37.375,-60.375
1774889226.3834977,0.0,0.0,0.0,-0.009307943753536552,-1.7002104582482467,9.973502797486068,-0.01090830782496456,0.004363323129985824,-0.0818123086872342,12.75,37.375,-60.375
1774889226.437649,-11.55861243347302,-0.4737485996533641,-9.051158601127597,0.0047822787511290375,-1.716806945320645,9.857817504725434,0.008726646259971648,0.026179938779914945,-0.13199052468207118,13.1875,35.875,-62.0
1774889226.7055998,-11.55861243347302,-0.4737485996533641,-9.051158601127597,0.0047822787511290375,-1.716806945320645,9.857817504725434,0.008726646259971648,0.026179938779914945,-0.13199052468207118,13.1875,35.875,-62.0
1774889226.7254725,-11.957611082324856,-0.5170292852115305,-9.027425745417913,0.0021179535281656333,-1.6539097750170022,9.730894764404358,0.011999138607461015,0.01090830782496456,-0.05999569303730508,13.875,36.6875,-62.0
1774889226.763646,-12.02831363254468,-0.5156281857670248,-9.02787120016589,-0.02535141924465196,-1.6526019115987665,9.71721500888665,0.00545415391248228,0.018544123302439753,-0.0719948316447661,13.875,36.6875,-62.0
1774889227.0012019,-12.02831363254468,-0.5156281857670248,-9.02787120016589,-0.02535141924465196,-1.6526019115987665,9.71721500888665,0.00545415391248228,0.018544123302439753,-0.0719948316447661,13.875,36.6875,-62.0
1774889227.0210233,0.0,0.0,0.0,-0.020216198020726623,-1.6416962079817639,9.764978183426924,-0.001090830782496456,0.01090830782496456,-0.17780541754692233,15.0625,37.375,-63.0625
1774889227.0338185,0.0,0.0,0.0,-0.020216198020726623,-1.6416962079817639,9.764978183426924,-0.001090830782496456,0.01090830782496456,-0.17780541754692233,15.0625,37.375,-63.0625
1774889227.0636702,-12.593353469627969,-0.5905204356741088,-8.979161165089518,-0.01679876566038405,-1.6444739191712987,9.833560271314372,0.001090830782496456,0.004363323129985824,-0.09381144729469522,15.0625,37.375,-63.0625
1774889227.1031444,-12.655334766634148,-0.6070239277368221,-8.956249091872056,-0.01452450259979688,-1.6697382368901026,9.962828677374334,-0.00545415391248228,0.002181661564992912,-0.055632369907319255,15.0625,37.375,-63.0625
1774889227.4210699,-12.901049929811352,-0.6315909921625931,-8.940627318717178,-0.013011005938159128,-1.6865513581110456,10.048855357584527,-0.016362461737446838,0.00545415391248228,-0.08399397025222712,15.0625,38.0625,-62.25
1774889227.4630742,0.0,0.0,0.0,-0.04545490788989853,-1.7044305258833519,9.902053338136943,0.017453292519943295,0.003272492347489368,-0.15926129424448257,15.0625,38.0625,-62.25
1774889227.5103848,-13.89465454957821,-0.7502016026152688,-8.922623161642699,-0.07137923256126376,-1.7175805721386879,9.849731919998435,-0.008726646259971648,0.003272492347489368,-0.11671889372712078,17.875,40.0625,-61.75
1774889227.7457051,-13.89465454957821,-0.7502016026152688,-8.922623161642699,-0.07137923256126376,-1.7175805721386879,9.849731919998435,-0.008726646259971648,0.003272492347489368,-0.11671889372712078,17.875,40.0625,-61.75
1774889227.76585,0.0,0.0,0.0,-0.0742629755698032,-1.7351154563216737,9.879927601119483,-0.016362461737446838,0.006544984694978736,-0.061086523819801536,20.875,43.0,-60.25
1774889227.8026347,-14.688929623106336,-0.8058757677829865,-8.868358144835975,-0.07618207432846606,-1.74678472586796,9.893332266183043,0.01090830782496456,0.025089107997418487,-0.12980886311707826,20.875,43.0,-60.25
1774889228.0495903,-14.688929623106336,-0.8058757677829865,-8.868358144835975,-0.07618207432846606,-1.74678472586796,9.893332266183043,0.01090830782496456,0.025089107997418487,-0.12980886311707826,20.875,43.0,-60.25
1774889228.0682516,0.0,0.0,0.0,-0.08080432482193778,-1.757895606104051,9.90225292104292,0.00545415391248228,0.00545415391248228,-0.06326818538479445,22.6875,46.6875,-58.6875
1774889228.1205852,-15.683863318512111,-0.8522563283246831,-8.844386783727355,-0.04708415211090878,-1.6816619801015202,9.871393288421412,0.031634092692397225,0.007635815477475192,-0.13853550937704992,22.6875,46.6875,-58.6875
1774889228.393099,-16.142754577683256,-0.8718688751742856,-8.828978106177916,-0.04805953580196493,-1.590788013094404,9.951209898856064,-0.019634954084936207,0.014180800172453928,-0.19853120241435498,22.6875,49.25,-56.6875
1774889228.432644,0.0,0.0,0.0,-0.04536353104529367,-1.530312403179894,9.907318721978102,0.002181661564992912,0.01090830782496456,-0.13308135546456762,22.6875,49.25,-56.6875
1774889228.459915,-16.857078872059148,-0.8984735026800701,-8.870271349003065,-0.043569369996075386,-1.5368981242410862,9.87810963406239,0.00545415391248228,0.019634954084936207,-0.1439896632895322,23.0625,50.0,-53.5
1774889228.7155886,-17.231854721884492,-0.911570316697287,-8.855427425320416,-0.04237537585991275,-1.5412808480399849,9.758317961121794,0.02399827721492203,0.03490658503988659,-0.1505346479845109,23.0625,50.0,-53.5
1774889228.7406447,0.0,0.0,0.0,-0.03823567439276557,-1.4940208261601284,9.678597940940493,0.003272492347489368,0.009817477042468103,-0.136353847812057,23.875,52.875,-48.0
1774889228.7778153,-17.856640333803963,-0.8991075076179512,-8.8239828036713,-0.008719855651319441,-1.4625698095281199,9.685757168772563,0.002181661564992912,0.0272707695624114,-0.12762720155208535,23.875,52.875,-48.0
1774889229.0668757,-18.33530431579226,-0.8713975375814474,-8.816663766524206,0.010922592007813852,-1.4215688390464778,9.690521554920991,0.044724062082354694,0.0272707695624114,-0.08508480103472356,22.6875,54.0625,-46.75
1774889229.1077874,0.0,0.0,0.0,0.007268862967852728,-1.4544951619335444,9.69369220068109,-0.02399827721492203,0.019634954084936207,-0.10799224746714914,22.6875,54.0625,-46.75
1774889229.4409974,-18.857799283721064,-0.912845162321146,-8.776746404858136,0.00483734710658628,-1.4463012566378861,9.822916474894138,-0.008726646259971648,0.008726646259971648,-0.0818123086872342,20.5,54.0625,-40.75
1774889229.466033,0.0,0.0,0.0,0.0032192004627253487,-1.4709543095614195,9.908913785853194,0.013089969389957472,0.0,-0.11671889372712078,20.5,54.0625,-40.75
1774889229.5188456,-19.702787605526797,-0.9353450244095356,-8.812594871444654,0.020341937665708867,-1.4949692193891404,9.72566781851552,-0.003272492347489368,-0.004363323129985824,-0.18653206380689397,17.5625,55.0625,-32.875
1774889229.7705216,-20.01309137328939,-0.9880085069326203,-8.812524862796451,0.020341937665708867,-1.4949692193891404,9.72566781851552,-0.003272492347489368,-0.004363323129985824,-0.18653206380689397,17.5625,55.0625,-32.875
1774889229.8160288,0.0,0.0,0.0,0.046988449355390316,-1.5200678536522103,9.850886114786533,0.001090830782496456,0.007635815477475192,-0.04908738521234052,16.0625,48.75,-20.75
1774889229.8490872,-20.842971962382162,-1.0325930956220175,-8.815470211380505,0.02458006473600154,-1.5601864963354037,9.934217492174872,0.016362461737446838,0.004363323129985824,-0.17998707911191522,16.0625,48.75,-20.75
1774889230.1234622,-20.842971962382162,-1.0325930956220175,-8.815470211380505,0.02458006473600154,-1.5601864963354037,9.934217492174872,0.016362461737446838,0.004363323129985824,-0.17998707911191522,16.0625,48.75,-20.75
1774889230.1556945,0.0,0.0,0.0,0.01635775850449483,-1.5868850048864658,9.972948034417735,-0.01090830782496456,0.026179938779914945,-0.15489797111449674,12.375,45.0625,-16.0
1774889230.183124,-21.864329968297646,-1.1236910861691691,-8.79652488987248,0.0027921795966386496,-1.5663354606247606,9.914533272788235,-0.018544123302439753,0.025089107997418487,-0.19416787928436915,11.0,45.5,-14.75
1774889230.4979959,-22.545148065997758,-1.1085576382960955,-8.77474911186905,0.0027921795966386496,-1.5663354606247606,9.914533272788235,-0.018544123302439753,0.025089107997418487,-0.19416787928436915,11.0,45.5,-14.75
1774889230.524605,0.0,0.0,0.0,-0.09515007518138889,-1.5608710665667265,9.929742400937192,-0.003272492347489368,0.016362461737446838,-0.07853981633974483,11.0,45.5,-14.75
1774889230.542676,0.0,0.0,0.0,-0.17370999847877022,-1.557234573362386,9.93986390582323,0.017453292519943295,0.002181661564992912,-0.2792526803190927,11.0,45.5,-14.75
1774889230.5899704,-24.00319509464035,-1.2555212626394887,-8.824380913013878,-0.22599074986133322,-1.554814527757188,9.856281638162647,-0.026179938779914945,-0.018544123302439753,-0.25743606466916363,9.5625,37.6875,-11.1875
1774889230.9425132,0.0,0.0,0.0,-0.18050032491650447,-1.616761136879678,9.800658572709635,0.006544984694978736,0.013089969389957472,-0.16907877128695067,7.75,29.5625,-7.1875
1774889230.9906824,-25.08856102107179,-1.243332026428904,-8.833448082879764,-0.10339539137459239,-1.65798591326173,9.807128496196162,-0.009817477042468103,0.019634954084936207,-0.14508049407202864,7.75,29.5625,-7.1875
1774889231.258802,0.0,0.0,0.0,-0.11265804760705929,-1.6201092872982883,9.814299527837498,0.0,-0.001090830782496456,-0.039269908169872414,-2041.3125,29.875,-6.0
1774889231.2978365,-26.225701429009515,-1.3211823865259242,-8.808225478011417,-0.12180423611211881,-1.6100373943542337,9.943320644332438,0.014180800172453928,0.00545415391248228,-0.09599310885968812,3.1875,22.0,1.0
1774889231.3551044,-26.574978093255663,-1.2930056467628943,-8.846331544421554,-0.12789092239261587,-1.7103782367446017,10.029182756099514,-0.03381575425739013,0.004363323129985824,-0.20725784867432664,3.1875,22.0,1.0
1774889231.6110141,-26.574978093255663,-1.2930056467628943,-8.846331544421554,-0.12789092239261587,-1.7103782367446017,10.029182756099514,-0.03381575425739013,0.004363323129985824,-0.20725784867432664,3.1875,22.0,1.0
1774889231.6591897,0.0,0.0,0.0,-0.1787731080220172,-1.7202870474503094,9.999350127947565,-0.007635815477475192,0.01090830782496456,-0.12762720155208535,4.6875,17.5625,1.75
1774889231.692127,-27.198897546860362,-1.252405950308806,-8.889527658639508,-0.2126346341671277,-1.7268812502862896,9.83900215545732,-0.019634954084936207,0.031634092692397225,-0.16144295580947549,4.6875,17.5625,1.75
1774889231.940121,0.0,0.0,0.0,-0.16826686741227947,-1.7078538366603264,9.73229237096928,-0.011999138607461015,0.01090830782496456,-0.05781403147231216,7.1875,11.6875,-0.5625
1774889231.976769,0.0,0.0,0.0,-0.16826686741227947,-1.7078538366603264,9.73229237096928,-0.011999138607461015,0.01090830782496456,-0.05781403147231216,7.1875,11.6875,-0.5625
1774889232.04132,-28.187685843223242,-1.1693617530955849,-8.903825065017969,-0.1387406142573571,-1.6885010820277464,9.661278201418886,-0.00545415391248228,0.017453292519943295,-0.1559888018969932,7.1875,11.6875,-0.5625
1774889232.3766298,-29.499285575519387,-1.1557813952613112,-8.891029251761578,-0.0175663541188546,-1.6820390276892558,9.984248177385007,0.026179938779914945,0.011999138607461015,-0.10144726277217041,5.375,4.1875,6.1875
1774889232.603415,-29.499285575519387,-1.1557813952613112,-8.891029251761578,-0.0175663541188546,-1.6820390276892558,9.984248177385007,0.026179938779914945,0.011999138607461015,-0.10144726277217041,5.375,4.1875,6.1875
1774889232.6225832,0.0,0.0,0.0,-0.10535334024200749,-1.6445607213692548,10.029658678496943,-0.009817477042468103,0.015271630954950384,-0.05126904677733343,6.875,1.25,0.1875
1774889232.6419787,0.0,0.0,0.0,-0.10690769983764654,-1.6196193271734076,10.053188636303762,-0.006544984694978736,0.011999138607461015,-0.16689710972195776,6.875,1.25,0.1875
1774889232.6641624,-30.1479939631819,-1.1274099879547201,-8.862142688050115,-0.10794210878520996,-1.6030211079496999,10.001945326230961,0.016362461737446838,0.019634954084936207,-0.1265363707695889,6.875,1.25,0.1875
1774889232.9351947,0.0,0.0,0.0,-0.0985951612627502,-1.5819398433486218,9.830693895802698,0.014180800172453928,0.017453292519943295,-0.11780972450961724,9.5,-0.5,-4.875
1774889232.967343,-30.8765629840072,-1.1031402892856552,-8.826066442798982,-0.06561397844024337,-1.531114268469247,9.696657311612595,0.022907446432425576,0.01090830782496456,-0.1308996938995747,9.5,-0.5,-4.875
1774889233.027918,-31.205032932259837,-1.0919657571538741,-8.796722343109042,-0.026939811159220478,-1.4705295224873405,9.607457462120834,-0.003272492347489368,0.018544123302439753,-0.11999138607461016,9.0625,1.25,-4.875
1774889233.2879565,0.0,0.0,0.0,-0.0012025848524553802,-1.4302110508123387,9.648449309931257,-0.015271630954950384,0.013089969389957472,-0.16689710972195776,9.0625,1.25,-4.875
1774889233.3516808,-31.948277708856192,-1.1057409400711824,-8.816557705921637,-0.03425142385874988,-1.4736269041531713,9.675728926740149,-0.013089969389957472,0.0272707695624114,-0.14289883250703572,11.0,0.5625,-8.375
1774889233.372889,-32.25448995579073,-1.0977618039701165,-8.829644197075519,-0.056245057037717455,-1.502519669564636,9.553388515285766,0.006544984694978736,0.019634954084936207,-0.11017390903214205,11.0,0.5625,-8.375
1774889233.6301146,0.0,0.0,0.0,-0.05750112740406224,-1.5217474821926282,9.471972338094817,0.00545415391248228,0.01090830782496456,-0.06217735460229799,13.5,1.25,-12.75
1774889233.6483936,0.0,0.0,0.0,-0.05750112740406224,-1.5217474821926282,9.471972338094817,0.00545415391248228,0.01090830782496456,-0.06217735460229799,13.5,1.25,-12.75
1774889233.6645224,0.0,0.0,0.0,-0.04161146966504242,-1.5278531532931778,9.551595249945306,-0.009817477042468103,0.026179938779914945,-0.15162547876700738,13.5,1.25,-12.75
1774889233.722482,-33.18099847458125,-1.0387754268205307,-8.801069509196514,-0.024346856524193158,-1.5319164092057784,9.694901424433226,-0.009817477042468103,0.019634954084936207,-0.14726215563702155,13.5,1.25,-12.75
1774889233.9176538,-33.18099847458125,-1.0387754268205307,-8.801069509196514,-0.024346856524193158,-1.5319164092057784,9.694901424433226,-0.009817477042468103,0.019634954084936207,-0.14726215563702155,13.5,1.25,-12.75
1774889233.9409876,0.0,0.0,0.0,-0.01285744933732339,-1.471063338187003,9.699952066622453,0.001090830782496456,0.008726646259971648,-0.055632369907319255,13.5,1.25,-12.75
1774889233.9653397,0.0,0.0,0.0,-0.008556488906868758,-1.4305662991973522,9.66317187209218,0.009817477042468103,0.025089107997418487,-0.1189005552921137,13.5,1.25,-12.75
1774889233.986947,-33.82239783090887,-0.9828915115259007,-8.834202274785019,-0.005694247785277246,-1.4404122009118194,9.638695063493977,-0.004363323129985824,0.022907446432425576,-0.13853550937704992,13.1875,0.5625,-14.375
1774889234.0057433,-33.82239783090887,-0.9828915115259007,-8.834202274785019,-0.005694247785277246,-1.4404122009118194,9.638695063493977,-0.004363323129985824,0.022907446432425576,-0.13853550937704992,13.1875,0.5625,-14.375
1774889234.290672,-34.7874841298461,-0.9656047918800166,-8.86209817958974,-0.038848796953167695,-1.4983556498105464,9.61619961591394,-0.00545415391248228,0.019634954084936207,-0.12326387842209953,13.6875,-5.75,-13.0625
1774889234.594649,0.0,0.0,0.0,-0.019163216988197444,-1.4286583574638068,9.600745328307202,0.006544984694978736,0.011999138607461015,-0.05890486225480862,17.0625,-4.5625,-17.0625
1774889234.6324356,-35.30167800835436,-0.971850184974002,-8.890220730188618,-0.05289424732631795,-1.4424875987085701,9.590460672540623,-0.02181661564992912,0.018544123302439753,-0.1265363707695889,17.0625,-4.5625,-17.0625
1774889235.0178452,-35.67498984565544,-1.001055279917355,-8.864897193587089,-0.07474485281319229,-1.4378747844508462,9.4453516198163,0.007635815477475192,0.0,-0.04363323129985824,16.25,-5.75,-19.875
1774889235.2929778,-35.69683072233414,-1.000620642823092,-8.857967244651363,-0.02632608264122923,-1.408479687426377,9.450251666620876,0.003272492347489368,0.006544984694978736,0.002181661564992912,18.0625,-5.75,-22.25
1774889235.5802345,-35.66051483006944,-0.9891817665631171,-8.831598806996205,-0.02755504903808403,-1.4825807065262846,9.547175720837155,0.0,-0.003272492347489368,0.016362461737446838,18.0625,-5.75,-22.25
1774889235.6058643,0.0,0.0,0.0,-0.02837291244673672,-1.5218587718526941,9.61167759620546,0.009817477042468103,-0.002181661564992912,0.03490658503988659,18.5,-5.0,-26.1875
1774889235.6310263,0.0,0.0,0.0,-0.05902319677493664,-1.5546881089773197,9.654602873729909,-0.01090830782496456,-0.007635815477475192,0.01090830782496456,18.5,-5.0,-26.1875
1774889235.6593409,-35.53003199700006,-0.9635631297717431,-8.830389610533924,-0.07942061860924363,-1.5698454426913946,9.68316916641566,0.015271630954950384,-0.006544984694978736,0.04799655442984406,18.5,-5.0,-26.1875
1774889235.6803086,-35.48169226096597,-0.9197846681773192,-8.843513957625298,-0.046163311083372,-1.5698971438376415,9.70217971509163,0.019634954084936207,-0.006544984694978736,0.04145156973486533,17.0625,-3.875,-26.25
1774889235.9507143,-35.48169226096597,-0.9197846681773192,-8.843513957625298,-0.046163311083372,-1.5698971438376415,9.70217971509163,0.019634954084936207,-0.006544984694978736,0.04145156973486533,17.0625,-3.875,-26.25
1774889235.982114,0.0,0.0,0.0,-0.0240309444333718,-1.499684204519222,9.671344570678592,0.003272492347489368,0.003272492347489368,0.016362461737446838,17.0625,-3.875,-26.25
1774889236.0154696,-35.29238411904402,-0.8830473637293004,-8.844510178052198,-0.015992325077170442,-1.4529582777327377,9.650824126522847,0.008726646259971648,-0.011999138607461015,0.03381575425739013,17.6875,-3.875,-28.5625
1774889236.030846,-35.262344146956856,-0.893807912819047,-8.862652056411266,-0.02736827222947734,-1.492110041272842,9.680654452360733,-0.011999138607461015,-0.016362461737446838,0.025089107997418487,17.6875,-3.875,-28.5625
1774889236.3001144,-35.262344146956856,-0.893807912819047,-8.862652056411266,-0.02736827222947734,-1.492110041272842,9.680654452360733,-0.011999138607461015,-0.016362461737446838,0.025089107997418487,17.6875,-3.875,-28.5625
1774889236.3385131,0.0,0.0,0.0,-0.04497417310363955,-1.518165102554926,9.700506200979271,0.001090830782496456,-0.030543261909900768,0.10253809355466686,18.0625,-3.1875,-31.0
1774889236.7273734,-34.88006604655064,-0.8975269783411606,-8.855316806990862,-0.04665536834263715,-1.5355044547840477,9.713717317926347,-0.011999138607461015,-0.011999138607461015,0.0272707695624114,18.0625,-3.1875,-31.0
1774889236.7730472,-34.40742516051499,-0.8274797164043382,-8.869152940212974,-0.04516181327716201,-1.5937214955076662,9.772965476568382,-0.00545415391248228,-0.009817477042468103,0.04799655442984406,16.25,-3.5,-34.5625
1774889237.058339,-34.40742516051499,-0.8274797164043382,-8.869152940212974,-0.04516181327716201,-1.5937214955076662,9.772965476568382,-0.00545415391248228,-0.009817477042468103,0.04799655442984406,16.25,-3.5,-34.5625
1774889237.0962799,0.0,0.0,0.0,0.04688288702290448,-1.60920217222512,9.949264412017643,0.002181661564992912,0.0,0.04363323129985824,15.875,-2.5,-37.0
1774889237.1320102,-34.23311279181991,-0.8117720891981388,-8.86395378586292,0.10813760686592533,-1.579363049162263,10.066589384170976,0.006544984694978736,0.003272492347489368,0.030543261909900768,15.875,-2.5,-37.0
1774889237.160588,-34.182797901719894,-0.7924480172490026,-8.861607241384307,0.07530948110037393,-1.5996467865766095,10.040969379606304,-0.004363323129985824,0.002181661564992912,0.002181661564992912,15.1875,-1.6875,-37.25
1774889237.4309065,-34.182797901719894,-0.7924480172490026,-8.861607241384307,0.07530948110037393,-1.5996467865766095,10.040969379606304,-0.004363323129985824,0.002181661564992912,0.002181661564992912,15.1875,-1.6875,-37.25
1774889237.4740481,0.0,0.0,0.0,0.05346273011759244,-1.5094469243147628,10.01722932934808,-0.002181661564992912,0.002181661564992912,0.011999138607461015,15.1875,-1.6875,-37.25
1774889237.503409,-33.981303435274434,-0.7259285113403371,-8.863543555545904,0.028888626260792166,-1.5966048387000389,9.964634362314456,-0.002181661564992912,0.0,0.014180800172453928,14.375,-2.5,-40.5
1774889237.5395885,-33.93820330695775,-0.7117722569843709,-8.852449726536937,0.02591528148409593,-1.5074225419836893,9.929632999277857,0.00545415391248228,0.002181661564992912,0.019634954084936207,14.375,-2.5,-40.5
1774889237.7703152,-33.93820330695775,-0.7117722569843709,-8.852449726536937,0.02591528148409593,-1.5074225419836893,9.929632999277857,0.00545415391248228,0.002181661564992912,0.019634954084936207,14.375,-2.5,-40.5
1774889237.8273811,0.0,0.0,0.0,0.023936553749642042,-1.6353989753603744,9.909685094875165,-0.015271630954950384,0.0,0.011999138607461015,15.5625,0.875,-42.5
1774889237.8572743,-33.67661270781971,-0.6888253760921083,-8.869617194557252,0.02261973254620008,-1.6469734046211002,9.896409987327866,0.00545415391248228,-0.013089969389957472,0.05890486225480862,15.5625,0.875,-42.5
1774889238.1585517,-33.67661270781971,-0.6888253760921083,-8.869617194557252,0.02261973254620008,-1.6469734046211002,9.896409987327866,0.00545415391248228,-0.013089969389957472,0.05890486225480862,15.5625,0.875,-42.5
1774889238.21369,-33.33780323130331,-0.6115303998356899,-8.872116421190624,-0.0178385082165364,-1.6263509707049664,9.925017305516244,0.015271630954950384,-0.006544984694978736,0.06763150851478027,14.75,1.5625,-41.6875
1774889238.2500067,-33.33780323130331,-0.6115303998356899,-8.872116421190624,-0.0178385082165364,-1.6263509707049664,9.925017305516244,0.015271630954950384,-0.006544984694978736,0.06763150851478027,14.75,1.5625,-41.6875
1774889238.5122933,0.0,0.0,0.0,0.004854230587685415,-1.607500941522567,9.769463822237395,-0.007635815477475192,-0.007635815477475192,0.022907446432425576,14.0625,2.375,-40.0625
1774889238.577447,-32.95380667170094,-0.553603556944411,-8.85312361532847,0.0266609384239094,-1.6033219823412708,9.64388547235408,-0.011999138607461015,-0.007635815477475192,0.05890486225480862,14.0625,4.5,-38.5625
1774889238.863681,-33.798113464049436,-0.6147604104886822,-8.911689746821676,0.0266609384239094,-1.6033219823412708,9.64388547235408,-0.011999138607461015,-0.007635815477475192,0.05890486225480862,14.0625,4.5,-38.5625
1774889238.9487393,0.0,0.0,0.0,0.024432780113554115,-1.642352082626974,9.833257105765275,-0.001090830782496456,-0.00545415391248228,0.0545415391248228,14.0625,4.5,-38.5625
1774889239.2597876,-32.4993163861827,-0.49367852133007306,-8.92100207809845,0.022949965648171873,-1.6817066252015993,9.959281812380672,-0.006544984694978736,-0.002181661564992912,0.06981317007977318,15.1875,3.5,-38.5
1774889239.3010154,0.0,0.0,0.0,0.03199850430754105,-1.7078966336659667,10.043149846845003,-0.013089969389957472,0.008726646259971648,0.04908738521234052,15.1875,3.5,-38.5
1774889239.377576,-32.083096544784134,-0.40526710417174616,-8.931613650349016,0.038020205706551444,-1.6550784458837322,9.90160149618184,0.00545415391248228,-0.01090830782496456,0.04799655442984406,14.6875,1.75,-33.375
1774889239.6462948,0.0,0.0,0.0,0.018611798769545027,-1.5931676382739173,9.79067709147759,-0.01090830782496456,-0.008726646259971648,0.06435901616729091,14.6875,1.75,-33.375
1774889239.7185037,0.0,0.0,0.0,0.018611798769545027,-1.5931676382739173,9.79067709147759,-0.01090830782496456,-0.008726646259971648,0.06435901616729091,14.6875,1.75,-33.375
1774889239.74146,-31.52167772609978,-0.3217309214213361,-8.973928419450873,-0.047826066558031635,-1.5519666873986213,9.716858139253702,-0.006544984694978736,-0.002181661564992912,0.05781403147231216,15.6875,1.375,-33.0625
1774889240.0734882,-31.108782651164677,-0.2977173328135609,-9.03079932800347,-0.12146341875223052,-1.5129912513977888,9.581518067187144,-0.003272492347489368,-0.015271630954950384,0.050178215994836975,15.6875,0.25,-32.25
1774889240.368622,0.0,0.0,0.0,-0.1410445590760671,-1.5688575434151903,9.751610953828411,-0.004363323129985824,0.002181661564992912,0.016362461737446838,15.6875,0.25,-32.25
1774889240.4205937,-30.75377842457641,-0.2831090780339086,-9.028164215440485,-0.10055380190880063,-1.6060359366853987,9.868150981533452,-0.003272492347489368,-0.018544123302439753,0.08072147790473774,14.25,-0.375,-31.5
1774889240.756863,-30.657904909541156,-0.2928989972407349,-9.037982812842035,-0.07360765532537908,-1.6307777420968572,9.945707068133748,-0.008726646259971648,-0.013089969389957472,0.06435901616729091,14.25,-0.375,-31.5
1774889240.7807844,0.0,0.0,0.0,-0.1158873065140412,-1.6773491425799814,9.997319777407991,-0.00545415391248228,-0.007635815477475192,0.04363323129985824,15.375,-1.1875,-30.5625
1774889240.8327317,-30.36328323941135,-0.2529705381782467,-9.05776701041627,-0.15605833533676344,-1.688896795608799,9.806092793500172,-0.006544984694978736,-0.01090830782496456,0.05781403147231216,15.375,0.6875,-29.875
1774889241.099947,-30.169081101765656,-0.22591464170472017,-9.068503793540424,-0.15605833533676344,-1.688896795608799,9.806092793500172,-0.006544984694978736,-0.01090830782496456,0.05781403147231216,15.375,0.6875,-29.875
1774889241.137007,0.0,0.0,0.0,-0.08712952034418836,-1.6558147127280625,9.76391334552557,0.004363323129985824,-0.008726646259971648,0.06544984694978735,15.375,0.6875,-29.875
1774889241.1800184,-29.737834981171012,-0.17315196232583616,-9.081506402181107,-0.01073128868953254,-1.606815326478883,9.805231396582233,-0.013089969389957472,0.002181661564992912,0.03490658503988659,16.0625,-1.1875,-29.0625
1774889241.4532034,-29.58847341014265,-0.15114500455752397,-9.099211564126618,-0.01073128868953254,-1.606815326478883,9.805231396582233,-0.013089969389957472,0.002181661564992912,0.03490658503988659,16.0625,-1.1875,-29.0625
1774889241.4664636,0.0,0.0,0.0,-0.007141552746534602,-1.5275979543711657,9.840277664767461,0.004363323129985824,0.007635815477475192,0.016362461737446838,16.0625,-1.875,-26.25
1774889241.4962409,0.0,0.0,0.0,-0.004752623576447422,-1.4748796781495086,9.75990210182536,-0.004363323129985824,0.0,0.050178215994836975,16.0625,-1.875,-26.25
1774889241.529922,-29.126837578916906,-0.11130141762114368,-9.114773464873096,0.0035274055147969854,-1.4732473712989214,9.706413062541262,-0.001090830782496456,-0.018544123302439753,0.10690141668465268,16.0625,-1.875,-26.25
1774889241.5551448,-29.126837578916906,-0.11130141762114368,-9.114773464873096,0.0035274055147969854,-1.4732473712989214,9.706413062541262,-0.001090830782496456,-0.018544123302439753,0.10690141668465268,16.0625,-1.875,-26.25
1774889241.767143,-29.126837578916906,-0.11130141762114368,-9.114773464873096,0.0035274055147969854,-1.4732473712989214,9.706413062541262,-0.001090830782496456,-0.018544123302439753,0.10690141668465268,16.0625,-1.875,-26.25
1774889241.8328145,0.0,0.0,0.0,0.009037672381034718,-1.4721610893239179,9.670816704409413,-0.001090830782496456,-0.001090830782496456,0.011999138607461015,16.875,-1.5,-26.25
1774889242.182375,0.0,0.0,0.0,-0.012722995929534643,-1.4341608644790949,9.69264668300198,-0.004363323129985824,-0.019634954084936207,0.06981317007977318,17.5625,-2.25,-24.0
1774889242.225394,-28.250335314077823,-0.12816817978017642,-9.144365173282281,-0.025192570202525244,-1.513051689806601,9.69845156138707,0.003272492347489368,0.0,0.08072147790473774,17.5625,-2.25,-24.0
1774889242.2544632,-28.1017221614046,-0.09415804207147146,-9.171779660963324,-0.043526267708887054,-1.562207541086475,9.672208637741733,0.002181661564992912,-0.006544984694978736,0.05781403147231216,16.875,-0.75,-22.0
1774889242.604579,-27.64903193811574,-0.03271447346780141,-9.09854190757096,-0.04549156096122252,-1.6177973167674717,9.769097288071004,0.016362461737446838,-0.001090830782496456,0.08508480103472356,16.875,-3.0,-21.5625
1774889242.9413686,0.0,0.0,0.0,-0.030274125645660628,-1.6185341389143364,9.79950526066108,0.004363323129985824,0.002181661564992912,0.028361600344907856,17.1875,-4.0625,-19.5625
1774889243.004928,-27.11130121009802,0.0034261936444495685,-9.097328428019162,0.016649136347468334,-1.5956087038709965,9.78963542137459,0.002181661564992912,-0.01090830782496456,0.05672320068981571,16.875,-2.25,-19.5625
1774889243.3050458,-26.697322642668173,-0.02324783013850506,-9.10448693109849,0.011079814256201033,-1.5803520829435431,9.783067153582762,-0.014180800172453928,-0.028361600344907856,0.08399397025222712,18.6875,-5.1875,-18.375
1774889243.404857,-26.590491840719654,-0.014634107342687172,-9.104743629707952,0.054205056520338184,-1.5501283019000294,9.775350933032339,0.0,-0.009817477042468103,0.07526732399225546,18.6875,-5.1875,-18.375
1774889243.6132126,-26.590491840719654,-0.014634107342687172,-9.104743629707952,0.054205056520338184,-1.5501283019000294,9.775350933032339,0.0,-0.009817477042468103,0.07526732399225546,18.6875,-5.1875,-18.375
1774889243.6491592,0.0,0.0,0.0,0.03607285960412897,-1.503253819578772,9.770215874451864,0.01090830782496456,-0.013089969389957472,0.06544984694978735,18.375,-7.375,-16.375
1774889243.7004144,-26.20272423904379,0.007356967529966206,-9.081091282231698,0.05745720217949678,-1.4720593752162519,9.796904555694795,-0.006544984694978736,-0.01090830782496456,0.044724062082354694,18.375,-7.375,-16.375
1774889244.009003,0.0,0.0,0.0,0.07168824328464547,-1.5182020551041586,9.93174448468604,-0.003272492347489368,-0.006544984694978736,0.05345070834232634,21.25,-7.75,-16.375
1774889244.0642457,-25.857090077413538,0.01735465717272601,-9.06247822035302,0.08115884216897654,-1.6124666155611207,9.904400041412835,-0.007635815477475192,-0.020725784867432664,0.038179077387375956,21.25,-7.75,-16.375
1774889244.4558084,-25.23668337808753,0.08028847308290575,-9.065486854332638,0.060999808411084586,-1.6051557360177238,9.737945737292984,0.006544984694978736,-0.013089969389957472,0.05126904677733343,22.6875,-8.875,-16.375
1774889244.4937418,-25.086526308933998,0.09978911422292808,-9.031089229822287,0.04728491449970751,-1.4395206110678005,9.504475091603743,0.037088246604879506,0.006544984694978736,0.09053895494720585,22.6875,-8.875,-16.375
1774889244.7259812,-25.086526308933998,0.09978911422292808,-9.031089229822287,0.04728491449970751,-1.4395206110678005,9.504475091603743,0.037088246604879506,0.006544984694978736,0.09053895494720585,22.6875,-8.875,-16.375
1774889244.7485683,0.0,0.0,0.0,0.008051800441215055,-1.5166185412890922,9.549809687374713,0.003272492347489368,-0.007635815477475192,-0.007635815477475192,22.0625,-7.75,-16.375
1774889244.7662578,0.0,0.0,0.0,0.008051800441215055,-1.5166185412890922,9.549809687374713,0.003272492347489368,-0.007635815477475192,-0.007635815477475192,22.0625,-7.75,-16.375
1774889244.7994983,0.0,0.0,0.0,0.07560572910283131,-1.4976790067573433,9.606740248098232,0.008726646259971648,0.004363323129985824,-0.01090830782496456,22.0625,-7.75,-16.375
1774889244.8217292,-24.881183035841747,0.14715402612510745,-8.987519301695235,0.04027943302464327,-1.4850749580949278,9.691458464206173,0.003272492347489368,-0.004363323129985824,0.01090830782496456,22.0625,-7.0625,-16.375
1774889245.084444,-24.881183035841747,0.14715402612510745,-8.987519301695235,0.04027943302464327,-1.4850749580949278,9.691458464206173,0.003272492347489368,-0.004363323129985824,0.01090830782496456,22.0625,-7.0625,-16.375
1774889245.1090562,0.0,0.0,0.0,0.016770177605193,-1.4766871045065393,9.747837490661524,0.0,0.002181661564992912,-0.001090830782496456,22.0625,-7.0625,-16.375
1774889245.1229658,0.0,0.0,0.0,0.016770177605193,-1.4766871045065393,9.747837490661524,0.0,0.002181661564992912,-0.001090830782496456,22.0625,-7.0625,-16.375
1774889245.1547363,0.0,0.0,0.0,0.0011250307391392038,-1.507901310422444,9.78535710297257,0.001090830782496456,0.001090830782496456,-0.002181661564992912,22.0625,-8.0625,-16.0
1774889245.4036744,-24.881183035841747,0.14715402612510745,-8.987519301695235,0.0007486953894803308,-1.5286740157739513,9.763494421941568,0.0,0.001090830782496456,0.002181661564992912,22.0625,-8.0625,-16.0
1774889245.4351795,0.0,0.0,0.0,0.0004982484182236607,-1.5257724606024596,9.735564605108307,-0.001090830782496456,-0.001090830782496456,0.002181661564992912,20.5625,-9.25,-16.75
1774889245.4486983,-24.881183035841747,0.14715402612510745,-8.987519301695235,0.0003315787565283275,-1.523841508048327,9.716977624002268,0.0,-0.001090830782496456,0.0,20.5625,-9.25,-16.75
1774889245.4692745,-24.881183035841747,0.14715402612510745,-8.987519301695235,0.00022066195849219635,-1.539282039230302,9.704608195706385,-0.001090830782496456,-0.001090830782496456,0.0,20.5625,-9.25,-16.75
1774889245.7232318,-24.881183035841747,0.14715402612510745,-8.987519301695235,0.00022066195849219635,-1.539282039230302,9.704608195706385,-0.001090830782496456,-0.001090830782496456,0.0,20.5625,-9.25,-16.75
1774889245.7425363,0.0,0.0,0.0,0.00014684806842096934,-1.552902651957191,9.70306670276568,0.002181661564992912,0.004363323129985824,0.0,21.6875,-8.0625,-16.75
1774889245.763509,0.0,0.0,0.0,9.772574913374709e-05,-1.5586219058674025,9.702040856433246,0.002181661564992912,0.001090830782496456,-0.002181661564992912,21.6875,-8.0625,-16.75
1774889245.801043,-24.880592837161416,0.14034473297461478,-8.985996824429684,-0.005527965852727074,-1.54824718367237,9.705356114019988,0.0,0.001090830782496456,-0.001090830782496456,22.375,-6.6875,-14.75
1774889246.059363,0.0,0.0,0.0,-0.007023911230884547,-1.5421432968995648,9.70356443404859,0.002181661564992912,0.0,-0.003272492347489368,22.375,-6.6875,-14.75
1774889246.102251,-24.880592837161416,0.14034473297461478,-8.985996824429684,-0.004674334461924147,-1.5414263401444652,9.699026979334679,-0.001090830782496456,0.0,0.001090830782496456,21.6875,-8.5,-16.75
1774889246.1418128,-24.880592837161416,0.14034473297461478,-8.985996824429684,-0.004674334461924147,-1.5414263401444652,9.699026979334679,-0.001090830782496456,0.0,0.001090830782496456,21.6875,-8.5,-16.75
1774889246.1886415,-24.880592837161416,0.14034473297461478,-8.985996824429684,-0.0031107173686732554,-1.5409492134328782,9.696007353909263,0.001090830782496456,0.003272492347489368,-0.001090830782496456,21.6875,-8.5,-16.75
1774889246.392629,-24.880592837161416,0.14034473297461478,-8.985996824429684,-0.0031107173686732554,-1.5409492134328782,9.696007353909263,0.001090830782496456,0.003272492347489368,-0.001090830782496456,21.6875,-8.5,-16.75
1774889246.4166825,0.0,0.0,0.0,-0.0020701476598621897,-1.5406316909361717,9.700688050334714,0.0,-0.001090830782496456,0.004363323129985824,23.0625,-11.0625,-15.875
1774889246.4481478,0.0,0.0,0.0,-0.0047227718498930905,-1.5404203832615722,9.703803001519045,0.0,0.0,-0.002181661564992912,23.0625,-11.0625,-15.875
1774889246.4646492,0.0,0.0,0.0,-0.0047227718498930905,-1.5404203832615722,9.703803001519045,0.0,0.0,-0.002181661564992912,23.0625,-11.0625,-15.875
1774889246.7067375,-24.880707467505236,0.13884336756164284,-8.992889162538424,-0.006488063616604894,-1.5402797603645875,9.705875966735933,-0.001090830782496456,0.0,-0.001090830782496456,23.0625,-11.0625,-15.875
1774889246.7203732,0.0,0.0,0.0,-0.007662845567750481,-1.540186177397505,9.707255501931234,0.0,0.001090830782496456,0.001090830782496456,23.0625,-11.0625,-15.875
1774889246.7369702,0.0,0.0,0.0,-0.005099538125744223,-1.5401238989783017,9.698138232071331,0.0,-0.001090830782496456,0.0,23.0625,-11.0625,-15.875
1774889246.78907,-24.880707467505236,0.13884336756164284,-8.992889162538424,-0.0033936856571093682,-1.543427565093337,9.692070790826142,0.0,-0.001090830782496456,0.001090830782496456,23.0625,-11.5,-16.6875
1774889246.9935699,-24.880707467505236,0.13884336756164284,-8.992889162538424,-0.0033936856571093682,-1.543427565093337,9.692070790826142,0.0,-0.001090830782496456,0.001090830782496456,23.0625,-11.5,-16.6875
1774889247.0315032,0.0,0.0,0.0,-0.002258459894853526,-1.5456261179885242,9.68803297645523,-0.001090830782496456,0.004363323129985824,-0.001090830782496456,22.25,-11.875,-15.875
1774889247.0635443,-24.880707467505236,0.13884336756164284,-8.992889162538424,-0.004848091538694326,-1.5470892303808264,9.698726302926007,-0.002181661564992912,0.001090830782496456,0.001090830782496456,22.25,-11.875,-15.875
1774889247.3313613,-24.880707467505236,0.13884336756164284,-8.992889162538424,-0.006571462469589466,-1.5514080270411865,9.705842592240025,-0.001090830782496456,0.002181661564992912,0.002181661564992912,22.6875,-9.6875,-16.25
1774889247.3683856,0.0,0.0,0.0,-0.007718346572785483,-1.5542821379745364,9.710578403284345,0.0,-0.002181661564992912,0.001090830782496456,22.6875,-9.6875,-16.25
1774889247.4192986,-24.880707467505236,0.13884336756164284,-8.992889162538424,-0.005644400159783864,-1.5507774762572935,9.704696734387255,0.001090830782496456,0.002181661564992912,0.0,22.6875,-11.5,-16.25
1774889247.635739,-24.880707467505236,0.13884336756164284,-8.992889162538424,-0.005644400159783864,-1.5507774762572935,9.704696734387255,0.001090830782496456,0.002181661564992912,0.0,22.6875,-11.5,-16.25
1774889247.6645513,0.0,0.0,0.0,-0.003756285254255024,-1.5471722900569305,9.693090289146799,-0.001090830782496456,0.003272492347489368,0.0,23.0625,-12.25,-15.875
1774889247.7192547,-24.880707467505236,0.13884336756164284,-8.992889162538424,-0.005844877583570443,-1.5447730789131575,9.695401664613723,0.0,-0.001090830782496456,0.0,23.0625,-12.25,-15.875
1774889247.9395218,-24.880707467505236,0.13884336756164284,-8.992889162538424,-0.005844877583570443,-1.5447730789131575,9.695401664613723,0.0,-0.001090830782496456,0.0,23.0625,-12.25,-15.875
1774889247.957581,0.0,0.0,0.0,-0.007234812447624815,-1.5030350902100886,9.696939859167205,0.008726646259971648,0.002181661564992912,-0.011999138607461015,23.0625,-11.5,-14.6875
1774889248.0141654,0.0,0.0,0.0,-0.008159798573063221,-1.5020198186306348,9.748140186069579,0.028361600344907856,-0.04145156973486533,0.037088246604879506,23.0625,-11.5,-14.6875
1774889248.2337394,-24.912191414425195,-0.5680573565683295,-8.442283626169335,0.06147197934693664,-1.501344166735835,9.84911566582437,0.2454369260617026,-0.33597588100890846,-0.07853981633974483,22.6875,-9.6875,-14.25
1774889248.2591588,0.0,0.0,0.0,0.107811149714771,-1.5008945279473718,10.16050687426548,0.3665191429188092,0.06763150851478027,-0.32179508083645453,22.6875,-9.6875,-14.25
1774889248.3350859,-27.265079225998548,0.2534038325342088,-3.1997802013564756,1.0628326863117108,0.2501059337151572,11.207677864163479,1.1017390903214206,0.4919646829059016,-0.1712604328519436,20.75,-20.75,-11.0625
1774889248.5699394,0.0,0.0,0.0,1.3194587225608567,0.7250763601434325,11.466028246004345,-0.09599310885968812,-0.1407171709420428,-0.346884188833873,27.0625,-30.25,-10.0
1774889248.6441905,-32.65923439508144,-1.17193300221301,-3.476585620617976,1.0754466312764004,0.8605278409688907,11.637957539156579,-0.6861325621902709,-0.519235452468313,-1.2828170002158321,27.0625,-30.25,-10.0
1774889248.8745131,-34.901285196057444,-2.0805652849730136,-4.539015450206592,0.8896435283690204,0.8168648200732748,11.173670237807091,-0.6294093615004551,-0.42978732830360367,-1.4464416175903005,27.0625,-30.25,-10.0
1774889248.9219897,0.0,0.0,0.0,0.6355342823553589,0.6640384342443273,10.633879517382956,-0.7603090554000298,-0.4603305902135044,-1.3951725708129672,33.0,-17.375,-16.6875
1774889248.9423687,0.0,0.0,0.0,0.6355342823553589,0.6640384342443273,10.633879517382956,-0.7603090554000298,-0.4603305902135044,-1.3951725708129672,33.0,-17.375,-16.6875
1774889248.9698765,-41.67299016518616,-4.912858264869578,-7.501282822569851,0.3371749498082694,0.49019886872457896,9.8082217652011,-0.6021385919380436,-0.14835298641951802,-1.1224648751888533,33.6875,-14.0625,-17.5
1774889249.2267325,0.0,0.0,0.0,0.25783727967961645,0.4399556693049073,9.52113699777605,-0.4166973589136462,-0.1090830782496456,-0.4788747135159442,33.6875,-14.0625,-17.5
1774889249.273231,0.0,0.0,0.0,0.25783727967961645,0.4399556693049073,9.52113699777605,-0.4166973589136462,-0.1090830782496456,-0.4788747135159442,33.6875,-14.0625,-17.5
1774889249.295218,-48.65034051904594,-7.009132511678169,-10.675128867262067,0.014367579151638693,-0.16214960889986701,9.33008529200166,-0.7952156404399164,-0.2923426497090502,-1.0035643198967394,32.1875,-2.25,-20.25
1774889249.5547884,-51.23979653246709,-8.100440578713142,-12.321417110234918,-0.1476587868149708,-0.5762243924177604,8.988855366727755,-0.7123125009701857,-0.10471975511965978,-0.9686577348568529,32.1875,-2.25,-20.25
1774889249.5723019,-51.23979653246709,-8.100440578713142,-12.321417110234918,-0.1476587868149708,-0.5762243924177604,8.988855366727755,-0.7123125009701857,-0.10471975511965978,-0.9686577348568529,32.1875,-2.25,-20.25
1774889249.593259,0.0,0.0,0.0,-0.19527351268089932,-0.858476758745148,8.761770663245994,-0.5028729907308662,0.33488505022641196,-0.8530296719122286,30.0625,8.6875,-20.25
1774889249.6302667,0.0,0.0,0.0,-0.19527351268089932,-0.858476758745148,8.761770663245994,-0.5028729907308662,0.33488505022641196,-0.8530296719122286,30.0625,8.6875,-20.25
1774889249.6540449,-57.29280074540323,-7.238155864015192,-14.210572453725652,-0.046324548658089076,-1.0831087843510143,8.627373888317829,-0.4068798818711781,0.35561083509384467,-0.9446594576419308,30.0625,8.6875,-20.25
1774889249.9825215,-57.29280074540323,-7.238155864015192,-14.210572453725652,-0.046324548658089076,-1.0831087843510143,8.627373888317829,-0.4068798818711781,0.35561083509384467,-0.9446594576419308,30.0625,8.6875,-20.25
1774889250.0231228,-57.29280074540323,-7.238155864015192,-14.210572453725652,-0.046324548658089076,-1.0831087843510143,8.627373888317829,-0.4068798818711781,0.35561083509384467,-0.9446594576419308,30.0625,8.6875,-20.25
1774889250.0499108,-64.71744888708388,-5.413921250099478,-12.946384059507212,0.06617976985941905,-1.2325988880875758,8.611526793474507,0.22580197197676638,0.7963064712224128,-1.511891464540088,38.875,12.75,-18.5625
1774889250.0901,74.4216575749025,-10.338246967951264,13.127702149162264,0.3049606107358865,-1.104615286112663,8.828448324977643,0.2083486794568231,0.6566801310628665,-1.457349925415265,38.875,12.75,-18.5625
1774889250.3248146,74.4216575749025,-10.338246967951264,13.127702149162264,0.3049606107358865,-1.104615286112663,8.828448324977643,0.2083486794568231,0.6566801310628665,-1.457349925415265,38.875,12.75,-18.5625
1774889250.3480287,0.0,0.0,0.0,0.46386659298241006,-1.0194436286688686,8.999568074679255,0.4308781590861001,0.16689710972195776,-0.6272276999354622,42.0625,12.0,-15.5625
1774889250.3819003,-72.85976123984416,-4.328274124279924,-9.229228268159618,0.5361656319981466,-0.9025508313380286,9.494789091207235,0.358883327441334,0.02399827721492203,-0.5257804371632918,42.0625,12.0,-15.5625
1774889250.6631937,-72.85976123984416,-4.328274124279924,-9.229228268159618,0.5361656319981466,-0.9025508313380286,9.494789091207235,0.358883327441334,0.02399827721492203,-0.5257804371632918,42.0625,12.0,-15.5625
1774889250.7237742,-70.81556874031014,-4.510296918927267,-9.670846701893984,0.5742444997079769,-0.5604961556142278,9.851114039383935,-0.013089969389957472,-0.13199052468207118,0.8050331174823845,39.875,17.1875,-36.0
1774889250.7457256,142.9524797033969,16.002316543072943,-5.509345969685824,0.5995855608000452,-0.07863410016485606,10.19528788661927,-0.13853550937704992,0.00545415391248228,0.6784967467127956,39.875,17.1875,-36.0
1774889250.9962192,142.9524797033969,16.002316543072943,-5.509345969685824,0.5995855608000452,-0.07863410016485606,10.19528788661927,-0.13853550937704992,0.00545415391248228,0.6784967467127956,39.875,17.1875,-36.0
1774889251.0279567,0.0,0.0,0.0,0.5395121846102704,0.24203971498484822,10.424331737280598,0.2945243112740431,0.1810779098944117,0.3883357585687383,47.5625,23.375,-34.75
1774889251.049722,-66.95790034532806,-3.124374298304338,-7.295304540167699,0.4627377950390441,0.2982243065617367,10.476404510088672,0.3643374813538163,0.20943951023931956,0.34797501961636945,47.5625,23.375,-34.75
1774889251.0978324,-66.12114660397671,-2.4986834798980095,-6.183190920002422,0.3915746261616023,0.2754025139013955,10.45084634796971,0.18544123302439752,0.11453723216212788,0.27598018797160334,48.75,23.375,-35.5625
1774889251.34643,0.0,0.0,0.0,0.36428700246226453,0.21672841362691458,10.43383767658292,-0.04581489286485115,-0.025089107997418487,0.014180800172453928,48.75,23.375,-35.5625
1774889251.3677988,0.0,0.0,0.0,0.36428700246226453,0.21672841362691458,10.43383767658292,-0.04581489286485115,-0.025089107997418487,0.014180800172453928,48.75,23.375,-35.5625
1774889251.4032617,-65.64750154128028,-2.486875288555133,-6.3181113805124935,0.35950784054236234,0.04053187532679872,10.41248326065236,-0.039269908169872414,0.031634092692397225,0.1265363707695889,47.25,24.5625,-37.5625
1774889251.446886,-65.37402332108061,-2.3036630772169615,-6.373759708133415,0.35632736167140416,-0.2306000912043222,10.194220321248547,-0.02399827721492203,0.12544553998709243,0.1538071403320003,47.25,24.5625,-37.5625
1774889251.6410453,-65.37402332108061,-2.3036630772169615,-6.373759708133415,0.35632736167140416,-0.2306000912043222,10.194220321248547,-0.02399827721492203,0.12544553998709243,0.1538071403320003,47.25,24.5625,-37.5625
1774889251.6619012,0.0,0.0,0.0,0.1401236392426178,-0.48128273204197225,10.048968773232097,-0.05890486225480862,0.0272707695624114,-0.07526732399225546,45.375,28.1875,-36.75
1774889251.6832447,0.0,0.0,0.0,0.1401236392426178,-0.48128273204197225,10.048968773232097,-0.05890486225480862,0.0272707695624114,-0.07526732399225546,45.375,28.1875,-36.75
1774889251.7225173,-64.99734555611852,-1.4382298613803872,-6.436448698665772,-0.0037575228799121563,-0.8187099262841344,9.952305490593256,-0.07635815477475191,0.1636246173744684,0.18980455615438332,45.375,28.1875,-36.75
1774889251.954231,-64.8248840181445,-1.3011236991370079,-6.577577173238362,0.08781742659532267,-1.0432639547435578,9.727411793845395,-0.136353847812057,0.050178215994836975,0.1810779098944117,45.375,28.1875,-36.75
1774889251.9865344,0.0,0.0,0.0,0.1487595325118786,-1.1927021522504464,9.534261098691744,0.030543261909900768,0.039269908169872414,0.037088246604879506,37.5,22.5625,-33.6875
1774889252.0650048,-64.81398134506857,-1.3077686339451788,-6.772509352211669,0.1893158232314176,-1.1148606828693077,9.449207920896779,0.014180800172453928,-0.018544123302439753,-0.04363323129985824,37.5,22.5625,-33.6875
1774889252.2885191,-64.81398134506857,-1.3077686339451788,-6.772509352211669,0.1893158232314176,-1.1148606828693077,9.449207920896779,0.014180800172453928,-0.018544123302439753,-0.04363323129985824,37.5,22.5625,-33.6875
1774889252.3335462,0.0,0.0,0.0,0.09588156019832096,-1.2068978579570817,9.459508215326867,0.001090830782496456,0.001090830782496456,0.0,37.0625,23.25,-32.5
1774889252.366602,-64.77337141580391,-1.298497242459363,-6.826970423713952,0.11063967114724717,-1.2681475698553841,9.53995540376929,-0.002181661564992912,-0.001090830782496456,0.001090830782496456,37.0625,23.25,-32.5
1774889252.38329,-64.77337141580391,-1.298497242459363,-6.826970423713952,0.11063967114724717,-1.2681475698553841,9.53995540376929,-0.002181661564992912,-0.001090830782496456,0.001090830782496456,37.0625,23.25,-32.5
1774889252.5756538,-64.77337141580391,-1.298497242459363,-6.826970423713952,0.11063967114724717,-1.2681475698553841,9.53995540376929,-0.002181661564992912,-0.001090830782496456,0.001090830782496456,37.0625,23.25,-32.5
1774889252.6070843,0.0,0.0,0.0,0.07362946522238485,-1.3089085689195914,9.593492109023746,-0.001090830782496456,0.0,0.003272492347489368,37.0625,23.6875,-31.6875
1774889252.6305506,0.0,0.0,0.0,0.062380033439755886,-1.369485675539821,9.609049518082486,0.001090830782496456,0.0,0.001090830782496456,37.0625,23.6875,-31.6875
1774889252.6598651,-64.7730222528528,-1.2294464340779427,-6.953876374234624,0.05489366225280322,-1.4097990633049642,9.619402800023432,0.001090830782496456,0.0,-0.002181661564992912,37.0625,23.6875,-31.6875
1774889252.9147456,-64.7730222528528,-1.2294464340779427,-6.953876374234624,0.05489366225280322,-1.4097990633049642,9.619402800023432,0.001090830782496456,0.0,-0.002181661564992912,37.0625,23.6875,-31.6875
1774889252.9479384,0.0,0.0,0.0,0.049911565856131934,-1.439972284239938,9.653053687159948,-0.001090830782496456,-0.001090830782496456,-0.002181661564992912,37.5,23.6875,-31.6875
1774889252.9781475,-64.76259241979302,-1.154264358139825,-7.0839910038594684,0.047734700220888285,-1.4667249790447052,9.700386461257423,-0.001090830782496456,0.002181661564992912,-0.002181661564992912,37.0625,24.75,-31.6875
1774889253.2605324,0.0,0.0,0.0,0.048492468302057744,-1.4611302867239937,9.7069474090644,0.001090830782496456,0.00545415391248228,0.002181661564992912,37.0625,24.75,-31.6875
1774889253.2981253,0.0,0.0,0.0,0.04899675449525191,-1.4674424166033266,9.701278311417393,0.001090830782496456,0.002181661564992912,-0.001090830782496456,37.0625,24.75,-31.6875
1774889253.3248532,-64.76281707134717,-1.081461171243538,-7.204982512861614,0.0392970162016186,-1.4682979568195924,9.697505590261281,-0.001090830782496456,-0.001090830782496456,0.0,36.75,22.875,-31.6875
1774889253.5622065,-64.7644703840684,-1.0712657417631959,-7.2281543178418355,0.03953217213502075,-1.4688673092765068,9.705030221597903,0.0,0.0,-0.001090830782496456,36.75,22.875,-31.6875
1774889253.5815701,0.0,0.0,0.0,0.03299844236719721,-1.4659010952691802,9.710037779696787,-0.001090830782496456,0.001090830782496456,0.001090830782496456,38.25,24.0625,-32.0625
1774889253.6154382,0.0,0.0,0.0,0.02196009477861568,-1.4304759959088922,9.696644695136907,0.007635815477475192,0.0,0.01090830782496456,38.25,24.0625,-32.0625
1774889253.6389182,-64.74908603687948,-1.0563302395129015,-7.245420961628162,0.01461419776483662,-1.3634145358137573,9.687731746972865,-0.002181661564992912,-0.002181661564992912,-0.008726646259971648,38.25,24.0625,-32.0625
1774889253.8718934,-64.74908603687948,-1.0563302395129015,-7.245420961628162,0.01461419776483662,-1.3634145358137573,9.687731746972865,-0.002181661564992912,-0.002181661564992912,-0.008726646259971648,38.25,24.0625,-32.0625
1774889253.92182,0.0,0.0,0.0,0.059902260971003804,-1.3622723354411912,9.738667178558279,0.0,0.00545415391248228,-0.002181661564992912,37.5,23.6875,-33.25
1774889253.9624228,-64.74272599402478,-1.045158867258663,-7.293775977056311,0.09004096113389398,-1.4049986660476146,9.819395703194791,-0.004363323129985824,-0.007635815477475192,-0.003272492347489368,37.5,23.6875,-33.25
1774889254.1833768,0.0,0.0,0.0,0.06661147722580492,-1.4401227851964422,9.87311963454368,0.0,0.001090830782496456,0.001090830782496456,37.5,22.875,-31.6875
1774889254.2489436,-64.75609851710873,-1.0130103843941467,-7.372787358571263,0.051019417409455835,-1.4568072707132287,9.815209182915789,0.001090830782496456,0.001090830782496456,-0.002181661564992912,37.5,22.875,-31.6875
1774889254.2780976,-64.75609851710873,-1.0130103843941467,-7.372787358571263,0.040643075776396094,-1.461220386032096,9.763289977430281,0.0,0.002181661564992912,0.00545415391248228,38.25,24.75,-31.6875
1774889254.5235605,0.0,0.0,0.0,0.03373773633092572,-1.4440865947351578,9.728738326155202,0.0,0.0,0.0,38.25,24.75,-31.6875
1774889254.5390215,0.0,0.0,0.0,0.03373773633092572,-1.4440865947351578,9.728738326155202,0.0,0.0,0.0,38.25,24.75,-31.6875
1774889254.573857,0.0,0.0,0.0,0.029142310067661076,-1.4393744714386738,9.705744588198872,0.001090830782496456,0.006544984694978736,-0.001090830782496456,38.25,24.75,-31.6875
1774889254.8220098,-64.74596851952396,-0.9499704388514174,-7.470450319672288,0.019393881809094616,-1.43623860602273,9.851007874397148,-0.00545415391248228,-0.006544984694978736,0.011999138607461015,37.5,23.25,-32.5
1774889254.8564937,0.0,0.0,0.0,0.029631970236694453,-1.4441870577402893,10.004545867689298,0.008726646259971648,0.002181661564992912,-0.003272492347489368,37.5,23.25,-32.5
1774889254.9232638,-64.75586277394198,-0.9482340519167072,-7.4803549969033485,0.0063392983524463015,-1.469547333812218,10.04985678806903,0.00545415391248228,0.0,0.01090830782496456,37.5,22.875,-32.0625
1774889255.1768253,-64.7637178398911,-0.9388472454309841,-7.502906293683474,0.02094429077554736,-1.4864243142452407,9.922790449181585,-0.003272492347489368,0.009817477042468103,-0.013089969389957472,37.5,22.875,-32.0625
1774889255.2191615,0.0,0.0,0.0,0.030663750084665795,-1.5143813147317897,9.838229220076,0.0,0.001090830782496456,-0.003272492347489368,37.875,22.875,-31.6875
1774889255.2533076,-64.7649557826729,-0.9345453589275358,-7.522329561261171,0.03713194168140958,-1.4861548223529586,9.781954666717056,-0.001090830782496456,0.004363323129985824,0.0,37.875,22.875,-31.6875
1774889255.4969325,-64.7649557826729,-0.9345453589275358,-7.522329561261171,0.03713194168140958,-1.4861548223529586,9.781954666717056,-0.001090830782496456,0.004363323129985824,0.0,37.875,22.875,-31.6875
1774889255.512612,0.0,0.0,0.0,0.04143645093460813,-1.5142019708878978,9.831477484474933,0.001090830782496456,0.001090830782496456,0.001090830782496456,37.0625,23.25,-31.25
1774889255.5336092,0.0,0.0,0.0,0.040955942050773374,-1.4860354710282504,9.794187020632972,0.001090830782496456,0.004363323129985824,0.001090830782496456,37.0625,23.25,-31.25
1774889255.5655713,0.0,0.0,0.0,0.033945945341578514,-1.4739812034267135,9.77606085692256,0.0,0.001090830782496456,-0.002181661564992912,37.0625,23.25,-31.25
1774889255.8357768,0.0,0.0,0.0,0.029280870838403465,-1.4659592229928828,9.75730787404116,-0.003272492347489368,0.0,0.001090830782496456,37.0625,23.25,-31.25
1774889255.8548527,-64.76095880149143,-0.8998017111307597,-7.5857377790154255,0.026176315868837216,-1.4606206846255616,9.751518196832771,0.001090830782496456,-0.003272492347489368,0.001090830782496456,37.875,22.875,-32.0625
1774889255.8908527,-64.76204772535085,-0.8880173468197048,-7.593260599606851,0.02411026921674223,-1.4604130586848096,9.727594561081604,-0.002181661564992912,0.0,0.001090830782496456,37.875,22.875,-32.0625
1774889256.2050633,-64.76204772535085,-0.8880173468197048,-7.593260599606851,0.02411026921674223,-1.4604130586848096,9.727594561081604,-0.002181661564992912,0.0,0.001090830782496456,37.875,22.875,-32.0625
1774889256.5929708,-64.76440880491812,-0.8719303539950923,-7.620210710922695,0.02273533824902634,-1.4736553327698505,9.73174431897764,0.001090830782496456,-0.001090830782496456,-0.002181661564992912,37.5,22.875,-32.875
1774889256.6497955,-64.76036483656013,-0.8297014677552444,-7.671721558627898,0.015640167790415837,-1.4782972603179727,9.72520126975215,-0.001090830782496456,0.001090830782496456,-0.002181661564992912,37.5,24.375,-30.875
1774889256.663287,-64.76036483656013,-0.8297014677552444,-7.671721558627898,0.015640167790415837,-1.4782972603179727,9.72520126975215,-0.001090830782496456,0.001090830782496456,-0.002181661564992912,37.5,24.375,-30.875
1774889256.6858456,-64.76156773496051,-0.8216576578918091,-7.685198653509219,0.023788803781677414,-1.4721766223478205,9.720116275210746,-0.001090830782496456,-0.002181661564992912,-0.001090830782496456,37.5,24.375,-30.875
1774889256.9196389,-64.76156773496051,-0.8216576578918091,-7.685198653509219,0.023788803781677414,-1.4721766223478205,9.720116275210746,-0.001090830782496456,-0.002181661564992912,-0.001090830782496456,37.5,24.375,-30.875
1774889256.9440422,0.0,0.0,0.0,0.029211630007633674,-1.4714485178580097,9.716732268146552,0.002181661564992912,-0.001090830782496456,-0.002181661564992912,38.25,22.1875,-31.6875
1774889256.9603443,0.0,0.0,0.0,0.029211630007633674,-1.4714485178580097,9.716732268146552,0.002181661564992912,-0.001090830782496456,-0.002181661564992912,38.25,22.1875,-31.6875
1774889256.9995039,0.0,0.0,0.0,0.026130236869430678,-1.4676188607461813,9.707790025832528,0.0,0.0,0.001090830782496456,38.25,22.1875,-31.6875
1774889257.2640145,-64.75742420797845,-0.7790753837329965,-7.761675479875135,0.02407960415737333,-1.4650702667183326,9.708529286878576,-0.001090830782496456,0.0,0.0,37.5,24.75,-31.6875
1774889257.2922988,0.0,0.0,0.0,0.029405154409206262,-1.46337420586246,9.709021256846635,0.001090830782496456,0.001090830782496456,0.003272492347489368,37.5,24.75,-31.6875
1774889257.3127654,0.0,0.0,0.0,0.03963947202614555,-1.4622454963091178,9.709348657364712,0.0,0.0,0.003272492347489368,37.5,24.75,-31.6875
1774889257.3276188,0.0,0.0,0.0,0.03963947202614555,-1.4622454963091178,9.709348657364712,0.0,0.0,0.003272492347489368,37.5,24.75,-31.6875
1774889257.3500886,-64.75922178021933,-0.7651405325412058,-7.778918273075266,0.04429259998365031,-1.4498519826730234,9.704140290200469,0.0,0.0,-0.002181661564992912,37.875,22.5625,-31.6875
1774889257.6351497,-64.7604552465807,-0.7570972751187225,-7.792398266862938,0.04429259998365031,-1.4498519826730234,9.704140290200469,0.0,0.0,-0.002181661564992912,37.875,22.5625,-31.6875
1774889257.668835,0.0,0.0,0.0,0.03616645392299678,-1.4565917195369977,9.70610042858566,-0.002181661564992912,0.001090830782496456,0.0,38.25,22.5625,-30.875
1774889257.7615974,-64.75423150670359,-0.7346923559696553,-7.822908376580776,0.03830221681719041,-1.4607166909622666,9.718308310942662,-0.001090830782496456,0.003272492347489368,0.0,37.0625,24.375,-32.0625
1774889258.033823,0.0,0.0,0.0,0.03887014425732104,-1.4604769498294259,9.715529088122427,0.0,0.001090830782496456,0.0,37.0625,24.375,-32.0625
1774889258.05305,0.0,0.0,0.0,0.03255787020992402,-1.4636625164909236,9.723714881503472,0.0,-0.002181661564992912,-0.001090830782496456,37.0625,24.375,-32.0625
1774889258.0779893,-64.75730848689963,-0.7127136151621808,-7.853635140991518,0.028357122344102603,-1.4657824755190392,9.719127100435296,0.0,0.0,-0.001090830782496456,37.5,22.875,-31.6875
