timestamp,yaw,pitch,roll,ax,ay,az,gx,gy,gz,mx,my,mz
1772319069.3014095,-0.0805271103365267,1.0881504060307374,-8.464936023524801,-0.19168768261997857,-1.4693461651771267,9.727165844959506,0.0,0.002181661564992912,0.001090830782496456,7.5,-3.6875,-67.5
1772319069.642628,153.45539456601406,1.0843572618241044,-8.46254249408021,-0.19022028992118128,-1.4643434100344406,9.724058817088348,0.0,0.0,0.0,7.0625,-3.25,-66.6875
1772319069.97023,153.75896054167617,1.0831024169883678,-8.468652918051605,-0.18778659997097508,-1.4612369825254476,9.747753602101682,0.0,0.004363323129985824,-0.001090830782496456,7.0625,-3.0,-67.0625
1772319070.0102925,153.81690392278415,1.0873694893025756,-8.468182466913818,-0.1890197396168911,-1.4661190752895314,9.747886148439482,0.0,0.0,0.0,6.75,-3.25,-65.5
1772319070.058486,153.81690392278415,1.0873694893025756,-8.468182466913818,-0.1890197396168911,-1.4661190752895314,9.747886148439482,0.0,0.0,0.0,6.75,-3.25,-65.5
1772319070.0990787,153.82910086698703,1.0883455285033983,-8.46782350432049,-0.18956586680848825,-1.4627099878056073,9.743492581001703,0.001090830782496456,0.0,0.0,7.5,-2.1875,-66.25
1772319070.1452737,153.82910086698703,1.0883455285033983,-8.46782350432049,-0.18956586680848825,-1.4627099878056073,9.743492581001703,0.001090830782496456,0.0,0.0,7.5,-2.1875,-66.25
1772319070.1628757,153.82910086698703,1.0883455285033983,-8.46782350432049,-0.18971108921063443,-1.4618034666120843,9.742324273641948,0.001090830782496456,-0.001090830782496456,0.002181661564992912,7.75,-3.25,-66.25
1772319070.1792195,153.80622191846547,1.0867000102782003,-8.46787924914361,-0.1898077330970222,-1.4612001868843,9.741546778144878,-0.001090830782496456,0.001090830782496456,0.001090830782496456,7.75,-3.25,-66.25
1772319070.2073162,153.80622191846547,1.0867000102782003,-8.46787924914361,-0.1898720485238303,-1.4607987109645357,9.741029363576772,0.001090830782496456,0.002181661564992912,0.0,7.75,-3.25,-66.25
1772319070.2295685,-0.010131202386050054,1.0867236757870318,-8.46806299802339,-0.1898720485238303,-1.4607987109645357,9.741029363576772,0.001090830782496456,0.002181661564992912,0.0,7.75,-3.25,-66.25
1772319070.259173,-0.06816853571741932,1.0892663279882417,-8.470265127322827,-0.4740191452532401,1.3944625701760578,9.744030141668917,0.001460218487426811,-0.0004975797032241341,-0.002181661564992912,-8.671092410533484,-0.9204958761388391,-66.6875
1772319070.3029265,0.17030489214344377,1.0848203021988834,-8.469895062830917,-0.47691699501167145,1.3928395784382999,9.742682014261032,0.00046505908097854275,-0.003418016678077756,-0.001090830782496456,-8.671092410533484,-0.9204958761388391,-66.6875
1772319070.4706745,-0.1037207109102666,1.0866232459816232,-8.470518811045443,-0.47914660591304215,1.3890430048096358,9.741187798090063,0.0019577981906509453,0.0009626387842026769,-0.002181661564992912,-8.312584003585767,-1.6496241036460515,-66.25
1772319070.5274532,-0.1037207109102666,1.0866232459816232,-8.470518811045443,-0.47914660591304215,1.3890430048096358,9.741187798090063,0.0019577981906509453,0.0009626387842026769,-0.002181661564992912,-8.312584003585767,-1.6496241036460515,-66.25
1772319070.596735,-0.05247657562164742,1.083563581269575,-8.468264314179525,-0.47732739773254707,1.3907089190511543,9.747480689775001,0.0009626387842026769,-0.0019577981906509453,-0.001090830782496456,-8.05413775648892,-0.6171426087215393,-66.6875
1772319070.6410167,-0.05247657562164742,1.083563581269575,-8.468264314179525,-0.4791186000810486,1.3903415655457072,9.751668538895121,0.0,0.0,-0.001090830782496456,-8.05413775648892,-0.6171426087215393,-66.6875
1772319070.6744614,-0.05247657562164742,1.083563581269575,-8.468264314179525,-0.47878476098789735,1.39457496178587,9.751110393995901,0.001460218487426811,-0.0004975797032241341,0.002181661564992912,-7.303021842421933,-1.1532278478722877,-66.75
1772319070.709197,-0.05247657562164742,1.083563581269575,-8.468264314179525,-0.4756105931532396,1.3913885095520957,9.750738954800358,0.0,0.0,-0.001090830782496456,-7.303021842421933,-1.1532278478722877,-66.75
1772319070.734713,-0.09692846289803654,1.0871412751432623,-8.470571831282346,-0.4764502215644455,1.3952716913269907,9.740456431043015,0.0009626387842026769,-0.0019577981906509453,-0.001090830782496456,-8.781402689594321,-0.696148729213543,-66.0
1772319070.7484083,-0.09692846289803654,1.0871412751432623,-8.470571831282346,-0.4764502215644455,1.3952716913269907,9.740456431043015,0.0009626387842026769,-0.0019577981906509453,-0.001090830782496456,-8.781402689594321,-0.696148729213543,-66.0
1772319070.7890568,0.08345877363390444,1.0868200952101494,-8.465607012043879,-0.4770089848928391,1.3978559054202007,9.736958638053139,0.0014439581763040154,-0.0029366972859764177,0.0,-8.781402689594321,-0.696148729213543,-66.0
1772319070.8148935,0.08345877363390444,1.0868200952101494,-8.465607012043879,-0.4773808356460897,1.399575671031669,9.731285784183964,-0.00048131939210133845,0.0009788990953254726,-0.001090830782496456,-7.044575595325088,-0.12074635294777503,-68.0
1772319070.8426144,0.0766640675652094,1.0863022865288516,-8.465554857360718,-0.4806301632392669,1.3992441550113641,9.727510563303959,0.0,0.0,0.0,-7.044575595325088,-0.12074635294777503,-68.0
1772319070.8567076,0.0766640675652094,1.0863022865288516,-8.465554857360718,-0.4827925544551588,1.399023534803128,9.724998195980294,0.00048131939210133845,-0.0009788990953254726,0.001090830782496456,-7.044575595325088,-0.12074635294777503,-68.0
1772319070.89342,0.0766640675652094,1.0863022865288516,-8.465554857360718,-0.4827925544551588,1.399023534803128,9.724998195980294,0.00048131939210133845,-0.0009788990953254726,0.001090830782496456,-7.044575595325088,-0.12074635294777503,-68.0
1772319070.921006,0.0546995085884099,1.0846966173668242,-8.465915893565764,-0.4842316016538422,1.3988767145190357,9.723326243591378,0.00046505908097854275,-0.003418016678077756,0.0,-7.695629349541202,-1.3462708362287517,-66.6875
1772319070.9413497,0.005040782435852247,1.0878120028740395,-8.467650029006593,-0.480366462112426,1.3951904122520964,9.732615603763149,0.0009626387842026769,-0.0019577981906509453,-0.002181661564992912,-7.695629349541202,-1.3462708362287517,-66.6875
1772319070.984286,0.005040782435852247,1.0878120028740395,-8.467650029006593,-0.480366462112426,1.3951904122520964,9.732615603763149,0.0009626387842026769,-0.0019577981906509453,-0.002181661564992912,-7.695629349541202,-1.3462708362287517,-66.6875
1772319071.0176632,0.033799137621948486,1.0899359545123855,-8.467341290557526,-0.47813919840655045,1.3947999500330712,9.738430878500806,0.0009788990953254726,0.00048131939210133845,0.0,-7.661530249369652,-0.4240996203650753,-67.0625
1772319071.0654025,0.033799137621948486,1.0899359545123855,-8.467341290557526,-0.47567057902616766,1.3943671756836977,9.744876320898022,-0.0009626387842026769,0.0019577981906509453,0.001090830782496456,-7.661530249369652,-0.4240996203650753,-67.0625
1772319071.1160548,0.0630752162792187,1.0852667303178314,-8.46545036807085,-0.4794920065635271,1.3957779595399948,9.73990002537824,0.0,0.0,-0.001090830782496456,-7.661530249369652,-0.4240996203650753,-67.5
1772319071.1646495,0.06986954843390158,1.0857844982281286,-8.465502642701004,-0.48203512390149705,1.3967168204368718,9.73658835629869,0.00046505908097854275,-0.003418016678077756,0.0,-7.661530249369652,-0.4240996203650753,-67.5
1772319071.2421854,-0.045683747949785476,1.0840814477106582,-8.46831725177331,-0.47993729837594135,1.3877582747696626,9.74183417870026,-0.0004975797032241343,-0.001460218487426811,0.0,-8.671092410533484,-0.9204958761388391,-66.25
1772319071.2931476,-0.24649390097709345,1.0844376936902271,-8.466326570472491,-0.47637759391029666,1.386852080490193,9.744565737143224,-0.00048131939210133845,0.0009788990953254726,-0.001090830782496456,-9.400220638040697,-1.2790042830865578,-66.75
1772319071.3195362,-0.23970387350120703,1.0849553586214065,-8.46638030525203,-0.4755345145999523,1.3817711524256289,9.74303844706619,0.002920436974853622,-0.0009951594064482683,-0.001090830782496456,-9.400220638040697,-1.2790042830865578,-66.75
1772319071.3722448,-0.34007866520192775,1.0843336328338997,-8.468780209558187,-0.4734475904896933,1.3828677174507773,9.738676940873553,-0.0004975797032241343,-0.001460218487426811,0.0,-8.47804942217702,-1.3131033832581074,-66.0
1772319071.4593916,-0.34007866520192775,1.0843336328338997,-8.468780209558187,-0.4720587658067858,1.3835974692255797,9.73577440722357,0.0009626387842026769,-0.0019577981906509453,-0.001090830782496456,-8.47804942217702,-1.3131033832581074,-66.0
1772319071.5240889,-0.4201421698110981,1.086870775660689,-8.464555280391247,-0.47261051931819537,1.3870849759505832,9.73049769179561,-0.0014439581763040154,0.0029366972859764177,0.001090830782496456,-7.661530249369652,-0.4240996203650753,-66.25
1772319071.5647018,-0.47139402943858194,1.0899249277885419,-8.466821003586949,-0.4729777051165478,1.3894058727180703,9.730331208330398,0.0009626387842026769,-0.0019577981906509453,0.0,-7.661530249369652,-0.4240996203650753,-66.25
1772319071.6300013,-0.4640891745191574,1.0836565698254361,-8.465262995812193,-0.4762239282343513,1.389474402767021,9.73356552715136,0.0004975797032241343,0.001460218487426811,0.0,-8.05413775648892,-0.6171426087215393,-67.0625
1772319071.6520126,-0.4640891745191574,1.0836565698254361,-8.465262995812193,-0.47838425345656127,1.389520008749067,9.735717930197001,0.0019577981906509453,0.0009626387842026769,0.0,-8.05413775648892,-0.6171426087215393,-67.0625
1772319071.6770775,-0.42692973886605473,1.086353272845276,-8.464500869048821,-0.4783459249358318,1.3865484939499322,9.73380521867264,0.0004975797032241343,0.001460218487426811,0.0,-8.05413775648892,-0.6171426087215393,-67.0625
1772319071.7165546,-0.42692973886605473,1.086353272845276,-8.464500869048821,-0.4753185526627099,1.3860469848687997,9.732532330519565,-0.00048131939210133845,0.0009788990953254726,0.0,-7.661530249369652,-0.4240996203650753,-66.25
1772319071.7444422,-0.42692973886605473,1.086353272845276,-8.464500869048821,-0.47330387023291143,1.3857132361775295,9.731685237672785,0.0004975797032241343,0.001460218487426811,0.001090830782496456,-7.661530249369652,-0.4240996203650753,-66.25
1772319071.8100126,-0.39816977830055744,1.0884775912131803,-8.46420051624878,-0.4719631215813579,1.3854911301517063,9.7311215068459,0.0004975797032241343,0.001460218487426811,-0.001090830782496456,-7.661530249369652,-0.4240996203650753,-65.5625
1772319071.8518298,-0.39816977830055744,1.0884775912131803,-8.46420051624878,-0.4725468691545891,1.388345186143342,9.730746350277894,0.00048131939210133845,-0.0009788990953254726,-0.001090830782496456,-7.661530249369652,-0.4240996203650753,-65.5625
1772319071.884423,-0.39816977830055744,1.0884775912131803,-8.46420051624878,-0.4725468691545891,1.388345186143342,9.730746350277894,0.00048131939210133845,-0.0009788990953254726,-0.001090830782496456,-7.661530249369652,-0.4240996203650753,-65.5625
1772319071.9336417,-0.38459368337745664,1.0895126651002076,-8.464308758824998,-0.47293534664368686,1.3902445285238811,9.730496687772659,-0.001460218487426811,0.0004975797032241341,0.0,-7.4684872610131885,-0.8167071274843435,-66.0
1772319071.9505265,-0.38453952690589566,1.0879052720617466,-8.471096966385977,-0.4731938740731034,1.3915085196610852,9.733675651871659,0.0,0.0,0.0,-7.4684872610131885,-0.8167071274843435,-66.0
1772319071.9652257,-0.38459368337745664,1.0895126651002076,-8.464308758824998,-0.47336592118943954,1.3923496916431883,9.735791216968186,-0.001460218487426811,0.0004975797032241341,-0.001090830782496456,-7.4684872610131885,-0.8167071274843435,-66.0
1772319072.0094318,-0.38459368337745664,1.0895126651002076,-8.464308758824998,-0.47200441579977276,1.3899076171300373,9.733853990200195,0.002920436974853622,-0.0009951594064482683,-0.001090830782496456,-7.861094768132457,-1.0097501158408075,-66.25
1772319072.099981,-0.3129228165450676,1.0864048076768287,-8.468996642048827,-0.4695724849249235,1.3927603097157253,9.73256478742634,-0.00048131939210133845,0.0009788990953254726,0.0,-7.861094768132457,-1.0097501158408075,-66.25
1772319072.149333,-0.2689813492400898,1.0896193909524108,-8.468283507362344,-0.46647806127046293,1.3916568796941025,9.738397060796315,0.0009788990953254726,0.00048131939210133845,0.0,-7.661530249369652,-0.4240996203650753,-67.0625
1772319072.1768801,-0.29095170766972955,1.0880121959111546,-8.468640376757758,-0.4673707585427892,1.3969262894823016,9.745623485280591,0.001460218487426811,-0.0004975797032241341,-0.001090830782496456,-7.661530249369652,-0.4240996203650753,-67.0625
1772319072.2233672,-0.2977411450707606,1.0874943684784895,-8.468586558880524,-0.4679648386054403,1.4004330228331838,9.750432590050425,-0.00048131939210133845,0.0009788990953254726,0.0,-7.695629349541202,-1.3462708362287517,-67.0625
1772319072.273768,21.961169424878367,11.33708097644892,126.17271256838863,-0.4773657874630276,1.398338712234329,9.74694277213889,-0.00048131939210133845,0.0009788990953254726,0.001090830782496456,-7.695629349541202,-1.3462708362287517,-67.0625
1772319072.337673,-0.0749611575543044,1.088748276557869,-8.470212367563445,-0.4836220139122724,1.3969449719257732,9.744620337302585,1.6260311122795767e-05,0.0024391175827522837,0.002181661564992912,-7.771840528430489,-0.1997524734397792,-66.25
1772319072.3634536,-0.0749611575543044,1.088748276557869,-8.470212367563445,-0.481781732586148,1.3989694549669214,9.74307478286232,0.0004975797032241343,0.001460218487426811,0.0,-7.771840528430489,-0.1997524734397792,-66.25
1772319072.4145436,-0.0749611575543044,1.088748276557869,-8.470212367563445,-0.481781732586148,1.3989694549669214,9.74307478286232,0.0004975797032241343,0.001460218487426811,0.0,-7.771840528430489,-0.1997524734397792,-66.25
1772319072.4533384,-0.08175359144930464,1.0882302456657251,-8.470159547842508,-0.48055704592090165,1.400316725815848,9.742046233647299,-0.001460218487426811,0.0004975797032241341,-0.001090830782496456,-8.278484903414217,-0.7274528877823756,-67.5625
1772319072.4801142,-0.08854583736331227,1.087712235321645,-8.470106668166187,-0.4827438956965607,1.399737318692111,9.74136174563435,0.0004975797032241343,0.001460218487426811,-0.002181661564992912,-8.278484903414217,-0.7274528877823756,-67.5625
1772319072.5079336,-0.08854583736331227,1.087712235321645,-8.470106668166187,-0.4827438956965607,1.399737318692111,9.74136174563435,0.0004975797032241343,0.001460218487426811,-0.002181661564992912,-8.278484903414217,-0.7274528877823756,-67.5625
1772319072.552336,0.12738592159929524,1.090030844585414,-8.464882731033692,-0.4841992197935492,1.3993517297236657,9.740906226507965,-0.0004975797032241343,-0.001460218487426811,0.0,-8.388795182475054,-0.5031057408570795,-67.0625
1772319072.6041653,0.12738592159929524,1.090030844585414,-8.464882731033692,-0.4806898558286292,1.3975692603254384,9.7339128602032,-0.0009788990953254726,-0.00048131939210133845,0.0,-8.388795182475054,-0.5031057408570795,-67.0625
1772319072.650634,0.2994490300874058,1.0875556027497544,-8.467178865404113,-0.47687841248844287,1.3933811817816721,9.729258853048398,0.0004975797032241343,0.001460218487426811,0.0,-7.044575595325088,-0.12074635294777503,-67.875
1772319072.6762178,0.2994490300874058,1.0875556027497544,-8.467178865404113,-0.46913037317877826,1.3941993933648726,9.727445629786905,-0.002920436974853622,0.0009951594064482683,0.0,-7.044575595325088,-0.12074635294777503,-67.875
1772319072.7038403,0.2994490300874058,1.0875556027497544,-8.467178865404113,-0.47066170673654545,1.39414043803403,9.72830009515737,0.0,0.0,0.001090830782496456,-7.4684872610131885,-0.8167071274843435,-66.0
1772319072.7304015,0.2994490300874058,1.0875556027497544,-8.467178865404113,-0.47468265718385677,1.3926252030962323,9.728868732316412,-0.00048131939210133845,0.0009788990953254726,0.001090830782496456,-7.4684872610131885,-0.8167071274843435,-66.0
1772319072.756564,0.2994490300874058,1.0875556027497544,-8.467178865404113,-0.47468265718385677,1.3926252030962323,9.728868732316412,-0.00048131939210133845,0.0009788990953254726,0.001090830782496456,-7.4684872610131885,-0.8167071274843435,-66.0
1772319072.7726111,0.2994490300874058,1.0875556027497544,-8.467178865404113,-0.47435668971884887,1.3930928319951075,9.7359373774083,-0.001460218487426811,0.0004975797032241341,0.001090830782496456,-8.278484903414217,-0.7274528877823756,-66.6875
1772319072.7851937,0.2994490300874058,1.0875556027497544,-8.467178865404113,-0.47714162708291535,1.3919280329798556,9.740641481755011,-0.0009463784730798811,0.004396915773403229,0.001090830782496456,-8.278484903414217,-0.7274528877823756,-66.6875
1772319072.808538,0.2994490300874058,1.0875556027497544,-8.467178865404113,-0.4759931067181788,1.3926288730705594,9.743772010649458,0.0004975797032241343,0.001460218487426811,0.0,-8.278484903414217,-0.7274528877823756,-66.6875
1772319072.8418188,0.2994490300874058,1.0875556027497544,-8.467178865404113,-0.4759931067181788,1.3926288730705594,9.743772010649458,0.0004975797032241343,0.001460218487426811,0.0,-8.278484903414217,-0.7274528877823756,-66.6875
1772319072.8597577,0.2994490300874058,1.0875556027497544,-8.467178865404113,-0.4782306443159938,1.3916192734983295,9.745855342658414,-0.00048131939210133845,0.0009788990953254726,0.001090830782496456,-7.661530249369652,-0.4240996203650753,-67.5
1772319072.875974,0.2994490300874058,1.0875556027497544,-8.467178865404113,-0.4782306443159938,1.3916192734983295,9.745855342658414,-0.00048131939210133845,0.0009788990953254726,0.001090830782496456,-7.661530249369652,-0.4240996203650753,-67.5
1772319072.8968973,0.2994490300874058,1.0875556027497544,-8.467178865404113,-0.4767178355216729,1.392423397084673,9.740551553423392,0.0019577981906509453,0.0009626387842026769,0.002181661564992912,-7.661530249369652,-0.4240996203650753,-67.5
1772319072.9154582,0.2994490300874058,1.0875556027497544,-8.467178865404113,-0.4787129432389679,1.3914825315250394,9.737021940934692,-0.0009788990953254726,-0.00048131939210133845,0.0,-7.771840528430489,-0.1997524734397792,-67.5
1772319072.9323006,0.2994490300874058,1.0875556027497544,-8.467178865404113,-0.4787129432389679,1.3914825315250394,9.737021940934692,-0.0009788990953254726,-0.00048131939210133845,0.0,-7.771840528430489,-0.1997524734397792,-67.5
1772319072.9475515,0.2994490300874058,1.0875556027497544,-8.467178865404113,-0.4770388000672801,1.3923323968289563,9.734673023251817,-0.0014439581763040154,0.0029366972859764177,-0.001090830782496456,-7.771840528430489,-0.1997524734397792,-67.5
1772319072.9687266,0.2994490300874058,1.0875556027497544,-8.467178865404113,-0.4804025423823569,1.3944238369421333,9.739800068187632,0.0009788990953254726,0.00048131939210133845,-0.001090830782496456,-7.771840528430489,-0.1997524734397792,-67.5
1772319072.98768,0.2994490300874058,1.0875556027497544,-8.467178865404113,-0.4804025423823569,1.3944238369421333,9.739800068187632,0.0009788990953254726,0.00048131939210133845,-0.001090830782496456,-7.771840528430489,-0.1997524734397792,-67.5
1772319073.0281286,0.2994490300874058,1.0875556027497544,-8.467178865404113,-0.4811650744938805,1.3928138019038017,9.736521835904934,0.0009951594064482685,0.002920436974853622,-0.003272492347489368,-7.771840528430489,-0.1997524734397792,-66.75
1772319073.057275,0.2994490300874058,1.0875556027497544,-8.467178865404113,-0.48314853191975393,1.3947442066417959,9.727649985526416,0.0009788990953254726,0.00048131939210133845,0.0,-7.771840528430489,-0.1997524734397792,-66.75
1772319073.0900292,0.2994490300874058,1.0875556027497544,-8.467178865404113,-0.48314853191975393,1.3947442066417959,9.727649985526416,0.0009788990953254726,0.00048131939210133845,0.0,-7.771840528430489,-0.1997524734397792,-66.75
1772319073.141634,0.2994490300874058,1.0875556027497544,-8.467178865404113,-0.4798867971903383,1.3933602262478393,9.721161855787518,0.0014439581763040154,-0.0029366972859764177,-0.001090830782496456,-8.164448035549757,-0.39279546179624314,-68.0
1772319073.2273655,0.2994490300874058,1.0875556027497544,-8.467178865404113,-0.47781998675910936,1.3935819816917552,9.734153648877092,0.0,0.0,-0.001090830782496456,-8.671092410533484,-0.9204958761388391,-67.875
1772319073.288459,0.2994490300874058,1.0875556027497544,-8.467178865404113,-0.47644454750491183,1.3937295574625108,9.736109318635727,-0.002422857271629488,0.0024553778938750793,-0.001090830782496456,-8.671092410533484,-0.9204958761388391,-67.875
1772319073.320045,0.2994490300874058,1.0875556027497544,-8.467178865404113,-0.47552920804590654,1.3938277674894193,9.737410795013835,0.0014439581763040154,-0.0029366972859764177,0.0,-7.771840528430489,-0.1997524734397792,-66.6875
1772319073.342881,0.2994490300874058,1.0875556027497544,-8.467178865404113,-0.4749200598609502,1.3938931251652489,9.738276913005022,0.0,0.0,0.0,-7.771840528430489,-0.1997524734397792,-66.6875
1772319073.3964174,0.2994490300874058,1.0875556027497544,-8.467178865404113,-0.4745146785484929,1.3939366199684204,9.742198416560305,-0.00048131939210133845,0.0009788990953254726,0.002181661564992912,-7.381096315713032,-0.28621177153902977,-67.875
1772319073.4130306,0.2994490300874058,1.0875556027497544,-8.467178865404113,-0.4727689009897622,1.3909637002033282,9.74480813337028,-0.0009626387842026769,0.0019577981906509453,-0.001090830782496456,-7.381096315713032,-0.28621177153902977,-67.875
1772319073.4479926,0.2994490300874058,1.0875556027497544,-8.467178865404113,-0.47455910717343264,1.394988985450817,9.743199759047553,0.0,0.0,0.002181661564992912,-8.671092410533484,-0.9204958761388391,-66.75
1772319073.4708154,0.2994490300874058,1.0875556027497544,-8.467178865404113,-0.47455910717343264,1.394988985450817,9.743199759047553,0.0,0.0,0.002181661564992912,-8.671092410533484,-0.9204958761388391,-66.75
1772319073.5058477,0.2994490300874058,1.0875556027497544,-8.467178865404113,-0.47575046939075194,1.3976677678176386,9.742129403902496,0.0,0.0,0.001090830782496456,-8.671092410533484,-0.9204958761388391,-66.75
1772319073.5310223,0.2994490300874058,1.0875556027497544,-8.467178865404113,-0.47654330763798997,1.3994504675587986,9.74141709451011,0.0,0.0,0.0,-8.164448035549757,-0.39279546179624314,-67.0625
1772319073.5774322,0.2994490300874058,1.0875556027497544,-8.467178865404113,-0.4770709326349434,1.4006368343224798,9.740943060566496,0.0,0.0,-0.002181661564992912,-8.164448035549757,-0.39279546179624314,-67.0625
1772319073.6354241,0.2994490300874058,1.0875556027497544,-8.467178865404113,-0.47447005952906585,1.3954226180096563,9.740627596272326,-0.00048131939210133845,0.0009788990953254726,0.0,-7.4684872610131885,-0.8167071274843435,-67.5625
1772319073.6551702,0.2994490300874058,1.0875556027497544,-8.467178865404113,-0.47447005952906585,1.3954226180096563,9.740627596272326,-0.00048131939210133845,0.0009788990953254726,0.0,-7.4684872610131885,-0.8167071274843435,-67.5625
1772319073.6726077,0.2994490300874058,1.0875556027497544,-8.467178865404113,-0.4727392075307606,1.3919526153000847,9.740417658308523,0.0009788990953254726,0.00048131939210133845,0.002181661564992912,-7.4684872610131885,-0.8167071274843435,-67.5625
1772319073.7034144,0.2994490300874058,1.0875556027497544,-8.467178865404113,-0.4730633456844685,1.3926452323300693,9.743623058646092,0.0,0.0,0.001090830782496456,-8.388795182475054,-0.5031057408570795,-66.375
1772319073.7383537,0.2994490300874058,1.0875556027497544,-8.467178865404113,-0.47327905600490067,1.3931061612264848,9.745756216764077,-0.0009626387842026769,0.0019577981906509453,-0.001090830782496456,-8.388795182475054,-0.5031057408570795,-66.375
1772319073.7629743,0.2994490300874058,1.0875556027497544,-8.467178865404113,-0.47327905600490067,1.3931061612264848,9.745756216764077,-0.0009626387842026769,0.0019577981906509453,-0.001090830782496456,-8.388795182475054,-0.5031057408570795,-66.375
1772319073.784305,0.2994490300874058,1.0875556027497544,-8.467178865404113,-0.4748986096372024,1.3964147693288702,9.747175809662657,0.0009951594064482685,0.002920436974853622,0.0,-8.388795182475054,-0.5031057408570795,-66.375
1772319073.8366683,0.2994490300874058,1.0875556027497544,-8.467178865404113,-0.4766936649212814,1.4000819121382706,9.737606743263457,-0.0005138400143469299,-0.0038993360701790945,-0.001090830782496456,-8.388795182475054,-0.5031057408570795,-66.75
1772319073.8785725,0.2994490300874058,1.0875556027497544,-8.467178865404113,-0.47569499290367667,1.3980551885656862,9.73506220266894,0.0009626387842026769,-0.0019577981906509453,-0.001090830782496456,-7.861094768132457,-1.0097501158408075,-67.0625
1772319073.9117055,0.2994490300874058,1.0875556027497544,-8.467178865404113,-0.475030387831858,1.3967064266681168,9.730023727620353,1.6260311122795767e-05,0.0024391175827522837,0.001090830782496456,-7.861094768132457,-1.0097501158408075,-67.0625
1772319073.9269829,0.2994490300874058,1.0875556027497544,-8.467178865404113,-0.475030387831858,1.3967064266681168,9.730023727620353,1.6260311122795767e-05,0.0024391175827522837,0.001090830782496456,-7.861094768132457,-1.0097501158408075,-67.0625
1772319073.9513018,0.2994490300874058,1.0875556027497544,-8.467178865404113,-0.47458810058068784,1.3958088406919422,9.726670678758971,0.0014439581763040154,-0.0029366972859764177,-0.001090830782496456,-6.686067188377369,-0.8498745804549874,-67.0625
1772319074.0015578,0.2994490300874058,1.0875556027497544,-8.467178865404113,-0.47429376335570644,1.3952115072514903,9.737819709027008,0.0029366972859764177,0.0014439581763040154,0.001090830782496456,-6.686067188377369,-0.8498745804549874,-67.0625
1772319074.063302,0.2994490300874058,1.0875556027497544,-8.467178865404113,-0.4770997502911776,1.393337987695825,9.745239264127559,-0.0009626387842026769,0.0019577981906509453,-0.001090830782496456,-7.044575595325088,-0.12074635294777503,-66.6875
1772319074.0862036,0.2994490300874058,1.0875556027497544,-8.467178865404113,-0.4804431040755021,1.3950930464308484,9.746831783457795,0.0009788990953254726,0.00048131939210133845,0.0,-7.044575595325088,-0.12074635294777503,-66.6875
1772319074.12943,0.2994490300874058,1.0875556027497544,-8.467178865404113,-0.4804431040755021,1.3950930464308484,9.746831783457795,0.0009788990953254726,0.00048131939210133845,0.0,-7.044575595325088,-0.12074635294777503,-66.6875
1772319074.2043498,0.2994490300874058,1.0875556027497544,-8.467178865404113,-0.4826680686712611,1.3962610184137159,9.74789158728246,0.00048131939210133845,-0.0009788990953254726,0.001090830782496456,-7.381096315713032,-0.28621177153902977,-67.0625
1772319074.222418,0.2994490300874058,1.0875556027497544,-8.467178865404113,-0.4841487577552556,1.3970382907212122,9.741906651474352,0.0004975797032241343,0.001460218487426811,0.001090830782496456,-7.381096315713032,-0.28621177153902977,-67.0625
1772319074.2474582,0.2994490300874058,1.0875556027497544,-8.467178865404113,-0.4851341398002731,1.3975555567591504,9.73792374355017,0.0009626387842026769,-0.0019577981906509453,0.001090830782496456,-7.381096315713032,-0.28621177153902977,-67.0625
1772319074.265194,0.2994490300874058,1.0875556027497544,-8.467178865404113,-0.4851341398002731,1.3975555567591504,9.73792374355017,0.0009626387842026769,-0.0019577981906509453,0.001090830782496456,-7.381096315713032,-0.28621177153902977,-67.0625
1772319074.2990272,0.2994490300874058,1.0875556027497544,-8.467178865404113,-0.48431389972009725,1.394897926458424,9.735273162818622,-0.00048131939210133845,0.0009788990953254726,0.001090830782496456,-8.581838170831517,-0.11049823373781129,-67.5
1772319074.3262997,0.2994490300874058,1.0875556027497544,-8.467178865404113,-0.4807661740386883,1.3946053040046624,9.733509230950705,0.0009788990953254726,0.00048131939210133845,0.0,-8.581838170831517,-0.11049823373781129,-67.5
1772319074.3451726,0.2994490300874058,1.0875556027497544,-8.467178865404113,-0.4807661740386883,1.3946053040046624,9.733509230950705,0.0009788990953254726,0.00048131939210133845,0.0,-8.581838170831517,-0.11049823373781129,-67.5
1772319074.365013,0.2994490300874058,1.0875556027497544,-8.467178865404113,-0.47840520222840327,1.3944105670304914,9.732335353997016,0.00048131939210133845,-0.0009788990953254726,-0.001090830782496456,-7.661530249369652,-0.4240996203650753,-66.25
1772319074.3842835,0.2994490300874058,1.0875556027497544,-8.467178865404113,-0.478310002686138,1.397282836820269,9.7315541519974,0.0,0.0,-0.001090830782496456,-7.661530249369652,-0.4240996203650753,-66.25
1772319074.4143906,0.2994490300874058,1.0875556027497544,-8.467178865404113,-0.47824664845420906,1.39919430028001,9.731034270793256,-0.00048131939210133845,0.0009788990953254726,0.002181661564992912,-7.661530249369652,-0.4240996203650753,-66.25
1772319074.4329963,0.2994490300874058,1.0875556027497544,-8.467178865404113,-0.47824664845420906,1.39919430028001,9.731034270793256,-0.00048131939210133845,0.0009788990953254726,0.002181661564992912,-7.661530249369652,-0.4240996203650753,-66.25
1772319074.46958,0.2994490300874058,1.0875556027497544,-8.467178865404113,-0.4801741365624577,1.400330635909545,9.74160054543492,0.0,0.0,0.0,-8.35749102390622,-0.0001879546769749385,-66.25
1772319074.5030017,0.2994490300874058,1.0875556027497544,-8.467178865404113,-0.47801120790146373,1.3982207114570426,9.741065145107676,0.0005138400143469299,0.0038993360701790945,0.001090830782496456,-8.35749102390622,-0.0001879546769749385,-66.25
1772319074.5201793,0.2994490300874058,1.0875556027497544,-8.467178865404113,-0.47657180303906843,1.3968165803033028,9.740708842170708,0.0004975797032241343,0.001460218487426811,0.0,-7.661530249369652,-0.4240996203650753,-67.0625
1772319074.5439181,0.2994490300874058,1.0875556027497544,-8.467178865404113,-0.47657180303906843,1.3968165803033028,9.740708842170708,0.0004975797032241343,0.001460218487426811,0.0,-7.661530249369652,-0.4240996203650753,-67.0625
1772319074.5608644,0.2994490300874058,1.0875556027497544,-8.467178865404113,-0.47561389518235025,1.3958821467056615,9.733781503131683,0.0009626387842026769,-0.0019577981906509453,-0.001090830782496456,-7.661530249369652,-0.4240996203650753,-67.0625
1772319074.5989575,0.2994490300874058,1.0875556027497544,-8.467178865404113,-0.4749764182042362,1.3952602915847385,9.729171436384657,0.0004975797032241343,0.001460218487426811,0.0,-7.661530249369652,-0.4240996203650753,-67.0625
1772319074.661147,0.2994490300874058,1.0875556027497544,-8.467178865404113,-0.48055591453785385,1.3918944523009487,9.729448600169652,0.00048131939210133845,-0.0009788990953254726,0.002181661564992912,-7.861094768132457,-1.0097501158408075,-67.0625
1772319074.6865666,0.2994490300874058,1.0875556027497544,-8.467178865404113,-0.4842690070208185,1.3896545238564748,9.729633049572444,0.001460218487426811,-0.0004975797032241341,0.001090830782496456,-7.861094768132457,-1.0097501158408075,-67.0625
1772319074.7006354,0.2994490300874058,1.0875556027497544,-8.467178865404113,-0.4842690070208185,1.3896545238564748,9.729633049572444,0.001460218487426811,-0.0004975797032241341,0.001090830782496456,-7.861094768132457,-1.0097501158408075,-67.0625
1772319074.7283049,0.2994490300874058,1.0875556027497544,-8.467178865404113,-0.48821602941396697,1.3911657415690517,9.729755798589567,0.0,0.0,0.001090830782496456,-7.381096315713032,-0.28621177153902977,-66.25
1772319074.7624762,0.2994490300874058,1.0875556027497544,-8.467178865404113,-0.48784086365474416,1.39364744089906,9.729837486689265,0.00048131939210133845,-0.0009788990953254726,-0.001090830782496456,-7.381096315713032,-0.28621177153902977,-66.25
1772319074.7913668,0.2994490300874058,1.0875556027497544,-8.467178865404113,-0.48458932996212345,1.3967749849044788,9.729891849207098,0.002422857271629488,-0.0024553778938750793,-0.001090830782496456,-8.388795182475054,-0.5031057408570795,-67.0625
1772319074.8063576,0.2994490300874058,1.0875556027497544,-8.467178865404113,-0.4854273356824297,1.3973803296794332,9.729928026855447,0.0009788990953254726,0.00048131939210133845,0.002181661564992912,-8.388795182475054,-0.5031057408570795,-67.0625
1772319074.830013,0.2994490300874058,1.0875556027497544,-8.467178865404113,-0.4854273356824297,1.3973803296794332,9.729928026855447,0.0009788990953254726,0.00048131939210133845,0.002181661564992912,-8.388795182475054,-0.5031057408570795,-67.0625
1772319074.872721,0.2994490300874058,1.0875556027497544,-8.467178865404113,-0.4854273356824297,1.3973803296794332,9.729928026855447,0.0009788990953254726,0.00048131939210133845,0.002181661564992912,-8.388795182475054,-0.5031057408570795,-67.0625
1772319074.9325502,0.2994490300874058,1.0875556027497544,-8.467178865404113,-0.48598501912815617,1.3977831798650209,9.733297214383612,-0.00048131939210133845,0.0009788990953254726,-0.002181661564992912,-7.4684872610131885,-0.8167071274843435,-66.375
1772319074.9958606,0.2994490300874058,1.0875556027497544,-8.467178865404113,-0.48635615123155496,1.3980512721633982,9.735539371047315,-0.00048131939210133845,0.0009788990953254726,-0.001090830782496456,-7.4684872610131885,-0.8167071274843435,-66.375
1772319075.039713,0.2994490300874058,1.0875556027497544,-8.467178865404113,-0.4866031355005496,1.3982296845931812,9.740376612967797,0.0,0.0,0.001090830782496456,-7.661530249369652,-0.4240996203650753,-67.5
1772319075.0860217,0.2994490300874058,1.0875556027497544,-8.467178865404113,-0.4837656357018364,1.3998244168959006,9.740250631723026,-0.0024391175827522837,1.6260311122795648e-05,0.0,-7.661530249369652,-0.4240996203650753,-67.5
1772319075.1008623,0.2994490300874058,1.0875556027497544,-8.467178865404113,-0.48040131045904616,1.3978838283582993,9.736821680904615,-0.001460218487426811,0.0004975797032241341,0.0,-7.771840528430489,-0.1997524734397792,-66.0
1772319075.1279383,0.2994490300874058,1.0875556027497544,-8.467178865404113,-0.4781623895919446,1.3965923883643199,9.734539752438852,0.00048131939210133845,-0.0009788990953254726,0.002181661564992912,-7.771840528430489,-0.1997524734397792,-66.0
1772319075.1725497,0.2994490300874058,1.0875556027497544,-8.467178865404113,-0.4781623895919446,1.3965923883643199,9.734539752438852,0.00048131939210133845,-0.0009788990953254726,0.002181661564992912,-7.771840528430489,-0.1997524734397792,-66.0
1772319075.212211,0.2994490300874058,1.0875556027497544,-8.467178865404113,-0.47568084983125536,1.395161002494147,9.732010544595001,0.00048131939210133845,-0.0009788990953254726,0.0,-7.661530249369652,-0.4240996203650753,-67.5
1772319075.263128,0.2994490300874058,1.0875556027497544,-8.467178865404113,-0.47649697659884643,1.3977822432384184,9.734683106676037,0.0019415378795281494,-0.0014764787985496067,0.001090830782496456,-8.781402689594321,-0.696148729213543,-66.25
1772319075.300967,0.2994490300874058,1.0875556027497544,-8.467178865404113,-0.47556409902224867,1.3965247846018192,9.736461666886493,-0.001460218487426811,0.0004975797032241341,0.0,-8.781402689594321,-0.696148729213543,-66.25
1772319075.3359275,0.2994490300874058,1.0875556027497544,-8.467178865404113,-0.47556409902224867,1.3965247846018192,9.736461666886493,-0.001460218487426811,0.0004975797032241341,0.0,-8.781402689594321,-0.696148729213543,-66.25
1772319075.3677955,0.2994490300874058,1.0875556027497544,-8.467178865404113,-0.47641928023964447,1.39868982499663,9.74433550225337,-0.001476478798549607,-0.0019415378795281494,0.0,-8.278484903414217,-0.7274528877823756,-68.6875
1772319075.4359906,0.2994490300874058,1.0875556027497544,-8.467178865404113,-0.47786087125858845,1.4020936356851197,9.746372356163855,-0.00048131939210133845,0.0009788990953254726,0.0,-8.671092410533484,-0.9204958761388391,-66.0
1772319075.4669576,0.2994490300874058,1.0875556027497544,-8.467178865404113,-0.47346989061187134,1.400869968937386,9.744240731843163,0.00046505908097854275,-0.003418016678077756,0.0,-8.671092410533484,-0.9204958761388391,-66.0
1772319075.502939,0.2994490300874058,1.0875556027497544,-8.467178865404113,-0.47502560793637916,1.4015814966330602,9.749512383084186,0.0004975797032241343,0.001460218487426811,0.0,-8.05413775648892,-0.6171426087215393,-67.0625
1772319075.545509,0.2994490300874058,1.0875556027497544,-8.467178865404113,-0.47502560793637916,1.4015814966330602,9.749512383084186,0.0004975797032241343,0.001460218487426811,0.0,-8.05413775648892,-0.6171426087215393,-67.0625
1772319075.5793855,0.2994490300874058,1.0875556027497544,-8.467178865404113,-0.47458491961364163,1.3990531452955122,9.753020608096882,-0.0019415378795281494,0.0014764787985496067,-0.001090830782496456,-8.05413775648892,-0.6171426087215393,-67.0625
1772319075.628282,0.2994490300874058,1.0875556027497544,-8.467178865404113,-0.47729351152840493,1.3958945549002126,9.741974845824114,0.0009788990953254726,0.00048131939210133845,0.0,-6.851532606968624,-0.5133538600670432,-67.875
1772319075.6687975,0.2994490300874058,1.0875556027497544,-8.467178865404113,-0.4776200483670294,1.3907906832051735,9.734624014420836,0.00048131939210133845,-0.0009788990953254726,-0.001090830782496456,-6.851532606968624,-0.5133538600670432,-67.875
1772319075.7467353,0.2994490300874058,1.0875556027497544,-8.467178865404113,-0.4793133558091748,1.3903959786768414,9.729732118236122,0.0009788990953254726,0.00048131939210133845,0.0,-7.771840528430489,-0.1997524734397792,-67.0625
1772319075.7726722,0.2994490300874058,1.0875556027497544,-8.467178865404113,-0.480440232996439,1.390133307222375,9.726476615971254,0.001460218487426811,-0.0004975797032241341,0.0,-7.771840528430489,-0.1997524734397792,-67.0625
1772319075.8227024,0.2994490300874058,1.0875556027497544,-8.467178865404113,-0.4781882921057863,1.391434503127356,9.724310115580328,-0.0019252775684053538,0.003915596381301891,0.002181661564992912,-7.022587908765313,-1.0153399990462422,-67.0625
1772319075.8386867,0.30624683443967654,1.0880736286240333,-8.46722996127927,-0.4856453823877457,1.395352162960886,9.729558557186202,0.007831192762603781,0.0038505551368107076,-0.006544984694978736,-7.022587908765313,-1.0153399990462422,-67.0625
1772319075.8574462,0.30624683443967654,1.0880736286240333,-8.46722996127927,-0.4856453823877457,1.395352162960886,9.729558557186202,0.007831192762603781,0.0038505551368107076,-0.006544984694978736,-7.022587908765313,-1.0153399990462422,-67.0625
1772319075.8961127,0.31461110835228034,1.088642661077767,-8.46676287752615,-0.484604262527765,1.400911323464365,9.733051336445977,-0.010270310345356063,-0.0038342948256879115,0.019634954084936207,-7.022587908765313,-1.0153399990462422,-67.0625
1772319075.938032,0.32145992208497237,1.087595147818394,-8.47361169125885,-0.4690018103840315,1.3970314248676912,9.748756188855733,-0.0063221933418085826,0.0029692179082220086,0.01090830782496456,-9.207177649684233,-1.671611790205826,-66.75
1772319075.9675095,0.32145992208497237,1.087595147818394,-8.47361169125885,-0.4586185527731872,1.3944493956929118,9.75920759269973,-0.004861974854381772,0.002471638204997875,0.001090830782496456,-9.207177649684233,-1.671611790205826,-66.75
1772319076.0241392,0.33921023596120475,1.1247004219056986,-8.474790456465994,-0.44447819697330077,1.3552825658710888,9.766162885208077,0.004348134840034842,-0.0063709742751769695,0.015271630954950384,-8.388795182475054,-0.5031057408570795,-68.25
1772319076.0851672,0.5185561401208576,1.137965138861445,-8.472876316734242,-0.4782210159971831,1.3639134484419588,9.730650214188843,0.01028657065647886,0.006273412408440195,0.07853981633974483,-8.388795182475054,-0.5031057408570795,-68.25
1772319076.1047266,0.547313090563327,1.1400887672933742,-8.472545436740928,-0.487392477712324,1.342640418742991,9.727087598571988,-0.0034667976114461435,-0.007782411829235393,-0.006544984694978736,-7.303021842421933,-1.1532278478722877,-66.375
1772319076.1307135,0.4191554027865604,1.1253169740729088,-8.465406950592328,-0.5745463399416291,1.2886314328738402,9.724716717675994,-0.0005301003254697256,-0.006338453652931378,-0.06435901616729091,-7.303021842421933,-1.1532278478722877,-66.375
1772319076.162114,0.4191554027865604,1.1253169740729088,-8.465406950592328,-0.5745463399416291,1.2886314328738402,9.724716717675994,-0.0005301003254697256,-0.006338453652931378,-0.06435901616729091,-7.303021842421933,-1.1532278478722877,-66.375
1772319076.192267,0.4338895479071583,1.1096391162340158,-8.475984042454531,-0.4704455478631611,1.3323931005774237,9.769970486826656,-0.0008488166063431072,0.01903162126991693,0.022907446432425576,-7.695629349541202,-1.3462708362287517,-67.0625
1772319076.2247348,0.4015090975649141,1.1242842229333518,-8.55942197505479,-0.4639076195623496,1.3753983700776633,9.800086364678698,0.02591643555944083,0.009096287516557043,-0.003272492347489368,-7.695629349541202,-1.3462708362287517,-67.0625
1772319076.2446797,0.40640405318645156,1.1457558869825948,-8.592911043042326,-0.4787447120196558,1.4430421424492776,9.78667702789964,0.02386107550205311,-0.006501056764159332,0.006544984694978736,-8.05413775648892,-0.6171426087215393,-66.75
1772319076.2836733,0.5278903103178234,1.155482157336997,-8.620381635539555,-0.5200634194165056,1.483779905131074,9.777753264065282,0.012325670402743783,0.01943163910640429,0.06872233929727672,-8.05413775648892,-0.6171426087215393,-66.75
1772319076.3366334,0.5278903103178234,1.155482157336997,-8.620381635539555,-0.5200634194165056,1.483779905131074,9.777753264065282,0.012325670402743783,0.01943163910640429,0.06872233929727672,-8.05413775648892,-0.6171426087215393,-66.75
1772319076.3648632,1.2063342478854018,1.246011975019911,-8.500297038193223,-0.5475605576289048,1.510890431125183,9.798575492577047,-0.054320769635002326,-0.025493667470248144,0.20180369476184434,-7.381096315713032,-0.28621177153902977,-66.0
1772319076.4028168,2.08141998413047,1.4701417197827638,-8.180374427066118,-0.5231054354822455,1.4343983653133923,9.952927144759506,-0.09531093909127235,-0.10034856785438007,0.433059820651093,-7.381096315713032,-0.28621177153902977,-66.0
1772319076.4428942,2.08141998413047,1.4701417197827638,-8.180374427066118,-0.4866654475769244,1.2666703293460881,10.055646445066003,-0.2939298935756065,-0.18342169895443805,0.8072147790473774,-6.3154473678178755,0.2377620539999432,-65.0625
1772319076.4689753,4.318729047230204,1.8526481889632753,-7.251447332556772,-0.4866654475769244,1.2666703293460881,10.055646445066003,-0.2939298935756065,-0.18342169895443805,0.8072147790473774,-6.3154473678178755,0.2377620539999432,-65.0625
1772319076.4954016,6.6722117944187715,2.336397853754407,-6.373975195730637,-0.4478544881436729,1.0951116204867775,9.976820076848155,-0.273974644085315,-0.26356134228214445,0.9828385350293068,-6.3154473678178755,0.2377620539999432,-65.0625
1772319076.5149217,7.789645509530966,2.61183786591296,-5.995572192735021,-0.4220262281876681,0.9809412161772547,9.894256003981532,-0.19014704873202587,-0.2758284613819796,1.038470904936626,-6.3154473678178755,0.2377620539999432,-65.0625
1772319076.530984,7.789645509530966,2.61183786591296,-5.995572192735021,-0.4220262281876681,0.9809412161772547,9.894256003981532,-0.19014704873202587,-0.2758284613819796,1.038470904936626,-6.3154473678178755,0.2377620539999432,-65.0625
1772319076.549771,10.500312733615033,3.1782005118378547,-5.354944376507969,-0.41314531699293705,1.0052503185174615,9.78578874847281,-0.12945530482184658,-0.24598665907169662,1.074468320759009,-4.9922838200267785,1.6544662312355713,-63.5625
1772319076.5738564,11.726947485379954,3.397144057956725,-5.101559170480646,-0.39222584444545155,1.0288077586928845,9.7671267889075,-0.10044933923474166,-0.139341928556171,1.1213740444063567,-4.9922838200267785,1.6544662312355713,-63.5625
1772319076.6170788,14.972744995064525,3.6019749250199813,-4.728011120871698,-0.3800294870913238,1.0100881822206915,9.791503692065048,-0.06370325281018716,0.030671078177545566,1.1900963837036334,-2.5328500286566737,1.6101190118540576,-63.5625
1772319076.6364362,16.348829795932478,3.54109833790398,-4.660271505691987,-0.3869222728680605,0.9902505090713364,9.811071360515864,-0.051510945324383474,0.17645551219496727,1.2402745996984705,-2.5328500286566737,1.6101190118540576,-63.5625
1772319076.6546156,16.348829795932478,3.54109833790398,-4.660271505691987,-0.3869222728680605,0.9902505090713364,9.811071360515864,-0.051510945324383474,0.17645551219496727,1.2402745996984705,-2.5328500286566737,1.6101190118540576,-63.5625
1772319076.679626,18.542511239979728,3.193637345783568,-4.604224380738616,-0.3873805228739765,0.9231647781885812,9.820748313577385,-0.07984374821387126,0.2439670291501793,1.301361123518272,-2.5328500286566737,1.6101190118540576,-63.5625
1772319076.7092278,21.61007760162034,2.6493874136107203,-4.531990350235823,-0.3876854831339256,0.8785199736828242,9.807117547497262,-0.11257346687676227,0.3105321676323114,1.365720139685563,3.6484360791387793,2.2117954644221633,-62.375
1772319076.7261975,23.211378824413643,2.3972112442943727,-4.4929367062231576,-0.37735697132105256,0.8577152233649057,9.798046424936574,-0.13897122182830446,0.30241477921107984,1.4278974942878608,3.6484360791387793,2.2117954644221633,-62.375
1772319076.7460375,23.211378824413643,2.3972112442943727,-4.4929367062231576,-0.37735697132105256,0.8577152233649057,9.798046424936574,-0.13897122182830446,0.30241477921107984,1.4278974942878608,3.6484360791387793,2.2117954644221633,-62.375
1772319076.7599764,25.621088906002004,2.050297538565816,-4.411220231035671,-0.3312597624737139,0.892976829001329,9.781974359081557,-0.12355274096993882,0.273529125743417,1.4268066635053644,3.6484360791387793,2.2117954644221633,-62.375
1772319076.7731676,25.621088906002004,2.050297538565816,-4.411220231035671,-0.3312597624737139,0.892976829001329,9.781974359081557,-0.12355274096993882,0.273529125743417,1.4268066635053644,3.6484360791387793,2.2117954644221633,-62.375
1772319076.7912068,28.033643670542695,1.7918189820580122,-4.316564991666052,-0.3005825849253732,0.9164430336544244,9.771278578791783,-0.13852891300003123,0.2224052183723558,1.435533309765336,11.193134519041253,1.8819842291175348,-60.0
1772319076.835636,30.422793515717125,1.611940002138535,-4.190035423706588,-0.2982283198012252,0.9157237948090354,9.754125321366674,-0.1252633540657901,0.1632875151274629,1.4224433403753787,11.193134519041253,1.8819842291175348,-60.0
1772319076.8659976,34.5313205360973,1.4452493523541645,-4.033144287249723,-0.2966615826599693,0.9152451493918535,9.669117562603677,-0.08600005801649414,0.12546168731288843,1.475894048717705,14.033996051119757,0.3536662793581981,-60.0
1772319076.9145403,36.965372872397566,1.3857381844072723,-3.8817979307410613,-0.2926669349466715,0.9089228860720705,9.612545848745789,-0.1291691800775517,0.08964892856391585,1.4540774330677757,14.033996051119757,0.3536662793581981,-60.0
1772319076.935958,39.36925990900654,1.3023434914641405,-3.7088229304721914,-0.29000854151661065,0.9047154904570637,9.584933340242774,-0.12913665945530614,0.09452716372942041,1.4398966328953218,17.702556522416497,1.3913658112261804,-59.1875
1772319076.952379,41.707947406309394,1.20722572597325,-3.5704820617695288,-0.27800713146591444,0.8659429982494982,9.566557524285948,-0.11987776882752113,0.09300190399750244,1.3864459245529954,17.702556522416497,1.3913658112261804,-59.1875
1772319076.9994395,45.50001735923778,1.088355289046539,-3.391267649626959,-0.2717456450821143,0.8057435480473927,9.554328624037995,-0.0930637357283688,0.09038392299239939,1.3569934934255912,23.30061523007697,-1.6367608713263775,-57.5625
1772319077.064985,48.52631388929486,0.9949035990323253,-3.411613760501119,-0.2675786958390812,0.7656814864098124,9.546190427528748,-0.00537909529668644,0.14443803770785446,1.3559026626430948,23.30061523007697,-1.6367608713263775,-57.5625
1772319077.096485,52.3912273904879,0.7566204283796103,-3.465374839324809,-0.25447363189984173,0.718007576417416,9.594296335978566,-0.04713028986210305,0.17496277308529487,1.3962634015954636,30.27047109465262,-4.338614952700953,-55.5625
1772319077.1213036,53.95573778195476,0.6458823211557727,-3.51533382051263,-0.25200540549960954,0.6459304653967307,9.730008743600612,-0.016286838203789254,0.19134389272786315,1.4104442017679175,30.27047109465262,-4.338614952700953,-55.5625
1772319077.1395507,55.5403754385598,0.5440876839697915,-3.5671502018444086,-0.25036282840215046,0.5979639531665507,9.86715539876863,-0.022192753397987684,0.18357774120975057,1.423534171157875,30.27047109465262,-4.338614952700953,-55.5625
1772319077.1665394,57.94412909468623,0.4812626951339859,-3.659586881064791,-0.20203768533429864,0.46998309283492684,10.03201742331545,-0.0025562201885695845,0.12880817280489248,1.4388058021128254,31.655871113319417,-6.164696286672155,-57.1875
1772319077.236428,62.57556180307295,0.6185460162624259,-3.986821947421598,-0.11584427117664965,0.41138127475064834,10.141731259021876,0.040248685086203946,0.036807918155420866,1.3395402009056478,31.655871113319417,-6.164696286672155,-57.1875
1772319077.2840376,65.37788968130164,0.8622638538383688,-3.9852039902637255,-0.054633973630719736,0.5010138466722525,10.017383000368811,0.04075603515896834,-0.03344517235229402,1.2588187230009102,36.65709955909329,-10.670272169196194,-56.5
1772319077.322724,68.16873307040129,1.3284315449071324,-3.85137837701155,-0.01389920437772912,0.5606633220246461,9.867728389149873,0.005151450940967288,-0.17858568386638643,1.2849986617808251,36.65709955909329,-10.670272169196194,-56.5
1772319077.3659961,72.6270284500741,2.2663824829268933,-3.489152848275879,-0.0017999958307219849,0.5929793774248833,9.768134917135216,0.030375183063710443,-0.2002190258302836,1.3820826014230096,38.996534753131535,-16.136404757498024,-56.0
1772319077.3946273,74.10387023466099,2.5711444787380433,-3.3212661891810056,-0.041628358561424335,0.6133085310161014,9.718582132578037,-0.0009495879867046748,-0.21562124637752642,1.335176877775662,38.996534753131535,-16.136404757498024,-56.0
1772319077.4641595,79.39262485411432,3.4475018876847323,-2.977001125577498,-0.0337578561574795,0.7396826190904424,9.569996471807157,0.0775476930032664,-0.07613297502125026,1.1061024134514064,39.041441773451986,-17.785840906467097,-56.5
1772319077.5107117,81.53009608498371,3.6787471288997295,-3.1125554166523797,-0.033904536922473166,0.7960173515561201,9.462954077392855,0.1267040318141364,-0.020358476840403646,0.9522952731194061,40.38063127833546,-22.35085831826412,-58.0
1772319077.5408807,82.87934971174553,3.8499611281498636,-3.274693937624734,-0.03400215133304495,0.8335074867118334,9.39171855965203,0.13989477913434606,-0.017519341421163993,0.8148505945248526,40.38063127833546,-22.35085831826412,-58.0
1772319077.555482,83.62786062777927,3.9823498088354943,-3.3645912415623043,-0.04740098346946413,0.8779938075371524,9.344312118348386,0.12942934505551645,-0.050623047239879315,0.6599526234103559,40.38063127833546,-22.35085831826412,-58.0
1772319077.5804055,83.62786062777927,3.9823498088354943,-3.3645912415623043,-0.04740098346946413,0.8779938075371524,9.344312118348386,0.12942934505551645,-0.050623047239879315,0.6599526234103559,40.38063127833546,-22.35085831826412,-58.0
1772319077.6276772,85.23294504650787,4.401123039099148,-3.4683548779580406,-0.04726229794594538,0.9195066905378906,9.4064267890304,0.1400671526151143,-0.06484147458878287,0.5868669609830933,42.20075088283926,-26.052586242531504,-58.375
1772319077.7037807,86.35537005693968,4.825132334803501,-3.3450543429162667,-0.08436920541171845,0.9773012914229586,9.551461871429847,0.06339430689885404,-0.07701431224983894,0.2596177262341565,42.20075088283926,-26.052586242531504,-58.375
1772319077.734477,87.0780623807442,4.902802174511396,-3.2730584081240437,-0.14508581866768255,0.998050942819622,9.855378024472454,0.00792226468775802,-0.055667165944569566,0.24652775684419906,44.51204870617335,-27.35376210376283,-60.75
1772319077.763476,87.8446899238244,4.841722956919938,-3.3060319604325343,-0.1545458926662352,0.9413407065847287,10.057630829356432,0.013662296342770759,0.07357354531905587,0.3665191429188092,44.51204870617335,-27.35376210376283,-60.75
1772319077.7914832,88.52321064107959,4.575485476331572,-3.3187934754691413,-0.16084146623632123,0.9036006778652543,9.984830885841049,-0.04708150892873466,0.1822801258335517,0.39924406639370286,44.6499365549994,-27.63419603741945,-59.5625
1772319077.869921,88.52321064107959,4.575485476331572,-3.3187934754691413,-0.16084146623632123,0.9036006778652543,9.984830885841049,-0.04708150892873466,0.1822801258335517,0.39924406639370286,44.6499365549994,-27.63419603741945,-59.5625
1772319077.8973978,89.88404413369734,2.9757949603480274,-3.3576627016734606,-0.21306589504037218,0.953792819117919,9.83054957631393,-0.10783829408340515,0.1426818531922596,0.004363323129985824,43.97130523101807,-28.8036337339691,-59.5625
1772319077.9339938,89.88404413369734,2.9757949603480274,-3.3576627016734606,-0.21306589504037218,0.953792819117919,9.83054957631393,-0.10783829408340515,0.1426818531922596,0.004363323129985824,43.97130523101807,-28.8036337339691,-59.5625
1772319077.9528801,89.62569987076077,2.6746983806838878,-3.4881548991656484,-0.13614834653953745,1.0326402085364759,9.783534172995278,-0.04678554290056661,0.08031850675005714,-0.12217304763960307,45.92875288340898,-28.676925651553926,-57.1875
1772319077.9719334,89.62569987076077,2.6746983806838878,-3.4881548991656484,-0.13614834653953745,1.0326402085364759,9.783534172995278,-0.04678554290056661,0.08031850675005714,-0.12217304763960307,45.92875288340898,-28.676925651553926,-57.1875
1772319078.0069048,89.23773908964236,2.635604430675047,-3.7602774000357484,-0.08053257476645873,1.076106670199272,9.752245947283184,0.10411454100761906,0.03052801580539813,-0.12980886311707826,45.92875288340898,-28.676925651553926,-57.1875
1772319078.0418825,89.08823997941674,2.647380438988937,-4.139313544673106,-0.1193154780388258,0.9559371298137985,9.808361551852514,0.17672544754247224,0.01882351765327832,-0.05890486225480862,46.1834725417022,-28.20344872954084,-57.5625
1772319078.0669503,89.13230955947034,2.6522872856719,-4.465058371940247,-0.14512506693316976,0.8759656430689887,9.845705859841026,0.19739615072216676,0.04600504796667241,0.030543261909900768,46.1834725417022,-28.20344872954084,-57.5625
1772319078.090114,89.23637178528601,2.643310305804705,-4.60185883349056,-0.15762374044256056,0.8511385715939788,9.80365584549774,0.10028024618193115,0.04079832615075419,0.10253809355466686,46.1834725417022,-28.20344872954084,-57.5625
1772319078.1153886,89.23637178528601,2.643310305804705,-4.60185883349056,-0.15762374044256056,0.8511385715939788,9.80365584549774,0.10028024618193115,0.04079832615075419,0.10253809355466686,46.1834725417022,-28.20344872954084,-57.5625
1772319078.132656,89.45154387314777,2.6072308021022255,-4.764299257658459,-0.18207775025770506,0.8825964105723231,9.762291583852443,0.06289344676767218,0.06739120483576991,0.13962634015954636,47.998374109262535,-28.495062429608332,-58.75
1772319078.16149,89.62604029605181,2.5572296619639903,-4.787463727794378,-0.16675724224277563,0.9302488561018821,9.748144576625855,-0.017743776263258338,0.04597573685805162,0.15489797111449674,47.998374109262535,-28.495062429608332,-58.75
1772319078.1746745,89.9345193683006,2.467950303077794,-4.629693305526003,-0.15656161530012827,0.9619610262891085,9.805632135495372,-0.09851108178317122,0.005047328218315056,0.12980886311707826,47.998374109262535,-28.495062429608332,-58.75
1772319078.1998804,89.98316459536494,2.4439346171612013,-4.586929548734366,-0.15878213467461416,0.9786371188294665,9.843889463744928,-0.0941466866320136,0.001115471525890363,0.08617563181722002,47.44030118355201,-28.35158469757685,-56.0
1772319078.2205753,90.09307912871775,2.3578361437115367,-4.426421970709451,-0.1589833183831773,0.9568140831995237,9.869349288332648,-0.1048495354361026,0.005577428543784779,0.055632369907319255,47.44030118355201,-28.35158469757685,-56.0
1772319078.2405567,90.19158092315315,2.308171252059569,-4.45762234460118,-0.16039375102418726,0.9752118856984692,9.849496288410387,0.0410389503896384,0.08217225313238878,0.10144726277217041,47.44030118355201,-28.35158469757685,-56.0
1772319078.2593563,90.4030359008568,2.2367066848812986,-4.602743199596089,-0.15172842189891472,1.0816401917976588,9.839629450441981,-0.0019675685601912144,0.07075067021093902,0.10144726277217041,47.462288870111784,-29.246178343675318,-56.75
1772319078.3100207,90.50953689576652,2.2600711410238734,-4.762327332075736,-0.13995801202264666,1.155419042271984,9.71932938194495,0.0914701543240019,0.036466451621842144,0.06435901616729091,47.462288870111784,-29.246178343675318,-56.75
1772319078.3318844,90.54951998106165,2.3192818383821825,-4.866034088418062,-0.1247449316156023,1.1895087177452157,9.753004828248853,0.10534711513932674,-0.004117210056357967,0.038179077387375956,47.462288870111784,-29.246178343675318,-56.75
1772319078.3484344,90.54951998106165,2.3192818383821825,-4.866034088418062,-0.1247449316156023,1.1895087177452157,9.753004828248853,0.10534711513932674,-0.004117210056357967,0.038179077387375956,47.462288870111784,-29.246178343675318,-56.75
1772319078.363055,90.58399309496515,2.350330534600818,-5.004150627762172,-0.19719701770281425,1.1678651278317949,9.718548562560287,0.12654791864449097,0.029402773909967504,0.03490658503988659,47.765642137529085,-29.863132997719884,-57.5625
1772319078.3864415,90.64920202747352,2.416768290657514,-5.260876029000862,-0.23975838547294404,1.1040554454103966,9.695618302646254,0.16944061541646097,0.023750533752151276,0.044724062082354694,47.765642137529085,-29.863132997719884,-57.5625
1772319078.4096246,90.64920202747352,2.416768290657514,-5.260876029000862,-0.23975838547294404,1.1040554454103966,9.695618302646254,0.16944061541646097,0.023750533752151276,0.044724062082354694,47.765642137529085,-29.863132997719884,-57.5625
1772319078.4327648,90.69935668690167,2.569650596777677,-5.629222824909707,-0.26365449781124617,1.052585219347611,9.670323135699293,0.19078127178014784,0.0050701493853533165,0.025089107997418487,47.936697439325776,-29.361146858740682,-56.5
1772319078.4613469,90.69341822044196,2.6102036993144964,-6.034656961209972,-0.27955709363532094,1.0183323588629256,9.653489484661621,0.2234751893928355,0.07949251131075229,0.007635815477475192,47.936697439325776,-29.361146858740682,-56.5
1772319078.475501,90.69341822044196,2.6102036993144964,-6.034656961209972,-0.27955709363532094,1.0183323588629256,9.653489484661621,0.2234751893928355,0.07949251131075229,0.007635815477475192,47.936697439325776,-29.361146858740682,-56.5
1772319078.5010765,90.7003523452586,2.527335968064202,-6.42680839796108,-0.35956199564967467,1.1291453901992254,9.699153776964684,0.19087555321892688,0.1655705904549027,-0.004363323129985824,47.78856147128977,-30.617975500590493,-58.0
1772319078.5341852,90.7813942786999,1.9605631376664185,-7.2501515238650045,-0.44882674507572135,1.185178214806509,9.729542853388802,0.17453344414018673,0.275444703856615,0.04908738521234052,47.78856147128977,-30.617975500590493,-58.0
1772319078.5901613,91.05786458238214,1.6528797584855741,-7.360450835678791,-0.508231438666168,1.222467433654993,9.689554433549077,-0.08865704958542531,0.01961699247033757,0.07090400086226964,49.63104060861531,-30.965675987389304,-57.5625
1772319078.659094,91.02843010368314,1.6236141684411225,-7.370158560355268,-0.5808349778581182,1.2235672522249674,9.66294258684566,-0.05133529141565752,-0.016732356545687273,-0.04690572364734761,49.63104060861531,-30.965675987389304,-57.5625
1772319078.6813536,91.02843010368314,1.6236141684411225,-7.370158560355268,-0.5808349778581182,1.2235672522249674,9.66294258684566,-0.05133529141565752,-0.016732356545687273,-0.04690572364734761,49.63104060861531,-30.965675987389304,-57.5625
1772319078.724524,91.02973163228009,1.6043521599993897,-7.3658410512092285,-0.5901275762361444,1.2434871799055587,9.86601007282142,0.003352975433586573,-0.009291411250030591,-0.011999138607461015,49.459985306818616,-31.467662126368506,-56.5
1772319078.7612002,91.05851608455927,1.541151370786769,-7.406658450796878,-0.6143228870759997,1.2478876643146422,10.001149216325837,-0.008761310924560867,0.0029854782193448046,0.015271630954950384,49.459985306818616,-31.467662126368506,-56.5
1772319078.7872899,91.08812859430707,1.5227132778097907,-7.452711411007023,-0.6271734139731505,1.2896907931817738,9.913791886236954,0.0004487987698557468,-0.00585713426083004,0.02399827721492203,50.88693760326421,-31.25356309865317,-56.0
1772319078.826602,91.11270763472224,1.5210888174165462,-7.512377119621444,-0.6116605120841994,1.3367980460260378,9.855656558908118,-0.020524360379589334,-0.005229472068623541,-0.015271630954950384,50.88693760326421,-31.25356309865317,-56.0
1772319078.8530295,91.07169075347443,1.5221708923643107,-7.5188809377214385,-0.5787480660020534,1.3904369991968704,9.816968147984936,-0.026846553721397916,-0.002260254160401532,-0.032724923474893676,50.88693760326421,-31.25356309865317,-56.0
1772319078.882413,91.04846548397654,1.4980853628319468,-7.483806485994893,-0.5568452007904979,1.426133123345692,9.797911666108064,-0.04297399832758402,-0.0065433477559451916,-0.017453292519943295,50.076939960863186,-31.164308858951205,-55.25
1772319078.9503815,91.05545269880997,1.5394243267239207,-7.482809736340656,-0.5949263859594431,1.4053591533873029,9.805300460537774,-0.005710791460724878,0.021503259474914802,0.004363323129985824,50.076939960863186,-31.164308858951205,-55.25
1772319078.9687965,91.05545269880997,1.5394243267239207,-7.482809736340656,-0.5949263859594431,1.4053591533873029,9.805300460537774,-0.005710791460724878,0.021503259474914802,0.004363323129985824,50.076939960863186,-31.164308858951205,-55.25
1772319079.0028665,91.01910279026319,1.5235870921018562,-7.383685606963159,-0.6165889381736976,1.2703327487507767,9.810217620692503,-0.06269832303419863,-0.038121793842742516,-0.03381575425739013,50.076939960863186,-31.164308858951205,-56.5
1772319079.0303748,91.0517831846169,1.5025469128101443,-7.372858525121826,-0.5800731453299245,1.1906067368814477,9.80345460072524,0.020540620690712125,0.007668589651375823,-0.008726646259971648,50.076939960863186,-31.164308858951205,-56.5
1772319079.044597,91.0517831846169,1.5025469128101443,-7.372858525121826,-0.5800731453299245,1.1906067368814477,9.80345460072524,0.020540620690712125,0.007668589651375823,-0.008726646259971648,50.076939960863186,-31.164308858951205,-56.5
1772319079.070186,91.05051746846297,1.5153433292197278,-7.4060752214934515,-0.5136464552635673,1.173173440042393,9.752122322582439,0.020524360379589334,0.005229472068623541,0.004363323129985824,50.076939960863186,-31.164308858951205,-56.5
1772319079.1177766,91.05082591987477,1.5137609750367071,-7.390545103416525,-0.5329082704780953,1.2906519737802518,9.717961264897523,-0.003401756366954961,0.001974058501773741,0.003272492347489368,49.98954901556303,-31.694804214896518,-56.0
1772319079.1547728,91.05146447929071,1.506284994366174,-7.378754064435838,-0.5667398488299277,1.3585006198957137,9.69522746261223,-0.001411437554058424,0.007814932451480985,0.015271630954950384,49.98954901556303,-31.694804214896518,-56.0
1772319079.2321148,91.04663527541035,1.4774940892038502,-7.438463909553641,-0.5818743821810978,1.3886438106128454,9.636611918949425,0.005359554557605906,-0.001011419717571064,0.003272492347489368,49.98954901556303,-31.694804214896518,-56.5
1772319079.2794373,91.04660520236615,1.4818055364314118,-7.419194873377371,-0.5818635564133197,1.350292056992633,9.694612168932617,0.002406596960506692,-0.004894495476627362,-0.002181661564992912,49.98954901556303,-31.694804214896518,-56.5
1772319079.3086925,91.04732224344272,1.463551702621447,-7.455576201982244,-0.5859353104934937,1.3861331053438934,9.666308453244799,0.006884814289523899,0.008247470910213935,0.004363323129985824,52.603640305375485,-29.504064789833222,-56.0
1772319079.3423412,91.04225613254593,1.4341813364297662,-7.540444191908895,-0.593073019820465,1.418990517863116,9.67757865199365,0.002422857271629488,-0.0024553778938750793,0.0,52.603640305375485,-29.504064789833222,-56.0
1772319079.385376,91.04227729893917,1.4320255716306185,-7.55007759322268,-0.5978230856441269,1.440856758853311,9.685078843364643,-0.0009788990953254726,-0.00048131939210133845,-0.003272492347489368,49.91147454227193,-30.82778813856326,-56.75
1772319079.429039,91.04264155580428,1.4239768730504112,-7.563449310535255,-0.6010340648114034,1.4479287670052048,9.706795695476007,0.002952957597099214,0.003883075759056299,0.004363323129985824,49.91147454227193,-30.82778813856326,-56.75
1772319079.4642992,91.04264155580428,1.4239768730504112,-7.563449310535255,-0.6010340648114034,1.4479287670052048,9.706795695476007,0.002952957597099214,0.003883075759056299,0.004363323129985824,49.91147454227193,-30.82778813856326,-56.75
1772319079.5370507,91.03695992483169,1.3645325560805468,-7.6928309429267925,-0.5880578096024486,1.4676249977546274,9.730865877135052,-0.0009463784730798811,0.004396915773403229,0.001090830782496456,49.98954901556303,-31.694804214896518,-57.1875
1772319079.5867236,91.03695992483169,1.3645325560805468,-7.6928309429267925,-0.5880578096024486,1.4676249977546274,9.730865877135052,-0.0009463784730798811,0.004396915773403229,0.001090830782496456,49.98954901556303,-31.694804214896518,-57.1875
1772319079.6336422,91.03775801138933,1.3462796315011551,-7.7292044785331635,-0.5780001930902395,1.4776006009861216,9.737266454975535,-0.0019577981906509453,-0.0009626387842026769,-0.001090830782496456,51.89649976442804,-30.757166842879407,-56.0
1772319079.6651342,91.03885555736974,1.326446427415728,-7.750050642667667,-0.5580728176623772,1.4497427369001206,9.741525968029237,0.0004975797032241343,0.001460218487426811,0.002181661564992912,51.89649976442804,-30.757166842879407,-56.0
1772319079.6784847,91.0389592098181,1.3199802201971973,-7.778946245834212,-0.5448113719185039,1.4312036395436187,9.741015514677278,0.00048131939210133845,-0.0009788990953254726,0.002181661564992912,50.88693760326421,-31.25356309865317,-57.1875
1772319079.7093177,91.0389592098181,1.3199802201971973,-7.778946245834212,-0.5448113719185039,1.4312036395436187,9.741015514677278,0.00048131939210133845,-0.0009788990953254726,0.002181661564992912,50.88693760326421,-31.25356309865317,-57.1875
1772319079.7488918,91.03349503634597,1.3094186235803669,-7.802269748550758,-0.5419897580574798,1.4159140757007613,9.727295366844409,-0.001460218487426811,0.0004975797032241341,-0.003272492347489368,50.88693760326421,-31.25356309865317,-57.1875
1772319079.7640736,91.03457365860874,1.291741446655082,-7.813482732693088,-0.5386360047287642,1.4027371766882248,9.718164761725728,0.0004975797032241343,0.001460218487426811,0.003272492347489368,50.0540206271025,-30.409466356080596,-56.75
1772319079.7841413,91.03457365860874,1.291741446655082,-7.813482732693088,-0.5386360047287642,1.4027371766882248,9.718164761725728,0.0004975797032241343,0.001460218487426811,0.003272492347489368,50.0540206271025,-30.409466356080596,-56.75
1772319079.814097,91.03838846637636,1.2877526423794903,-7.8331067778390855,-0.5364041193523832,1.3939680975909883,9.712088446014787,-0.00046505908097854275,0.003418016678077756,0.001090830782496456,50.0540206271025,-30.409466356080596,-56.75
1772319079.8419166,91.03882942092156,1.2775498279428545,-7.856108160156139,-0.5379206896369291,1.3866563725851133,9.71808006090801,-0.001460218487426811,0.0004975797032241341,0.0,51.03041533529569,-30.695490172942648,-58.0
1772319079.8551974,91.03923323811651,1.2695025387836187,-7.869477572660367,-0.5389299502200943,1.3817905012710234,9.722067413688725,0.00048131939210133845,-0.0009788990953254726,0.001090830782496456,51.03041533529569,-30.695490172942648,-58.0
1772319079.9265916,91.03411024364351,1.2551985310320222,-7.886907191981544,-0.5396016018640112,1.3785523182668407,9.724720952422642,0.0024391175827522837,-1.6260311122795648e-05,0.001090830782496456,49.91147454227193,-30.82778813856326,-56.375
1772319079.957545,91.03451887914967,1.247150830562457,-7.900276243947034,-0.5429507167542486,1.3898808047570639,9.723141741100774,0.0,0.0,-0.001090830782496456,49.91147454227193,-30.82778813856326,-56.375
1772319079.982279,91.03492938563781,1.2391033430412575,-7.913645117536476,-0.5451795153016369,1.3974197859688213,9.722090793607018,-0.001460218487426811,0.0004975797032241341,0.0,51.42302284241496,-30.502447184586185,-57.5625
1772319080.0096638,91.03534176298723,1.2310560691988464,-7.927013812783913,-0.5496646209083468,1.4009608929256117,9.721391399789775,0.0004975797032241343,0.001460218487426811,0.002181661564992912,51.42302284241496,-30.502447184586185,-57.5625
1772319080.0231776,91.03534176298723,1.2310560691988464,-7.927013812783913,-0.5496646209083468,1.4009608929256117,9.721391399789775,0.0004975797032241343,0.001460218487426811,0.002181661564992912,51.42302284241496,-30.502447184586185,-57.5625
1772319080.0407152,91.0353873216251,1.22890088916995,-7.936644724156889,-0.5526494085876997,1.4033174600485991,9.717580849309822,0.00048131939210133845,-0.0009788990953254726,0.0,51.42302284241496,-30.502447184586185,-57.5625
1772319080.0567913,91.03580249474894,1.2208539310935649,-7.95001308625147,-0.5561117522697423,1.4078875942151015,9.715044970532052,0.001460218487426811,-0.0004975797032241341,-0.001090830782496456,49.49315275978926,-30.685242053732686,-56.375
1772319080.0763507,91.03580249474894,1.2208539310935649,-7.95001308625147,-0.5561117522697423,1.4078875942151015,9.715044970532052,0.001460218487426811,-0.0004975797032241341,-0.001090830782496456,49.49315275978926,-30.685242053732686,-56.375
1772319080.099592,91.03621953842179,1.2128071885483398,-7.963381269978498,-0.5554140382424945,1.4124049682748614,9.713357371533068,0.0009626387842026769,-0.0019577981906509453,0.0,49.49315275978926,-30.685242053732686,-56.375
1772319080.1350062,91.03074539929985,1.2043893807195627,-7.977072087330002,-0.5534737165276411,1.412409365178523,9.71223429325096,0.0004975797032241343,0.001460218487426811,0.001090830782496456,51.22345832365215,-31.088097680061917,-57.1875
1772319080.1587055,91.03111698278505,1.198497460647351,-7.9808094421286775,-0.5491805890304859,1.4138882920924896,9.714832008907143,0.00048131939210133845,-0.0009788990953254726,0.0,51.22345832365215,-31.088097680061917,-57.1875
1772319080.1801193,91.03111698278505,1.198497460647351,-7.9808094421286775,-0.5491805890304859,1.4138882920924896,9.714832008907143,0.00048131939210133845,-0.0009788990953254726,0.0,51.22345832365215,-31.088097680061917,-57.1875
1772319080.2174168,91.03153884478945,1.1904503198122405,-7.9941772667826285,-0.5463235606385056,1.4148725014330379,9.716560759657947,-0.0004975797032241343,-0.001460218487426811,-0.001090830782496456,51.22345832365215,-31.088097680061917,-57.1875
1772319080.265855,90.98753374874195,1.6601424251870078,-8.761698678531017,-0.5429462393350447,1.4125256166841003,9.721056335678515,0.0009788990953254726,0.00048131939210133845,0.002181661564992912,50.86494991670444,-30.358969452554703,-56.0
1772319080.319589,91.03206530437024,1.1780931717271803,-8.026805162796357,-0.5467023998762105,1.40801178945271,9.724048091301329,-0.00048131939210133845,0.0009788990953254726,-0.001090830782496456,50.86494991670444,-30.358969452554703,-56.0
1772319080.3624508,91.03286868467676,1.1641552875036951,-8.043909543622451,-0.5507279470043316,1.4005300219585435,9.722693959540893,0.0,0.0,0.0,49.773586693445885,-30.54735420490664,-56.5
1772319080.3924422,91.02740631247617,1.155732111275189,-8.057599418489634,-0.5533570402264468,1.4030307202331593,9.718447688273645,-0.00048131939210133845,0.0009788990953254726,-0.001090830782496456,49.773586693445885,-30.54735420490664,-56.5
1772319080.4509394,91.02740631247617,1.155732111275189,-8.057599418489634,-0.5533570402264468,1.4030307202331593,9.718447688273645,-0.00048131939210133845,0.0009788990953254726,-0.001090830782496456,49.773586693445885,-30.54735420490664,-56.5
1772319080.4818106,91.02783858302791,1.1476852271141578,-8.070966217818793,-0.5522045341728178,1.3912114458936535,9.71896695388657,0.0009626387842026769,-0.0019577981906509453,-0.001090830782496456,50.19190847592855,-30.689900289737214,-56.75
1772319080.5278149,91.02827272347126,1.1396385651596521,-8.084332839125544,-0.5469098249506921,1.3892997175687845,9.715967407644074,0.0009788990953254726,0.00048131939210133845,0.0,50.19190847592855,-30.689900289737214,-56.75
1772319080.5607755,91.02827272347126,1.1396385651596521,-8.084332839125544,-0.5469098249506921,1.3892997175687845,9.715967407644074,0.0009788990953254726,0.00048131939210133845,0.0,50.19190847592855,-30.689900289737214,-56.75
1772319080.6440012,91.03288374508111,1.1238688693003582,-8.111446459980138,-0.5420568043518323,1.3842008565803565,9.721547355834707,-0.00048131939210133845,0.0009788990953254726,0.0,50.86494991670444,-30.358969452554703,-55.5625
1772319080.6883318,91.03288374508111,1.1238688693003582,-8.111446459980138,-0.5420568043518323,1.3842008565803565,9.721547355834707,-0.00048131939210133845,0.0009788990953254726,0.0,50.86494991670444,-30.358969452554703,-55.5625
1772319080.7086177,91.0333234726674,1.115822899905151,-8.124813492524378,-0.5461104908305224,1.3891619780119708,9.727719971437539,0.0,0.0,0.002181661564992912,51.73662422904222,-29.582139263124322,-56.0
1772319080.7266662,91.03338244939633,1.1136682849232857,-8.134443077104414,-0.5458063088287117,1.393939549729049,9.73182777816859,-0.0009626387842026769,0.0019577981906509453,0.001090830782496456,51.73662422904222,-29.582139263124322,-56.0
1772319080.7665007,91.03376506977897,1.1077771556489446,-8.138180347129946,-0.5456038791044422,1.3971189703377915,9.734561477660897,0.0009626387842026769,-0.0019577981906509453,-0.002181661564992912,50.528429196316495,-30.52443487114596,-56.5
1772319080.820081,91.03382497085502,1.1056226477766702,-8.147809775398672,-0.5439931635605328,1.3962329741657202,9.736380724135602,1.6260311122795767e-05,0.0024391175827522837,0.001090830782496456,50.528429196316495,-30.52443487114596,-56.5
1772319080.8454354,91.03382497085502,1.1056226477766702,-8.147809775398672,-0.5439931635605328,1.3962329741657202,9.736380724135602,1.6260311122795767e-05,0.0024391175827522837,0.001090830782496456,50.528429196316495,-30.52443487114596,-56.5
1772319080.8716307,91.02831627268635,1.099347922281257,-8.151870126497837,-0.5399193852881986,1.397119354434129,9.730901188927565,0.001460218487426811,-0.0004975797032241341,0.0,50.88693760326421,-31.25356309865317,-56.75
1772319080.9067688,91.02831627268635,1.099347922281257,-8.151870126497837,-0.5402101964257793,1.3962332297775422,9.727254619457035,0.00048131939210133845,-0.0009788990953254726,-0.001090830782496456,50.88693760326421,-31.25356309865317,-56.75
1772319081.0516088,91.02831627268635,1.099347922281257,-8.151870126497837,-0.5430738309412979,1.3877932452954307,9.71429653447392,-0.0019252775684053538,0.003915596381301891,0.001090830782496456,50.88693760326421,-31.25356309865317,-56.5
1772319081.156869,91.02831627268635,1.099347922281257,-8.151870126497837,-0.545818064994621,1.3870572490155837,9.7119028293459,0.0,0.0,0.001090830782496456,49.49315275978926,-30.685242053732686,-56.75
1772319081.2559505,91.02831627268635,1.099347922281257,-8.151870126497837,-0.548613567772264,1.3910628752696204,9.7112663116737,-0.0009626387842026769,0.0019577981906509453,0.0,50.19190847592855,-30.689900289737214,-56.5
1772319081.3048282,91.02831627268635,1.099347922281257,-8.151870126497837,-0.5474720785722391,1.395204575619601,9.71084271627322,0.0009626387842026769,-0.0019577981906509453,-0.001090830782496456,50.19190847592855,-30.689900289737214,-56.5
1772319081.3516917,91.02831627268635,1.099347922281257,-8.151870126497837,-0.5474720785722391,1.395204575619601,9.71084271627322,0.0009626387842026769,-0.0019577981906509453,-0.001090830782496456,50.19190847592855,-30.689900289737214,-56.5
1772319081.3920944,91.02831627268635,1.099347922281257,-8.151870126497837,-0.5437486299116622,1.3947955153185436,9.719289576179833,-0.0004975797032241343,-0.001460218487426811,-0.002181661564992912,51.42302284241496,-30.502447184586185,-56.5
1772319081.436617,91.02831627268635,1.099347922281257,-8.151870126497837,-0.5437486299116622,1.3947955153185436,9.719289576179833,-0.0004975797032241343,-0.001460218487426811,-0.002181661564992912,51.42302284241496,-30.502447184586185,-56.5
1772319081.4590995,91.02831627268635,1.099347922281257,-8.151870126497837,-0.5437486299116622,1.3947955153185436,9.719289576179833,-0.0004975797032241343,-0.001460218487426811,-0.002181661564992912,51.42302284241496,-30.502447184586185,-56.5
1772319081.522256,91.02831627268635,1.099347922281257,-8.151870126497837,-0.5401018984926531,1.3955966146416612,9.719685370779347,0.0019415378795281494,-0.0014764787985496067,-0.001090830782496456,50.88693760326421,-31.25356309865317,-56.75
1772319081.626077,91.02831627268635,1.099347922281257,-8.151870126497837,-0.5401018984926531,1.3955966146416612,9.719685370779347,0.0019415378795281494,-0.0014764787985496067,-0.001090830782496456,50.88693760326421,-31.25356309865317,-56.75
1772319081.650229,91.02831627268635,1.099347922281257,-8.151870126497837,-0.5403316569245377,1.395219863455773,9.719790617768295,0.0,0.0,0.0,50.19190847592855,-30.689900289737214,-57.1875
1772319081.725638,91.02831627268635,1.099347922281257,-8.151870126497837,-0.540484558594387,1.394969139750151,9.719860658463753,-0.0009788990953254726,-0.00048131939210133845,-0.001090830782496456,50.19190847592855,-30.689900289737214,-57.1875
1772319081.804709,91.02831627268635,1.099347922281257,-8.151870126497837,-0.5436558944038069,1.3932152457442564,9.722164423537798,0.0019415378795281494,-0.0014764787985496067,0.0,51.257557423823705,-30.16592646419824,-56.75
1772319081.8462708,91.02831627268635,1.099347922281257,-8.151870126497837,-0.5441728023263711,1.3966369541269175,9.724785511393529,0.0019415378795281494,-0.0014764787985496067,-0.002181661564992912,50.269982949219646,-31.55691636607047,-56.0
1772319081.9559293,91.02831627268635,1.099347922281257,-8.151870126497837,-0.5445167987745979,1.3989140628325916,9.719839592667409,0.0009626387842026769,-0.0019577981906509453,-0.002181661564992912,50.269982949219646,-31.55691636607047,-56.0
1772319082.03641,91.02831627268635,1.099347922281257,-8.151870126497837,-0.5445167987745979,1.3989140628325916,9.719839592667409,0.0009626387842026769,-0.0019577981906509453,-0.002181661564992912,50.269982949219646,-31.55691636607047,-56.0
1772319082.1300395,91.02831627268635,1.099347922281257,-8.151870126497837,-0.5394379441719839,1.3979143567082744,9.716583847834004,0.0004975797032241343,0.001460218487426811,-0.003272492347489368,50.3573738945198,-31.02642101012516,-57.1875
1772319082.188092,91.02831627268635,1.099347922281257,-8.151870126497837,-0.539889802740988,1.3967622949102285,9.71438147718713,0.0009788990953254726,0.00048131939210133845,0.0,50.88693760326421,-31.25356309865317,-56.5
1772319082.338676,91.02831627268635,1.099347922281257,-8.151870126497837,-0.5446683754654996,1.3975214749000404,9.712915824123728,0.0,0.0,-0.001090830782496456,50.88693760326421,-31.25356309865317,-56.5
1772319082.4460115,91.02831627268635,1.099347922281257,-8.151870126497837,-0.5499647744537194,1.398362922830568,9.720207704610807,0.00048131939210133845,-0.0009788990953254726,-0.001090830782496456,50.55041688287626,-31.419028517244428,-56.0
1772319082.4862387,91.02831627268635,1.099347922281257,-8.151870126497837,-0.5499647744537194,1.398362922830568,9.720207704610807,0.00048131939210133845,-0.0009788990953254726,-0.001090830782496456,50.55041688287626,-31.419028517244428,-56.0
1772319082.535303,91.02831627268635,1.099347922281257,-8.151870126497837,-0.5484211549481215,1.392582944759373,9.72013822509828,-0.0009626387842026769,0.0019577981906509453,-0.001090830782496456,51.73662422904222,-29.582139263124322,-56.375
1772319082.5714786,91.02831627268635,1.099347922281257,-8.151870126497837,-0.5484211549481215,1.392582944759373,9.72013822509828,-0.0009626387842026769,0.0019577981906509453,-0.001090830782496456,51.73662422904222,-29.582139263124322,-56.375
1772319082.6215708,91.02831627268635,1.099347922281257,-8.151870126497837,-0.5473938934105058,1.388736433919578,9.72343709896615,0.0009626387842026769,-0.0019577981906509453,0.0,51.73662422904222,-29.582139263124322,-56.375
1772319082.6736853,91.02831627268635,1.099347922281257,-8.151870126497837,-0.5481862631561821,1.3891784889947703,9.718942239259743,-0.002422857271629488,0.0024553778938750793,-0.001090830782496456,51.03041533529569,-30.695490172942648,-56.75
1772319082.7164388,91.02831627268635,1.099347922281257,-8.151870126497837,-0.5487135763705797,1.3894726717092318,9.715950960336002,-0.0009626387842026769,0.0019577981906509453,-0.001090830782496456,51.03041533529569,-30.695490172942648,-56.75
1772319082.741764,91.02831627268635,1.099347922281257,-8.151870126497837,-0.5490644974242868,1.3896684470194698,9.713960297627027,0.0004975797032241343,0.001460218487426811,0.001090830782496456,50.69389461490775,-30.860955591533905,-57.1875
1772319082.7697546,91.02831627268635,1.099347922281257,-8.151870126497837,-0.5490644974242868,1.3896684470194698,9.713960297627027,0.0004975797032241343,0.001460218487426811,0.001090830782496456,50.69389461490775,-30.860955591533905,-57.1875
1772319082.8402202,91.02831627268635,1.099347922281257,-8.151870126497837,-0.5474557380896108,1.3908676994269245,9.717325164505125,1.6260311122795767e-05,0.0024391175827522837,0.0,49.49315275978926,-30.685242053732686,-56.5
1772319082.8977861,91.02831627268635,1.099347922281257,-8.151870126497837,-0.5474557380896108,1.3908676994269245,9.717325164505125,1.6260311122795767e-05,0.0024391175827522837,0.0,49.49315275978926,-30.685242053732686,-56.5
1772319082.9342084,91.02831627268635,1.099347922281257,-8.151870126497837,-0.5452255550285421,1.3920728232058097,9.72156503856535,0.001460218487426811,-0.0004975797032241341,0.002181661564992912,49.49315275978926,-30.685242053732686,-56.5
1772319082.9714813,91.02831627268635,1.099347922281257,-8.151870126497837,-0.543741393114178,1.3928748196185432,9.724386627389933,-0.0009626387842026769,0.0019577981906509453,0.0,51.03041533529569,-30.695490172942648,-57.1875
1772319082.9947693,91.02831627268635,1.099347922281257,-8.151870126497837,-0.543741393114178,1.3928748196185432,9.724386627389933,-0.0009626387842026769,0.0019577981906509453,0.0,51.03041533529569,-30.695490172942648,-57.1875
1772319083.0215347,91.02831627268635,1.099347922281257,-8.151870126497837,-0.5397518348686097,1.3948845400960268,9.726264363233481,-0.0009788990953254726,-0.00048131939210133845,-0.001090830782496456,51.03041533529569,-30.695490172942648,-57.1875
1772319083.0503404,91.02831627268635,1.099347922281257,-8.151870126497837,-0.5386226926695074,1.391744120729313,9.72416886375436,-0.00046505908097854275,0.003418016678077756,0.003272492347489368,49.773586693445885,-30.54735420490664,-56.0
1772319083.0879438,90.9900513372378,1.0976074582258963,-8.284364510262318,-0.5363453969023119,1.3941320726159783,9.729464555673905,0.013704587334556616,0.006738471489418738,-0.011999138607461015,49.773586693445885,-30.54735420490664,-56.0
1772319083.131041,90.9900513372378,1.0976074582258963,-8.284364510262318,-0.5363453969023119,1.3941320726159783,9.729464555673905,0.013704587334556616,0.006738471489418738,-0.011999138607461015,49.773586693445885,-30.54735420490664,-56.0
1772319083.1948571,90.99787241586928,1.1300071896171118,-8.073078547293026,-0.6309693892419285,1.5609235336584388,9.72295344436765,-0.07220111832882556,-0.07318329785210877,-0.001090830782496456,50.954204156406405,-29.548971810153677,-57.25
1772319083.2689917,91.02090428681824,1.1062907573456033,-8.254951929331517,-0.7059480594076261,1.6660173845047102,9.574780569112484,0.021249584438532608,0.040837336714582326,0.06435901616729091,50.954204156406405,-29.548971810153677,-57.25
1772319083.3135786,91.02090428681824,1.1062907573456033,-8.254951929331517,-0.7059480594076261,1.6660173845047102,9.574780569112484,0.021249584438532608,0.040837336714582326,0.06435901616729091,50.954204156406405,-29.548971810153677,-57.25
1772319083.3707495,91.11479675784683,1.072192741237824,-8.255112376249896,-0.755017750516015,1.6357178006497968,9.47617317582964,-0.02988081287411111,-0.018338917833219247,0.008726646259971648,50.39054134749045,-30.24400093748934,-56.0
1772319083.4646068,91.45543535004413,1.0726157912974494,-8.40924621170785,-0.7471728350610435,1.6317399117001987,9.460727732726456,-0.0022602541604015316,0.026846553721397916,0.13962634015954636,50.39054134749045,-30.24400093748934,-56.0
1772319083.5019665,92.0588089138147,1.0974955427889257,-8.398918621068887,-0.7149353458226012,1.642376678453439,9.51735119702458,0.008923914035788825,0.02140569760817803,0.12871803233458182,49.156632039401316,-30.85070747232394,-54.75
1772319083.521989,92.0588089138147,1.0974955427889257,-8.398918621068887,-0.7149353458226012,1.642376678453439,9.51735119702458,0.008923914035788825,0.02140569760817803,0.12871803233458182,49.156632039401316,-30.85070747232394,-54.75
1772319083.556622,92.40879362639805,1.1502949317484679,-8.411576614710468,-0.6844760616385663,1.6538833303783391,9.488131245843052,-1.6260311122795767e-05,-0.0024391175827522837,0.17235126363444003,49.156632039401316,-30.85070747232394,-54.75
1772319083.626267,92.86339747573598,1.1584625595188556,-8.407062631674382,-0.6583017449718046,1.6495334184136998,9.535587928886374,-0.002920436974853622,0.0009951594064482683,0.08508480103472356,49.79650602720656,-31.30219670777725,-55.5625
1772319083.689616,93.20418602372074,1.156255552021957,-8.387564548413456,-0.6408830296163499,1.6466386005929328,9.884955433521162,-0.020989419460567874,-0.001811455390545783,0.08835729338221293,49.79650602720656,-31.30219670777725,-55.5625
1772319083.73891,93.32564168941852,1.1437950482782386,-8.392401047952703,-0.578259362924616,1.6698041456732833,10.11745560516487,-0.01000037499785107,-0.03652172249679307,0.014180800172453928,48.45042314565479,-31.96405838214227,-54.0625
1772319083.7975562,93.35583573044212,1.1576550319878673,-8.384102132136649,-0.48274989471361385,1.681869648114038,10.168483409269765,0.0011187519538481056,-0.05171904894102209,0.004363323129985824,48.45042314565479,-31.96405838214227,-54.0625
1772319083.8882308,93.71030544365982,1.1486480930731233,-8.403748725124125,-0.4000013998218071,1.650874859288324,9.162112101907322,0.004169271417684092,-0.03320126768545209,0.019634954084936207,46.96086253207153,-33.18399298221781,-54.5
1772319083.9603364,94.49155485273893,1.1575727489693295,-8.412034051594373,-0.4201341813260635,1.4497769924285908,9.103741461212852,-0.004364395151157638,0.003931856692424685,0.15271630954950383,48.284957727063535,-31.627537661754324,-54.0625
1772319083.9818509,94.8781903419307,1.1899309810093064,-8.413703332785495,-0.49966831746694895,1.3896490960349532,9.510593528935258,0.003499318233691735,0.01266064699473996,0.136353847812057,48.284957727063535,-31.627537661754324,-54.0625
1772319084.1249135,95.3651119916883,1.2084623443021874,-8.420819725948107,-0.5149992880950056,1.37930425940155,9.52043032199822,-0.008133648732354367,0.023958637368789885,0.11235557059713497,47.384774197759626,-32.48803220768124,-52.875
1772319084.1728306,95.3651119916883,1.2084623443021874,-8.420819725948107,-0.5149992880950056,1.37930425940155,9.52043032199822,-0.008133648732354367,0.023958637368789885,0.11235557059713497,47.384774197759626,-32.48803220768124,-52.875
1772319084.260308,96.13137656694386,1.2056117052774524,-8.462033546159427,-0.544389888497866,1.4114441321009596,9.513596151068164,-0.018869018158688973,0.023542359221179726,0.18216874067690814,46.254653638324996,-34.29734389203614,-53.5625
1772319084.3310041,96.83121333414766,1.188028979137455,-8.478180219201805,-0.5729545999636529,1.4284048558854257,9.522428533486181,-0.001378916931812832,0.012693167616985551,0.13308135546456762,46.254653638324996,-34.29734389203614,-53.5625
1772319084.397255,97.42909073268262,1.2102258317953716,-8.452878365010323,-0.6022961021212736,1.4607050835954272,9.55506727897975,-0.018068982485714254,-0.0028066147969940526,0.08726646259971647,45.951300370907695,-33.68038923799157,-52.75
1772319084.4808974,97.96690033085989,1.255113850722826,-8.478454561030546,-0.6008094885459766,1.4925325300851218,9.65707068048271,0.00791249431821776,0.016046143050572125,0.14726215563702155,45.951300370907695,-33.68038923799157,-52.75
1772319084.5341902,98.86738152587827,1.2950607024619993,-8.479293695033483,-0.5776801514627339,1.46868536412713,9.724952804730274,-0.020394277890606965,0.014283468593394728,0.16580627893946132,45.211924024190516,-35.57616022044572,-51.25
1772319084.6172316,99.38193352093877,1.3119699022831417,-8.515307862155145,-0.5622878360054603,1.4528153415723848,9.753402041587417,-0.018452740011078817,0.012806989794845122,0.1461713248545251,45.211924024190516,-35.57616022044572,-51.25
1772319084.6577394,99.95312041170325,1.3068124113473285,-8.527009079330808,-0.552094285435416,1.4347742878768055,9.745573797258492,-0.014072084548798384,0.011314250685172717,-0.001090830782496456,43.81254929751014,-35.84634603489238,-51.6875
1772319084.7315397,100.30033870022847,1.2989188760428658,-8.512894184494122,-0.5273492643994098,1.4241444421511855,9.740364188104813,-0.026765252165783935,0.009935333753359888,0.1505346479845109,43.81254929751014,-35.84634603489238,-51.6875
1772319084.8313951,101.13038489880572,1.3033516473788656,-8.520802278672235,-0.5082289082126006,1.3661882826314882,9.71682658116427,-0.0004000178364873604,0.01317448700908689,0.15162547876700738,44.143480134692645,-36.51938747566827,-50.0625
1772319084.902482,101.6530211849068,1.3324595107150607,-8.51375058832675,-0.5221722664318688,1.3666932152267357,9.697817454970316,-0.007268571814888464,0.0073661336816252376,0.1439896632895322,44.143480134692645,-36.51938747566827,-50.0625
1772319084.9697273,102.30998686845304,1.3635876189411926,-8.528826675832178,-0.5374551457107427,1.3640772405810138,9.658406200175538,-0.006305933030685787,0.005408335490974293,0.1461713248545251,43.74528274436794,-37.55093732339187,-50.5
1772319085.0848813,103.0525807088988,1.373871075714848,-8.564531599979288,-0.5490020051268991,1.3802976656777,9.632178450362176,-0.0008650769174659029,0.016592503687164646,0.14180800172453928,43.74528274436794,-37.55093732339187,-50.5
1772319085.1171987,103.0525807088988,1.373871075714848,-8.564531599979288,-0.5490020051268991,1.3802976656777,9.632178450362176,-0.0008650769174659029,0.016592503687164646,0.14180800172453928,43.74528274436794,-37.55093732339187,-50.5
1772319085.1492372,103.77130072027244,1.3707416379014605,-8.574440066763191,-0.5596881761522139,1.3896161765618278,9.618069287551865,-0.008680009368946888,0.015181066133106222,0.15926129424448257,42.73572058320411,-38.04733357916564,-49.25
1772319085.1776469,104.20600858357302,1.356352908378387,-8.58918106888788,-0.5534159693372595,1.3837602177543502,9.682272254872306,-0.016992521523652007,0.012309410091620988,0.14726215563702155,42.73572058320411,-38.04733357916564,-49.25
1772319085.324276,104.9698014578895,1.3362719132398186,-8.607278697123341,-0.5552456159085163,1.3769111409359271,9.724998612429921,-0.011616706654923306,0.013737107956802207,0.14180800172453928,41.94771062736285,-38.85267298556214,-49.6875
1772319085.3935516,105.80179922780724,1.3234492849770905,-8.660156816525918,-0.5846069677601088,1.414429131236086,9.753432526099827,-0.0037692535811967294,0.020026780676365197,0.1505346479845109,41.94771062736285,-38.85267298556214,-49.6875
1772319085.4733362,106.52954076897763,1.3077014901758806,-8.66572151100073,-0.6071484845002867,1.4379209338537327,9.78239031314148,-0.010123967545250903,0.018117763419082642,0.17780541754692233,41.83274211229749,-39.32708155477612,-48.875
1772319085.5053463,106.52954076897763,1.3077014901758806,-8.66572151100073,-0.6071484845002867,1.4379209338537327,9.78239031314148,-0.010123967545250903,0.018117763419082642,0.17780541754692233,41.83274211229749,-39.32708155477612,-48.875
1772319085.5813794,107.23581625521327,1.3162625068968332,-8.658784507372925,-0.634331209753434,1.5063354204449244,9.774344747444681,-0.010156488167496494,0.013239528253578072,0.1712604328519436,40.09405172362645,-40.1819862174976,-48.875
1772319085.6335924,108.29280475213328,1.2880170325481632,-8.628824162021067,-0.6355620925028703,1.5274766022753143,9.75616582235383,-0.026267672462559802,0.011395552240786696,0.23671027980173096,40.09405172362645,-40.1819862174976,-48.875
1772319085.668186,108.29280475213328,1.2880170325481632,-8.628824162021067,-0.6355620925028703,1.5274766022753143,9.75616582235383,-0.026267672462559802,0.011395552240786696,0.23671027980173096,40.09405172362645,-40.1819862174976,-48.875
1772319085.6931405,109.01199020251423,1.3073083974226638,-8.62353515600333,-0.6644867467139496,1.531149150618264,9.741588198567172,-0.0061921108528262166,0.022482158570240277,0.1189005552921137,39.42660016605599,-39.67441019531297,-48.5
1772319085.7787864,109.88706900195699,1.3095798580812799,-8.594397132542293,-0.6340489998677833,1.5913163905884937,9.73729916237455,-0.016960000901406414,0.017187645257125555,0.19416787928436915,39.65933213778944,-38.306339627201424,-47.6875
1772319085.865651,110.32618404812584,1.284177578357565,-8.566838112936319,-0.6098833635868922,1.5928366301250587,9.748237957852554,-0.014953421777387083,0.02546763678958508,0.1407171709420428,38.97511093060268,-40.31428418311822,-47.25
1772319085.9545772,110.86062478998879,1.2383682275495003,-8.591433088377363,-0.6241602470811073,1.5668768209532955,9.732505896367478,0.019015360958794133,-0.0015903009764091768,0.12217304763960307,38.13045438709116,-37.03833121894074,-49.25
1772319085.9859607,110.86062478998879,1.2383682275495003,-8.591433088377363,-0.6241602470811073,1.5668768209532955,9.732505896367478,0.019015360958794133,-0.0015903009764091768,0.12217304763960307,38.13045438709116,-37.03833121894074,-49.25
1772319086.0520446,111.37606581082015,1.304805340046696,-8.636902582393276,-0.6328917116664949,1.4895925043019043,9.69211107654234,0.011314250685172719,0.014072084548798384,0.07308566242726255,38.1982807411723,-39.44260987078043,-48.875
1772319086.1261907,111.83137645627143,1.3240938727592668,-8.635896887976957,-0.5973550580504622,1.493645868600562,9.681369562734698,-0.008214950287968346,0.011763049455028467,0.13962634015954636,38.1982807411723,-39.44260987078043,-48.875
1772319086.169616,111.83137645627143,1.3240938727592668,-8.635896887976957,-0.5973550580504622,1.493645868600562,9.681369562734698,-0.008214950287968346,0.011763049455028467,0.13962634015954636,38.1982807411723,-39.44260987078043,-48.875
1772319086.2517262,112.251987498244,1.3407994381451436,-8.635427269813597,-0.5618978054498536,1.4723284166964006,9.697636987237521,-0.002822875108116848,0.01562986490296197,0.07090400086226964,37.23306579938998,-37.47957233518409,-48.0625
1772319086.292718,112.52979375204299,1.3416124045634978,-8.641326890877721,-0.550109406517183,1.4821568111515941,9.731878558476346,0.0025854603828574436,0.021935797933647756,0.08508480103472356,37.23306579938998,-37.47957233518409,-48.0625
1772319086.3301635,112.52979375204299,1.3416124045634978,-8.641326890877721,-0.550109406517183,1.4821568111515941,9.731878558476346,0.0025854603828574436,0.021935797933647756,0.08508480103472356,37.23306579938998,-37.47957233518409,-48.0625
1772319086.4064772,113.23659523469092,1.3746983122708893,-8.65251807129085,-0.5751330819791284,1.6109041640970823,9.682857786180653,0.004380655462280433,-0.0014927391096724023,0.06435901616729091,37.00033382765653,-38.84764290329564,-47.6875
1772319086.4818041,113.49755995133067,1.3932873227119382,-8.698783164742272,-0.5153154965390334,1.6069990314455633,9.63507026087719,-0.006933595222892287,-0.015564823658470787,0.039269908169872414,36.801700956094635,-39.293542255543514,-45.6875
1772319086.5417314,113.5808568809939,1.409725073356389,-8.687903353920365,-0.5042496652118722,1.5567194121208128,9.706966659536272,0.0018764966350369664,-0.011232949129558741,0.001090830782496456,36.801700956094635,-39.293542255543514,-45.6875
1772319086.595737,113.5808568809939,1.409725073356389,-8.687903353920365,-0.5042496652118722,1.5567194121208128,9.706966659536272,0.0018764966350369664,-0.011232949129558741,0.001090830782496456,36.801700956094635,-39.293542255543514,-45.6875
1772319086.6229095,113.53723124149899,1.391013111446457,-8.713047485548202,-0.5015129342415366,1.5023455584718857,9.754812909708493,-0.011297990374049924,-0.0116329669660461,-0.018544123302439753,35.50052509486331,-41.60484007887761,-45.6875
1772319086.6594272,113.5329487650029,1.386011403103985,-8.697810526501732,-0.5417177813423428,1.44549635473252,9.786654054720472,-0.01660876399828744,-0.0033041945002181858,0.01090830782496456,35.50052509486331,-41.60484007887761,-45.6875
1772319086.6912582,113.48877680836172,1.3776255459582276,-8.7034548475518,-0.5684736579703599,1.4076638446911882,9.824569539573645,0.008279991532459528,-0.002006579124019332,-0.026179938779914945,34.16003209651697,-41.428194893875485,-45.25
1772319086.717932,113.45001382419937,1.3587264178567267,-8.747867531202617,-0.6113714089864165,1.4335184380779888,9.849801871199714,0.009340192183398979,0.010670328181843424,-0.01090830782496456,34.16003209651697,-41.428194893875485,-45.25
1772319086.7438478,113.41646369292711,1.3412151506270886,-8.75315166701653,-0.6219081926639206,1.4595803861043501,9.849868147496654,0.012644386683617165,-0.005938435816444017,-0.03599741582238305,34.16003209651697,-41.428194893875485,-45.25
1772319086.7677732,113.41646369292711,1.3412151506270886,-8.75315166701653,-0.6219081926639206,1.4595803861043501,9.849868147496654,0.012644386683617165,-0.005938435816444017,-0.03599741582238305,34.16003209651697,-41.428194893875485,-45.25
1772319086.7991655,113.33050489105183,1.3002757186330374,-8.738339588460706,-0.6209504751038102,1.3642925175476024,9.81091924251784,0.01705756276814319,-0.0025529397606118527,-0.011999138607461015,-1803.4987525271524,-945.4826084673666,-45.25
1772319086.8414578,113.33050489105183,1.3002757186330374,-8.738339588460706,-0.6209504751038102,1.3642925175476024,9.81091924251784,0.01705756276814319,-0.0025529397606118527,-0.011999138607461015,-1803.4987525271524,-945.4826084673666,-45.25
1772319086.8658373,113.34160376609137,1.280555774506175,-8.767322810920787,-0.6153479907099899,1.3341364069028225,9.787195963675776,0.005889654883075631,0.0053270339353603145,0.018544123302439753,34.1656219797224,-40.58968803450834,-45.6875
1772319086.9015656,113.30711672717129,1.2723776002701244,-8.792545428085823,-0.6204756048719317,1.3320790425589542,9.761373051490812,-0.004910755787750159,-0.004845714543258976,-0.031634092692397225,34.1656219797224,-40.58968803450834,-45.6875
1772319086.9576502,113.18827821926875,1.26777845045495,-8.808544549318727,-0.6058767843930963,1.3395658945125528,9.74418819189255,0.023877335813175905,-0.004061939181407052,-0.0545415391248228,32.68165124934458,-40.97111577521674,-45.6875
1772319087.0251446,112.96122407510647,1.2441200359530602,-8.85554889348812,-0.6069090299032793,1.3828716695948704,9.702856123815442,0.0038668154479335037,-0.005392075179851497,-0.05126904677733343,32.69283101575545,-39.29410205648245,-44.875
1772319087.1380043,112.60482648771172,1.2312338945971903,-8.864713754470154,-0.6101323877132971,1.4003846060507406,9.691865383372225,-0.005392075179851497,-0.0038668154479335032,-0.06544984694978735,32.77090548904655,-40.161118132815716,-45.6875
1772319087.19303,112.4247588530256,1.2470673208377472,-8.867931658336243,-0.6043489945533603,1.4793069848929414,9.674515833259921,0.012579345439125983,-0.015694906147453152,-0.06435901616729091,32.77090548904655,-40.161118132815716,-45.6875
1772319087.2527084,112.0156634401753,1.2109354524418252,-8.857413421535151,-0.6168858103408407,1.5424102692742694,9.743252582443022,-0.0009951594064482685,-0.002920436974853622,-0.07526732399225546,31.515940141598552,-39.73347987832399,-44.375
1772319087.2913418,112.0156634401753,1.2109354524418252,-8.857413421535151,-0.6168858103408407,1.5424102692742694,9.743252582443022,-0.0009951594064482685,-0.002920436974853622,-0.07526732399225546,31.515940141598552,-39.73347987832399,-44.375
1772319087.3287146,111.80384218606764,1.188975237689322,-8.873999837889,-0.6267049220256966,1.587406665190903,9.675262323135717,0.018934059403180156,-0.013785888890170595,-0.1090830782496456,31.515940141598552,-39.73347987832399,-44.375
1772319087.3790426,111.290397314751,1.147849960424777,-8.908715714163684,-0.6457955344441683,1.6767146788494436,9.742483339277904,0.014569664252022519,-0.009854032197745909,-0.12980886311707826,30.430166801545433,-39.08335777130878,-45.1875
1772319087.4842558,110.90449102637751,1.1277230917210221,-8.913190789550788,-0.6428424285562657,1.6932202122386488,9.771758639914601,0.015067243955246654,-0.008393813710319099,-0.0916297857297023,30.707805793599334,-39.36472335216631,-44.875
1772319087.5325184,110.66117647148349,1.1229405805835133,-8.931317961956054,-0.6666174080824968,1.657999663985618,9.754444796681275,0.007236051192642872,-0.012244368847129806,-0.08944812416470939,30.707805793599334,-39.36472335216631,-44.875
1772319087.5688682,110.66117647148349,1.1229405805835133,-8.931317961956054,-0.6666174080824968,1.657999663985618,9.754444796681275,0.007236051192642872,-0.012244368847129806,-0.08944812416470939,30.707805793599334,-39.36472335216631,-44.875
1772319087.6204846,110.24404740561171,1.1190470204659706,-8.956497133451272,-0.5953553427751994,1.4574507433892208,9.779718856198311,-0.005024577965609729,-0.02191953762252496,-0.11126473981463851,28.865326656273794,-39.017022865367494,-44.875
1772319087.6794064,110.24404740561171,1.1190470204659706,-8.956497133451272,-0.5953553427751994,1.4574507433892208,9.779718856198311,-0.005024577965609729,-0.02191953762252496,-0.11126473981463851,28.865326656273794,-39.017022865367494,-44.875
1772319087.7298768,109.74881225479228,1.0943080134453504,-8.9770786620231,-0.5798048914038427,1.479785480148672,9.726291114623448,0.007684849962498619,-0.018101503107959844,-0.11780972450961724,28.561973388856494,-38.400068211322925,-44.0
1772319087.758663,109.20596903178705,1.046416486672179,-8.986611311951494,-0.5618073811374756,1.4726663000134237,9.789641133965645,-0.00497579703224134,-0.014602184874268108,-0.09381144729469522,27.94501873481193,-38.703421478740225,-44.875
1772319087.7867613,109.20596903178705,1.046416486672179,-8.986611311951494,-0.5618073811374756,1.4726663000134237,9.789641133965645,-0.00497579703224134,-0.014602184874268108,-0.09381144729469522,27.94501873481193,-38.703421478740225,-44.875
1772319087.8413658,108.96549964056327,1.008340115561506,-8.977689479693232,-0.5591545522062863,1.4629942043232516,9.80648673719953,0.010205269100864882,-0.0059221755053212215,-0.07417649320975901,27.94501873481193,-38.703421478740225,-44.875
1772319087.8731058,108.66604424380776,0.9545256157123586,-8.988609108603674,-0.6139259262971527,1.5033108266872444,9.78090106919345,0.013158226697964093,-0.002039099746264924,-0.09053895494720585,26.240427446312435,-38.636154925598035,-45.1875
1772319087.9077702,108.4674342959303,0.9540704978588229,-8.986069633586604,-0.6088481871614245,1.4760077903844049,9.763874092946041,-0.0035806197893057134,-0.02485623490850138,-0.10799224746714914,26.240427446312435,-38.636154925598035,-45.1875
1772319087.9461389,108.4674342959303,0.9540704978588229,-8.986069633586604,-0.6088481871614245,1.4760077903844049,9.763874092946041,-0.0035806197893057134,-0.02485623490850138,-0.10799224746714914,26.240427446312435,-38.636154925598035,-45.1875
1772319087.9963686,108.0877160341989,0.9136215768847239,-8.998198001400532,-0.5938604555924557,1.403904080293235,9.702366154847388,0.004796933609890589,-0.01222810853600701,-0.11453723216212788,26.27359489928308,-37.85373485296221,-46.0
1772319088.0490696,108.0877160341989,0.9136215768847239,-8.998198001400532,-0.5938604555924557,1.403904080293235,9.702366154847388,0.004796933609890589,-0.01222810853600701,-0.11453723216212788,26.27359489928308,-37.85373485296221,-46.0
1772319088.0884721,107.10749283833566,0.9688638398003314,-9.03146354359968,-0.5207915909609699,1.196539327096351,9.650906696100877,0.04131865610668366,-0.022228483533858076,-0.15271630954950383,26.195520425991983,-36.986718776628955,-45.5625
1772319088.1527448,106.9384521831832,0.9715176006464599,-9.019050942505165,-0.5049918066536371,1.2700796029051085,9.684054513199868,0.006705950867173146,-0.018582822500061182,-0.08944812416470939,24.927512017731303,-38.51559652732723,-45.1875
1772319088.27133,106.59856866174327,0.9319252138677635,-8.995826922802873,-0.5712292695244692,1.475116818635299,9.706114015193867,-0.004510737951262798,-0.018020201552345867,-0.1265363707695889,24.927512017731303,-38.51559652732723,-45.1875
1772319088.3058891,106.59856866174327,0.9319252138677635,-8.995826922802873,-0.5712292695244692,1.475116818635299,9.706114015193867,-0.004510737951262798,-0.018020201552345867,-0.1265363707695889,24.927512017731303,-38.51559652732723,-45.1875
1772319088.3903403,105.45001549109587,0.8459918517393434,-9.00984457697484,-0.6304231553873777,1.4461760571280986,9.704922061294669,0.01657624337604185,-0.0015740406652863803,-0.06544984694978735,23.95204895673902,-38.08982156723732,-44.875
1772319088.4927769,105.02663437784621,0.8378311151399193,-9.010729604798131,-0.616575726647404,1.4768598951295067,9.696585353393935,-0.015311148622088587,-0.02819295003096516,-0.12544553998709243,22.220811745675224,-37.82671708413595,-45.1875
1772319088.561962,104.5299184912216,0.8150051587719725,-9.001068832584462,-0.6073604175068661,1.4972796465585145,9.691037367413127,0.015132285199737836,0.0013626566206900374,-0.09490227807719166,21.66926035037104,-36.70498134950947,-44.75
1772319088.6072557,104.5299184912216,0.8150051587719725,-9.001068832584462,-0.6073604175068661,1.4972796465585145,9.691037367413127,0.015132285199737836,0.0013626566206900374,-0.09490227807719166,21.66926035037104,-36.70498134950947,-44.75
1772319088.6667929,104.22081565680361,0.8179142228255427,-8.981126246008184,-0.5646268921632277,1.3909437504716127,9.717451250083839,-0.0001788634223507525,-0.026830293410275118,-0.09272061651219876,21.66926035037104,-36.70498134950947,-44.75
1772319088.70716,103.83999733998738,0.7846321990688485,-8.968098236348467,-0.527431930316298,1.287207747120837,9.735029393938794,0.001411437554058424,-0.007814932451480985,-0.0916297857297023,21.834725768962294,-37.04150206989741,-45.5625
1772319088.7528853,103.52705492246045,0.7655704820282468,-8.965889265536115,-0.49667536856064637,1.2211245973453742,9.713276335240339,0.011119126951699173,-0.015197326444229019,-0.09490227807719166,21.834725768962294,-37.04150206989741,-45.5625
1772319088.7847931,103.52705492246045,0.7655704820282468,-8.965889265536115,-0.49667536856064637,1.2211245973453742,9.713276335240339,0.011119126951699173,-0.015197326444229019,-0.09490227807719166,21.834725768962294,-37.04150206989741,-45.5625
1772319088.8649025,103.05433119107137,0.7438644971562904,-8.965866393818976,-0.4858610400012081,1.0754824943487298,9.698799917674105,-0.007382393992748032,-0.009707689397640747,-0.07744898555724837,21.94969428402766,-36.56709350068342,-46.0
1772319088.8876495,102.7174418494975,0.7099263061870317,-8.947300030328996,-0.5462112190755064,1.1690032117432707,9.645679571300805,0.007749891206989802,-0.008345032776950709,-0.11344640137963143,21.94969428402766,-36.56709350068342,-46.0
1772319088.957085,102.36784592699675,0.5876425094061808,-8.907959321742988,-0.5863735890937791,1.2312402044744732,9.663850361499634,-0.01254682481688039,0.02057314131295772,-0.11999138607461016,19.91603545274747,-35.54728322030962,-45.5625
1772319088.9839418,102.36784592699675,0.5876425094061808,-8.907959321742988,-0.5863735890937791,1.2312402044744732,9.663850361499634,-0.01254682481688039,0.02057314131295772,-0.11999138607461016,19.91603545274747,-35.54728322030962,-45.5625
1772319089.0265198,101.87593945346504,0.6151601736090129,-8.903672778329192,-0.5770788168490616,1.2903702377886817,9.675942819395928,0.016381119642568304,-0.030843451658313783,-0.13853550937704992,19.91603545274747,-35.54728322030962,-45.5625
1772319089.0538306,101.64221446723805,0.6603098388797607,-8.91798093558984,-0.5708932497496113,1.3297206144335354,9.740857114068735,0.04409275028143212,-0.0451757011850769,-0.1461713248545251,20.053923301573512,-35.82771715396625,-46.75
1772319089.2396905,101.0324956104288,0.649482851793324,-8.946159649693922,-0.5744560086007692,1.3260387900808603,9.784056852033304,0.0023903366493838963,-0.007333613059379646,-0.06872233929727672,18.37690958283923,-35.81653738755537,-45.5625
1772319089.2903914,100.47907020128001,0.6202480644663345,-8.956083951870175,-0.5768269848175908,1.3235885771028282,9.806115571661392,0.005294513313114722,-0.010767890048580198,-0.10253809355466686,18.37690958283923,-35.81653738755537,-45.5625
1772319089.3276403,100.1101709031302,0.5997842860077423,-8.969052087621307,-0.5813069812283969,1.3354414488432524,9.760583392430092,0.0004162781476101553,-0.010735369426334606,-0.08617563181722002,19.322000132463582,-36.60547899059753,-45.5625
1772319089.3557637,100.1101709031302,0.5997842860077423,-8.969052087621307,-0.5813069812283969,1.3354414488432524,9.760583392430092,0.0004162781476101553,-0.010735369426334606,-0.08617563181722002,19.322000132463582,-36.60547899059753,-45.5625
1772319089.40945,99.52562598232777,0.5750079966848601,-8.965162358189172,-0.562989296018387,1.3264784878107807,9.721259646876904,0.007749891206989802,-0.008345032776950709,-0.09272061651219876,18.00908470388245,-36.48492059232673,-46.375
1772319089.4823751,99.12605722302362,0.552025327291552,-8.978382977429552,-0.5287954957890321,1.3251078747373337,9.710802945803444,-0.0020065791240193314,-0.008279991532459528,-0.07090400086226964,18.00908470388245,-36.48492059232673,-46.375
1772319089.5302243,98.88321120456797,0.5174906682679405,-8.982028749202462,-0.513419907824654,1.339205072401376,9.713879463170018,0.026846553721397916,0.002260254160401532,-0.08072147790473774,16.719088609062,-37.119204696926545,-46.375
1772319089.585497,98.65944415042176,0.4901115318300651,-8.981561837619473,-0.5061894908616661,1.3471105991470838,9.695856180866608,0.007252311503765668,-0.00980525126437752,-0.08617563181722002,16.719088609062,-37.119204696926545,-46.375
1772319089.6194851,98.45027965033712,0.473673174897801,-8.982245309611526,-0.5164369179188589,1.3375119038021863,9.703932558070859,-0.021103241638427445,-0.01888527846981177,-0.0916297857297023,16.05722693469698,-35.773121815374765,-46.75
1772319089.6638498,98.24522496461456,0.4575778541015511,-8.983295309687795,-0.5052452757297559,1.3399800842167875,9.72603285541784,0.007284832126011259,-0.004927016098872954,-0.11017390903214205,16.05722693469698,-35.773121815374765,-46.75
1772319089.6899822,98.0507554068422,0.4309551047926781,-8.992553022773068,-0.5441018860630835,1.35240340728727,9.740740356425759,0.012211848224884213,0.0023578160271383046,-0.08835729338221293,15.247229292295952,-35.6838675756728,-45.5625
1772319089.7148194,97.8688363359137,0.4419318142688933,-8.992368152836498,-0.5519493357587308,1.3695269949552418,9.750528034052977,0.0017951950794229871,-0.02342853704332016,-0.08617563181722002,15.247229292295952,-35.6838675756728,-45.5625
1772319089.7730782,97.5917299072032,0.4495172398038185,-8.998214527049656,-0.5706053235527182,1.3855001440063828,9.733625842227132,0.004250572973298069,-0.021005679771690672,-0.10799224746714914,14.21474779737144,-35.42542132857595,-46.75
1772319089.8205612,97.36505552420893,0.45779413727714496,-9.02322108571669,-0.5828710847585536,1.418569289163644,9.722377622376888,0.009145068449925431,-0.01859908281118398,-0.13744467859455345,14.21474779737144,-35.42542132857595,-46.75
1772319089.8704233,97.04801910218669,0.4556522167763634,-9.00846440182872,-0.605943410330494,1.4481558936710928,9.714892057717398,0.0008325562952203106,-0.021470738852669213,-0.10581058590215622,14.711144053145203,-36.434983489739786,-47.1875
1772319089.902463,96.86763921014031,0.44716359908662306,-9.005099850441713,-0.5552567537077073,1.5003174665880903,9.716600721470382,0.006803512733909922,-0.003948117003547482,-0.08726646259971647,14.711144053145203,-36.434983489739786,-47.1875
1772319089.9489224,96.5431296157055,0.41417914865916383,-9.020003831879178,-0.5545458657103712,1.5187944016207444,9.717737818110969,-0.006901074600646693,-0.01068658849296622,-0.1308996938995747,13.901146410744175,-36.34572925003782,-48.375
1772319089.9852304,96.5431296157055,0.41417914865916383,-9.020003831879178,-0.5545458657103712,1.5187944016207444,9.717737818110969,-0.006901074600646693,-0.01068658849296622,-0.1308996938995747,13.901146410744175,-36.34572925003782,-48.375
1772319090.031064,96.22814853636017,0.3853070318578657,-9.015400432412495,-0.5156967562731798,1.4530421036450025,9.668317867613286,-0.015213586755351814,-0.013558244534451454,-0.10799224746714914,13.901146410744175,-36.34572925003782,-48.375
1772319090.100829,95.82837745018422,0.344519582401475,-9.039998590632466,-0.48541510544462757,1.400279088631239,9.635429442614099,0.02729535249125366,-0.003596880100428508,-0.08617563181722002,12.588230982163042,-36.22517085176702,-47.1875
1772319090.1595464,95.43744890655255,0.31718513825244476,-9.021668951370824,-0.4832741955108344,1.3563098865988987,9.640303456823473,0.0062571520973174,-0.012725688239231144,-0.11017390903214205,12.588230982163042,-36.22517085176702,-47.1875
1772319090.1920707,95.20042009837952,0.31222038027131555,-9.029979575097151,-0.5273561522833037,1.4575053458331229,9.643547058833505,0.03652172249679307,-0.010000374997851069,-0.12435470920459599,12.500840036862886,-36.75566620771233,-47.1875
1772319090.225965,95.20042009837952,0.31222038027131555,-9.029979575097151,-0.5273561522833037,1.4575053458331229,9.643547058833505,0.03652172249679307,-0.010000374997851069,-0.12435470920459599,12.500840036862886,-36.75566620771233,-47.1875
1772319090.2547116,94.96958739626709,0.3019112272314951,-9.041880217891316,-0.5777052575827977,1.5145177877602762,9.625634969493857,0.02092437821607669,-0.007945014940463348,-0.08726646259971647,12.500840036862886,-36.75566620771233,-47.1875
1772319090.286098,94.96958739626709,0.3019112272314951,-9.041880217891316,-0.5777052575827977,1.5145177877602762,9.625634969493857,0.02092437821607669,-0.007945014940463348,-0.08726646259971647,12.500840036862886,-36.75566620771233,-47.1875
1772319090.307531,94.56486246167871,0.3012387492172075,-9.0642250044793,-0.658493914504875,1.6410388822904158,9.590298892178234,0.0023090350937699186,-0.019529200973141064,-0.1265363707695889,11.547364662430377,-37.224484893720884,-46.75
1772319090.3281088,94.45295960813341,0.3137247668602877,-9.058467495594513,-0.6715282012346889,1.5514282638044667,9.566783127454535,0.008182429665722754,-0.016641284620533034,-0.09381144729469522,11.547364662430377,-37.224484893720884,-46.75
1772319090.3829854,94.2262638641213,0.30158577864017483,-9.055290762286127,-0.7466224105171899,1.6268773264012975,9.651486999938799,0.009723949708763543,-0.00494327640999575,-0.11017390903214205,10.268548334020794,-36.18175527958641,-47.1875
1772319090.4198005,93.95953279202702,0.2785590531275366,-9.06589480003404,-0.7605743870886038,1.6947998446225903,9.707856480872822,0.00917758907217102,-0.01372084764567941,-0.11017390903214205,10.268548334020794,-36.18175527958641,-47.1875
1772319090.466011,93.71799328169853,0.2826879455562993,-9.025254204025725,-0.7668574065723555,1.7414775225783135,9.50117658611174,-0.017122604012634372,-0.007203530570397282,-0.0818123086872342,11.387489127044557,-36.049457313965796,-47.5625
1772319090.4898636,93.71799328169853,0.2826879455562993,-9.025254204025725,-0.7668574065723555,1.7414775225783135,9.50117658611174,-0.017122604012634372,-0.007203530570397282,-0.0818123086872342,11.387489127044557,-36.049457313965796,-47.5625
1772319090.511742,93.56670664257166,0.27658544536515084,-9.021759969248057,-0.7370906669078512,1.7034980992071362,9.36363342491394,-0.01705756276814319,0.0025529397606118527,-0.06763150851478027,11.387489127044557,-36.049457313965796,-47.5625
1772319090.5768952,93.19940789632733,0.24563334557171773,-9.032370009158786,-0.6663991182449387,1.6808760383189194,9.526328477350862,0.008728790302315275,-0.00786371338484937,-0.13526301702956053,9.760972311836161,-36.84920683715686,-46.75
1772319090.6077113,93.01412757775938,0.22725076302080569,-9.001584968400836,-0.563266650985652,1.5517504368148956,9.634600217324815,-0.013190747320209686,-0.002839135419239644,-0.10471975511965978,9.760972311836161,-36.84920683715686,-46.75
1772319090.6616473,92.66718815367206,0.18416702880328076,-9.029467923675119,-0.5792638272738456,1.562127790821645,9.589574941046719,0.009291411250030591,0.003352975433586573,-0.10471975511965978,10.04140624549278,-36.71131898833082,-48.75
1772319090.7184458,92.33394090489641,0.16578344146154267,-9.016573794970075,-0.5177851827257182,1.3920234916638718,9.559611122648937,0.021438218230423623,-0.004045678870284256,-0.07963064712224129,10.04140624549278,-36.71131898833082,-48.75
1772319090.7337482,92.33394090489641,0.16578344146154267,-9.016573794970075,-0.5177851827257182,1.3920234916638718,9.559611122648937,0.021438218230423623,-0.004045678870284256,-0.07963064712224129,10.04140624549278,-36.71131898833082,-48.75
1772319090.7529967,92.13868132075095,0.15037949309950105,-9.016359905545642,-0.5019638455432344,1.3298526869663798,9.616608105491341,0.011167907885067559,-0.007879973695972167,-0.12435470920459599,9.038365614735289,-36.22945724150958,-47.5625
1772319090.7835064,91.87453166687996,0.1430618999303248,-9.024944848525854,-0.5004405175964101,1.2840507084625035,9.667919407704222,0.015532303036225195,-0.011811830388396853,-0.09381144729469522,9.038365614735289,-36.22945724150958,-47.5625
1772319090.861046,91.48704379214684,0.17063200111640087,-9.037838113282495,-0.5215667722199311,1.2985979794708087,9.70875672955673,0.01057276631510665,-0.02397489767991268,-0.13199052468207118,6.859365757021804,-36.04722217330202,-48.75
1772319090.880576,91.29690605098884,0.186815600996947,-9.035184280533343,-0.5754780809159566,1.3893293827329898,9.7359335110668,0.023330975176583384,-0.012839510417090711,-0.10581058590215622,6.859365757021804,-36.04722217330202,-48.75
1772319090.9279447,91.03830498892165,0.1841467134798922,-9.024246955592462,-0.571503432384584,1.368659761157968,9.754019355577212,-0.011379291929663905,-0.023828554879807517,-0.10362892433716332,6.859365757021804,-36.04722217330202,-47.5625
1772319091.0278683,90.31741202941457,0.168872398659878,-8.999261746639373,-0.5616909818801138,1.3422006430930893,9.857633751078861,0.006208371163949013,-0.020043040987487996,-0.1505346479845109,6.657006296656283,-37.05212609846132,-48.0
1772319091.0754263,90.06872813582511,0.1634484900758956,-8.98250639540747,-0.5788634615889262,1.3254382413772199,9.835009505824479,0.00917758907217102,-0.01372084764567941,-0.12762720155208535,6.657006296656283,-37.05212609846132,-48.0
1772319091.1098154,90.06872813582511,0.1634484900758956,-8.98250639540747,-0.5788634615889262,1.3254382413772199,9.835009505824479,0.00917758907217102,-0.01372084764567941,-0.12762720155208535,6.657006296656283,-37.05212609846132,-48.0
1772319091.1356385,89.77925743288068,0.15633129973846477,-8.981357247119325,-0.5947195574770621,1.3232886454958068,9.756396200897997,0.016494941820427874,-0.013769628579047798,-0.11562806294462433,5.714710688634643,-35.843931065735596,-48.0
1772319091.1500857,89.43967474553622,0.1438976103751407,-8.964564992577907,-0.5660479125535115,1.3709650480179951,9.70073481293026,0.010589026626229445,-0.021535780097160395,-0.10362892433716332,5.714710688634643,-35.843931065735596,-48.0
1772319091.190215,89.43967474553622,0.1438976103751407,-8.964564992577907,-0.5660479125535115,1.3709650480179951,9.70073481293026,0.010589026626229445,-0.021535780097160395,-0.10362892433716332,5.714710688634643,-35.843931065735596,-48.0
