timestamp,yaw,pitch,roll,ax,ay,az,gx,gy,gz,mx,my,mz
1774558570.3374753,0.0,0.0,0.0,-0.12252608887884275,-1.212904472944851,6.593995402034055,-0.001090830782496456,0.001090830782496456,0.0,20.0,17.875,-24.5625
1774558570.7134879,-0.06526369026161559,0.8508132914952685,-8.77314991475887,-0.12335282161931112,-1.4064880598531209,8.831714415161636,0.0,0.003272492347489368,-0.001090830782496456,18.875,19.0,-15.375
1774558570.9873734,0.0,0.0,0.0,-0.14711497858712624,-1.465276087211696,9.37899117248635,-0.001090830782496456,0.002181661564992912,-0.003272492347489368,18.5,17.875,-16.5625
1774558571.0298247,-0.06526369026161559,0.8508132914952685,-8.77314991475887,-0.15477027389217213,-1.4835818473455442,9.503097769729825,-0.001090830782496456,0.0,0.0,18.5,17.875,-16.5625
1774558571.328882,49.56535408977187,0.8531985718952401,-8.775553916076346,-0.1598647874024284,-1.4957641262258807,9.585689323833828,-0.001090830782496456,0.002181661564992912,0.002181661564992912,19.1875,18.6875,-15.375
1774558571.356528,0.0,0.0,0.0,-0.14652957069746225,-1.5038712967357728,9.64065308048193,0.0,0.0,0.001090830782496456,19.1875,18.6875,-15.375
1774558571.3739443,49.774960874079255,0.8534419243727877,-8.77377247358175,-0.15438069148103534,-1.4958860813177999,9.677230846545852,-0.001090830782496456,0.001090830782496456,0.0,19.5625,17.1875,-16.1875
1774558571.41286,49.774960874079255,0.8534419243727877,-8.77377247358175,-0.15626041295241816,-1.5039524564871174,9.694882717846333,0.0,0.002181661564992912,-0.002181661564992912,19.5625,17.1875,-16.1875
1774558571.6187563,0.0,0.0,0.0,-0.15751134659375876,-1.495940092225706,9.70328472930516,0.0,0.0,0.0,20.0,17.1875,-15.0
1774558571.658535,0.0,0.0,0.0,-0.13158293529967147,-1.5006432884356682,9.708876174074392,0.003272492347489368,-0.001090830782496456,-0.009817477042468103,20.0,17.1875,-15.0
1774558571.6800559,49.99165775571137,0.8573189156604513,-8.778123527122963,-0.11432786722278854,-1.503773212975254,9.669110765912633,-0.00545415391248228,-0.009817477042468103,0.00545415391248228,20.0,17.1875,-15.0
1774558571.7067358,50.00692687551533,0.8585121980981012,-8.777975850311764,-0.1262605941205987,-1.5058561427928001,9.796522469526389,0.00545415391248228,0.002181661564992912,0.013089969389957472,20.0,17.1875,-15.0
1774558571.936786,0.0,0.0,0.0,-0.13420169057379788,-1.493861862489249,9.898039093535953,-0.007635815477475192,-0.028361600344907856,0.03381575425739013,20.0,17.1875,-15.0
1774558571.9733064,0.0,0.0,0.0,-0.13420169057379788,-1.493861862489249,9.898039093535953,-0.007635815477475192,-0.028361600344907856,0.03381575425739013,20.0,17.1875,-15.0
1774558571.996816,0.0,0.0,0.0,-0.15621196009213908,-1.4858798029321258,9.985667943043241,0.001090830782496456,0.003272492347489368,-0.015271630954950384,18.875,16.75,-16.1875
1774558572.0151255,50.17619397218282,0.8590095771131733,-8.782313088992945,-0.09057686761010927,-1.4772227197549885,10.043983963511954,0.001090830782496456,-0.009817477042468103,0.017453292519943295,18.875,16.75,-16.1875
1774558572.3115942,50.17619397218282,0.8590095771131733,-8.782313088992945,-0.09057686761010927,-1.4772227197549885,10.043983963511954,0.001090830782496456,-0.009817477042468103,0.017453292519943295,18.875,16.75,-16.1875
1774558572.3647454,0.0,0.0,0.0,-0.07031322870657798,-1.5149479798017111,10.072757288579291,0.0,-0.002181661564992912,0.0,19.1875,17.5625,-17.0
1774558572.3865411,50.390589497292986,0.8974471407107898,-8.778182515185453,-0.0568280033759562,-1.5400537189440378,10.078525168163225,0.003272492347489368,0.004363323129985824,-0.00545415391248228,19.1875,17.5625,-17.0
1774558572.6604934,50.390589497292986,0.8974471407107898,-8.778182515185453,-0.06457929509486161,-1.556761307893774,10.082363627594896,-0.001090830782496456,0.004363323129985824,0.003272492347489368,19.1875,17.5625,-17.0
1774558572.6822858,0.0,0.0,0.0,-0.08646325168278812,-1.5177033460940355,9.964494058004775,0.0,0.007635815477475192,0.0,19.5625,17.5625,-16.5625
1774558572.7122319,50.55346778918382,0.894301027132959,-8.776486641884157,-0.11440722716151795,-1.4917107088223307,9.829186277107485,0.002181661564992912,-0.003272492347489368,0.002181661564992912,19.5625,17.5625,-16.5625
1774558573.003069,50.55346778918382,0.894301027132959,-8.776486641884157,-0.11440722716151795,-1.4917107088223307,9.829186277107485,0.002181661564992912,-0.003272492347489368,0.002181661564992912,19.5625,17.5625,-16.5625
1774558573.0327015,0.0,0.0,0.0,-0.1330036306879533,-1.487793345904072,9.739140460407288,0.001090830782496456,0.002181661564992912,0.003272492347489368,20.0,17.5625,-16.5625
1774558573.0704784,50.67911665180976,0.8880796797828704,-8.77544754037834,-0.13868910608471843,-1.4851863846417819,9.722702427466139,0.0,-0.004363323129985824,0.001090830782496456,20.0,17.5625,-16.5625
1774558573.0888956,50.62400332096307,0.8932802165356791,-8.779081925558774,-0.13912761474302465,-1.4834514810433932,9.718453323583304,0.001090830782496456,0.002181661564992912,0.001090830782496456,19.5625,19.375,-15.75
1774558573.394985,0.0,0.0,0.0,-0.13941943735666476,-1.4822969220788087,9.715625592414877,-0.004363323129985824,0.00545415391248228,-0.006544984694978736,19.5625,19.375,-15.75
1774558573.4813614,50.69494341906495,0.8799828074161116,-8.771930306736417,-0.12623319521689252,-1.4748383525705075,9.713743768910117,0.0,0.0,0.001090830782496456,19.5625,17.1875,-15.0
1774558573.5727687,50.67049986657177,0.8875729042840343,-8.775269481556252,-0.1676345739826411,-1.4598394227584557,9.709146324681726,0.0,0.001090830782496456,-0.001090830782496456,20.0,19.0,-13.375
1774558573.6119452,50.64892533203136,0.8764029409066335,-8.772360688371453,-0.11490404809187746,-1.4431675791029206,9.706086776904547,0.003272492347489368,-0.002181661564992912,0.003272492347489368,20.0,19.0,-13.375
1774558573.700695,50.63971006325659,0.882199038958219,-8.76917569403902,-0.11217188217145094,-1.4302603504424543,9.708314209799275,-0.003272492347489368,-0.00545415391248228,0.002181661564992912,20.0,19.0,-14.5625
1774558573.7546911,50.64892533203136,0.8764029409066335,-8.772360688371453,-0.11144536332358707,-1.4301732603111483,9.68880745520901,-0.001090830782496456,0.001090830782496456,0.0,20.25,18.25,-13.75
1774558573.8173244,50.56304957745514,0.8762347278239746,-8.769897221733437,-0.09392637729030706,-1.4635042098136302,9.706185589813865,0.0,-0.001090830782496456,-0.002181661564992912,18.875,19.0,-13.375
1774558573.8936062,50.56304957745514,0.8762347278239746,-8.769897221733437,-0.10933851876278808,-1.4723673476083405,9.7108066643382,0.0,0.0,-0.003272492347489368,19.1875,17.875,-13.75
1774558573.9227798,50.56304957745514,0.8762347278239746,-8.769897221733437,-0.1195951267478232,-1.4749205550956646,9.703846602691403,-0.002181661564992912,0.001090830782496456,-0.002181661564992912,19.1875,17.875,-13.75
1774558573.9724715,50.56304957745514,0.8762347278239746,-8.769897221733437,-0.1264207847880457,-1.4766196861572822,9.689179424292483,-0.001090830782496456,-0.002181661564992912,0.002181661564992912,20.0,18.6875,-14.1875
1774558573.992047,-0.08188438356837363,0.8762225253555815,-8.769775563494077,-0.1264207847880457,-1.4766196861572822,9.689179424292483,-0.001090830782496456,-0.002181661564992912,0.002181661564992912,20.0,18.6875,-14.1875
1774558574.038309,-0.08819252612915922,0.8757617617717989,-8.770052153013374,-1.2205075323461219,-0.8315833551843383,9.689453916033079,0.0,0.0,0.0,20.0,18.6875,-14.1875
1774558574.0726488,-0.09747500993676673,0.8750244682594664,-8.769867825344535,-1.228513968280087,-0.8212615005504156,9.679601252098214,0.00015172548388107002,0.001535188252177796,0.001090830782496456,26.854848518906326,-3.2758469937704193,-14.1875
1774558574.096728,-0.09747500993676673,0.8750244682594664,-8.769867825344535,-1.2248919069261606,-0.8200307421099579,9.679734637725668,-0.002226919636326159,0.000995182351910503,0.0,26.854848518906326,-3.2758469937704193,-14.1875
1774558574.1247742,-0.1917539293107953,0.8771139617917756,-8.773756564398811,-1.2123405204689794,-0.8368520605202824,9.679823404370723,0.002530370604088299,0.002075194152445089,-0.002181661564992912,26.854848518906326,-3.2758469937704193,-14.1875
1774558574.1794014,-0.23898448718009402,0.8798290205392465,-8.771063268116043,-1.203987712989899,-0.8480464600159145,9.679882477581419,-0.000843456868029433,-0.000691731384148363,0.001090830782496456,26.85868137939271,-2.787721436991744,-14.5625
1774558574.2040765,-0.2988409511365551,0.8816242083179316,-8.768924352591595,-1.212087034065016,-0.8493926101146225,9.689957125265204,0.00015172548388107002,0.001535188252177796,0.001090830782496456,26.85868137939271,-2.787721436991744,-14.5625
1774558574.2272673,-0.2988409511365551,0.8816242083179316,-8.768924352591595,-1.212087034065016,-0.8493926101146225,9.689957125265204,0.00015172548388107002,0.001535188252177796,0.001090830782496456,26.85868137939271,-2.787721436991744,-14.5625
1774558574.2841496,-0.2988409511365551,0.8816242083179316,-8.768924352591595,-1.2207889762796456,-0.835699882421854,9.6665556853917,-0.002378645120207229,-0.000540005900267293,-0.001090830782496456,26.31839644338824,-3.3116474221524803,-13.375
1774558574.3175,-0.39284147795134094,0.8807503356708218,-8.766506265825095,-1.2218722555011763,-0.8270528023003597,9.661017623689053,0.00015172548388107002,0.001535188252177796,0.002181661564992912,26.31839644338824,-3.3116474221524803,-13.375
1774558574.3518198,-0.39284147795134094,0.8807503356708218,-8.766506265825095,-1.2247144101795775,-0.8187117454159721,9.650641882075506,-0.000691731384148363,0.000843456868029433,-0.001090830782496456,27.80604745174898,-4.435683443516244,-14.1875
1774558574.4071765,-0.39284147795134094,0.8807503356708218,-8.766506265825095,-1.2247144101795775,-0.8187117454159721,9.650641882075506,-0.000691731384148363,0.000843456868029433,-0.001090830782496456,27.80604745174898,-4.435683443516244,-14.1875
1774558574.4377918,-0.4459270754744518,0.8766952624456189,-8.767049316560115,-1.229657631227105,-0.8199898758078588,9.650427165350957,-0.000691731384148363,0.000843456868029433,-0.002181661564992912,27.80604745174898,-4.435683443516244,-14.1875
1774558574.5218291,-0.4459270754744518,0.8766952624456189,-8.767049316560115,-1.2244623117848596,-0.8311865439369953,9.643594050354674,-0.000540005900267293,0.002378645120207229,0.003272492347489368,26.793995909809567,-3.891565647025391,-14.1875
1774558574.5681682,-0.4459270754744518,0.8766952624456189,-8.767049316560115,-1.2210048847315662,-0.8386378015019575,9.652427135484821,0.001686913736058866,0.001383462768296726,-0.001090830782496456,26.793995909809567,-3.891565647025391,-14.1875
1774558574.6215668,-0.4459270754744518,0.8766952624456189,-8.767049316560115,-1.2071672289616129,-0.8471136062336911,9.634889673015671,0.001838639219939936,0.0029186510204745222,0.001090830782496456,27.22996208736245,-4.423157353158895,-14.5625
1774558574.6796093,-0.4459270754744518,0.8766952624456189,-8.767049316560115,-1.2257397431146484,-0.8452547302849603,9.64663446959998,0.000691731384148363,-0.000843456868029433,-0.002181661564992912,27.22996208736245,-4.423157353158895,-14.5625
1774558574.7317529,-0.4459270754744518,0.8766952624456189,-8.767049316560115,-1.2380995438149165,-0.844017669106085,9.654450500528863,0.002378645120207229,0.000540005900267293,-0.002181661564992912,26.617048785695662,-2.985887881333963,-14.5625
1774558574.8661847,-0.4459270754744518,0.8766952624456189,-8.767049316560115,-1.2466256612525295,-0.8384040658534292,9.663113509483669,0.0,0.0,-0.003272492347489368,26.66051493505049,-2.5460888432946978,-14.1875
1774558574.9340317,-0.4459270754744518,0.8766952624456189,-8.767049316560115,-1.2468258457091894,-0.835216139538848,9.658726894073883,-0.001535188252177796,0.00015172548388106997,-0.002181661564992912,26.66051493505049,-2.5460888432946978,-14.1875
1774558574.9808755,-0.4459270754744518,0.8766952624456189,-8.767049316560115,-1.2469590662288896,-0.8330946101879645,9.655807650520375,-0.000843456868029433,-0.000691731384148363,0.001090830782496456,26.950474047486946,-2.3082891100840346,-13.375
1774558575.0169442,-0.4459270754744518,0.8766952624456189,-8.767049316560115,-1.2402187124238437,-0.8347345549619868,9.653864926545602,-0.001535188252177796,0.00015172548388106997,-0.001090830782496456,26.950474047486946,-2.3082891100840346,-13.375
1774558575.0720978,-0.4459270754744518,0.8766952624456189,-8.767049316560115,-1.235733082261271,-0.8358259198897152,9.655917177149359,-0.001686913736058866,-0.001383462768296726,0.0,26.278763154519797,-3.2633209034130704,-14.5625
1774558575.1354573,-0.4459270754744518,0.8766952624456189,-8.767049316560115,-1.23699043441084,-0.8313791677422794,9.657282927001019,-0.003222101988236662,-0.001231737284415656,0.002181661564992912,26.278763154519797,-3.2633209034130704,-14.5625
1774558575.1735437,-0.4459270754744518,0.8766952624456189,-8.767049316560115,-1.2326541449053403,-0.8241774149466482,9.661536929978192,-0.001383462768296726,0.001686913736058866,-0.002181661564992912,26.854848518906326,-3.2758469937704193,-14.1875
1774558575.1942127,-0.4459270754744518,0.8766952624456189,-8.767049316560115,-1.229768392678958,-0.8193847289100056,9.664367921439174,-0.002226919636326159,0.000995182351910503,0.0,26.854848518906326,-3.2758469937704193,-14.1875
1774558575.223113,-0.4459270754744518,0.8766952624456189,-8.767049316560115,-1.229768392678958,-0.8193847289100056,9.664367921439174,-0.002226919636326159,0.000995182351910503,0.0,26.854848518906326,-3.2758469937704193,-14.1875
1774558575.3372724,-0.4459270754744518,0.8766952624456189,-8.767049316560115,-1.22907528294424,-0.8233325790412307,9.676422048945106,-0.00015172548388107002,-0.001535188252177796,-0.002181661564992912,26.793995909809567,-3.891565647025391,-15.0
1774558575.388365,-0.4459270754744518,0.8766952624456189,-8.767049316560115,-1.22102296664987,-0.8265820650256267,9.68096402524862,0.001383462768296726,-0.001686913736058866,0.0,27.148640491829166,-2.549921703781081,-15.0
1774558575.4413848,-0.4459270754744518,0.8766952624456189,-8.767049316560115,-1.2234238050794746,-0.8351082950215888,9.67395132461945,-0.000540005900267293,0.002378645120207229,0.0,27.148640491829166,-2.549921703781081,-15.0
1774558575.4712179,-0.4459270754744518,0.8766952624456189,-8.767049316560115,-1.225021536235254,-0.8407824058396718,9.669284450687737,0.001535188252177796,-0.00015172548388106997,-0.001090830782496456,26.516562887730462,-3.5532800158495266,-15.375
1774558575.5174153,-0.4459270754744518,0.8766952624456189,-8.767049316560115,-1.2260848084715985,-0.8445584632051351,9.666178698218578,0.00015172548388107002,0.001535188252177796,-0.001090830782496456,26.516562887730462,-3.5532800158495266,-15.375
1774558575.5648203,-0.4459270754744518,0.8766952624456189,-8.767049316560115,-1.2242058826096098,-0.8449501427430317,9.667456966351201,-0.001838639219939936,-0.0029186510204745222,-0.001090830782496456,26.617048785695662,-2.985887881333963,-14.1875
1774558575.6130197,-0.4459270754744518,0.8766952624456189,-8.767049316560115,-1.2229554784374335,-0.8452108011001549,9.661617416099633,0.0,0.0,-0.001090830782496456,26.617048785695662,-2.985887881333963,-14.1875
1774558575.6550796,-0.4459270754744518,0.8766952624456189,-8.767049316560115,-1.2242445928862744,-0.8427977446673287,9.654386148931945,0.000691731384148363,-0.000843456868029433,0.001090830782496456,25.842796976966916,-2.731729197279568,-13.75
1774558575.6928155,-0.4459270754744518,0.8766952624456189,-8.767049316560115,-1.2272237286091205,-0.8386053609091425,9.649573821410396,0.001383462768296726,-0.001686913736058866,-0.002181661564992912,25.842796976966916,-2.731729197279568,-13.75
1774558575.7153735,-0.4459270754744518,0.8766952624456189,-8.767049316560115,-1.2317928318112952,-0.8379366208075592,9.649716382909345,0.001535188252177796,-0.00015172548388106997,0.001090830782496456,26.617048785695662,-2.985887881333963,-14.5625
1774558575.7572975,-0.4459270754744518,0.8766952624456189,-8.767049316560115,-1.2317928318112952,-0.8379366208075592,9.649716382909345,0.001535188252177796,-0.00015172548388106997,0.001090830782496456,26.617048785695662,-2.985887881333963,-14.5625
1774558575.7885542,-0.4459270754744518,0.8766952624456189,-8.767049316560115,-1.2296604756366212,-0.8332490928252829,9.656501479409018,0.003222101988236662,0.001231737284415656,-0.001090830782496456,26.617048785695662,-2.985887881333963,-14.5625
1774558575.8218145,-0.4459270754744518,0.8766952624456189,-8.767049316560115,-1.233414459737849,-0.8343720842311856,9.664361997042375,-0.001686913736058866,-0.001383462768296726,-0.002181661564992912,27.132281540985435,-3.6141326249462837,-14.1875
1774558575.8713713,-0.4459270754744518,0.8766952624456189,-8.767049316560115,-1.2333261725647187,-0.8329981780096833,9.66959308371964,0.00015172548388107002,0.001535188252177796,0.0,27.132281540985435,-3.6141326249462837,-14.1875
1774558575.9061468,-0.4459270754744518,0.8766952624456189,-8.767049316560115,-1.2375099073522218,-0.8269108154513176,9.676419425175611,0.0,0.0,0.002181661564992912,25.79063759774112,-3.259488042926687,-14.1875
1774558575.9349713,-0.4459270754744518,0.8766952624456189,-8.767049316560115,-1.2287573594299481,-0.8263768197272728,9.677617167452011,-0.000540005900267293,0.002378645120207229,-0.002181661564992912,25.79063759774112,-3.259488042926687,-14.1875
1774558575.9630978,-0.4459270754744518,0.8766952624456189,-8.767049316560115,-1.2287573594299481,-0.8263768197272728,9.677617167452011,-0.000540005900267293,0.002378645120207229,-0.002181661564992912,25.79063759774112,-3.259488042926687,-14.1875
1774558575.993092,-0.4459270754744518,0.8766952624456189,-8.767049316560115,-1.2271751254750305,-0.8208484082225501,9.695139810093893,-0.000691731384148363,0.000843456868029433,-0.00545415391248228,26.50403679737311,-4.129365380236054,-13.75
1774558576.0163715,-0.4459270754744518,0.8766952624456189,-8.767049316560115,-1.2240009219952497,-0.819755833780307,9.66331448083617,-0.002378645120207229,-0.000540005900267293,0.001090830782496456,26.50403679737311,-4.129365380236054,-13.75
1774558576.0586314,-0.4459270754744518,0.8766952624456189,-8.767049316560115,-1.2317693344683671,-0.8228059494085869,9.662205749971294,-0.00015172548388107002,-0.001535188252177796,0.0,27.132281540985435,-3.6141326249462837,-14.5625
1774558576.0810945,-0.4459270754744518,0.8766952624456189,-8.767049316560115,-1.2317693344683671,-0.8228059494085869,9.662205749971294,-0.00015172548388107002,-0.001535188252177796,0.0,27.132281540985435,-3.6141326249462837,-14.5625
1774558576.0987613,-0.4459270754744518,0.8766952624456189,-8.767049316560115,-1.2270583167596383,-0.8210585555724468,9.661467901966054,-0.000691731384148363,0.000843456868029433,0.0,27.132281540985435,-3.6141326249462837,-14.5625
1774558576.1487985,-0.4459270754744518,0.8766952624456189,-8.767049316560115,-1.2410982843037188,-0.8253288634661418,9.671012207482827,0.002530370604088299,0.002075194152445089,-0.003272492347489368,27.132281540985435,-3.6141326249462837,-14.5625
1774558576.1750362,-0.4459270754744518,0.8766952624456189,-8.767049316560115,-1.2393702263798658,-0.8363955478404245,9.67736383618736,0.000843456868029433,0.000691731384148363,-0.001090830782496456,26.952529065283343,-4.084871721983029,-14.5625
1774558576.2100265,-0.4459270754744518,0.8766952624456189,-8.767049316560115,-1.2382202231352135,-0.8437603026685452,9.681590774137888,-0.000691731384148363,0.000843456868029433,0.0,26.952529065283343,-4.084871721983029,-14.5625
1774558576.2581897,-0.4459270754744518,0.8766952624456189,-8.767049316560115,-1.2374549088222755,-0.8486614647369576,9.684403754125972,-0.000540005900267293,0.002378645120207229,-0.001090830782496456,26.952529065283343,-4.084871721983029,-15.0
1774558576.275327,-0.4459270754744518,0.8766952624456189,-8.767049316560115,-1.2374549088222755,-0.8486614647369576,9.684403754125972,-0.000540005900267293,0.002378645120207229,-0.001090830782496456,26.952529065283343,-4.084871721983029,-15.0
1774558576.292412,-0.4459270754744518,0.8766952624456189,-8.767049316560115,-1.2334285246378842,-0.840386356655941,9.686275760884996,0.000843456868029433,0.000691731384148363,-0.001090830782496456,26.952529065283343,-4.084871721983029,-15.0
1774558576.309627,-0.4459270754744518,0.8766952624456189,-8.767049316560115,-1.2307490109408301,-0.8348793646670385,9.687521560471442,0.000995182351910503,0.002226919636326159,-0.003272492347489368,26.952529065283343,-4.084871721983029,-15.0
1774558576.3395753,-0.4459270754744518,0.8766952624456189,-8.767049316560115,-1.2307490109408301,-0.8348793646670385,9.687521560471442,0.000995182351910503,0.002226919636326159,-0.003272492347489368,26.952529065283343,-4.084871721983029,-15.0
1774558576.364936,-0.4459270754744518,0.8766952624456189,-8.767049316560115,-1.2341388678230638,-0.8354570119305442,9.67162506764313,-0.001535188252177796,0.00015172548388106997,0.003272492347489368,26.418882341353445,-2.744255287636917,-14.1875
1774558576.3930929,-0.4459270754744518,0.8766952624456189,-8.767049316560115,-1.2385160241685023,-0.8332549080739174,9.66104612924135,0.001686913736058866,0.001383462768296726,-0.002181661564992912,26.418882341353445,-2.744255287636917,-14.1875
1774558576.423672,-0.4459270754744518,0.8766952624456189,-8.767049316560115,-1.2336694078471102,-0.8254256991839609,9.654005963909452,0.0,0.0,0.001090830782496456,26.418882341353445,-2.744255287636917,-14.1875
1774558576.46567,-0.4459270754744518,0.8766952624456189,-8.767049316560115,-1.2304440388254756,-0.8202154481256886,9.65935614764683,-0.004065558856266095,-0.001923468668564019,0.0,26.662569952846887,-4.322671455193692,-15.0
1774558576.4931715,-0.4459270754744518,0.8766952624456189,-8.767049316560115,-1.2304440388254756,-0.8202154481256886,9.65935614764683,-0.004065558856266095,-0.001923468668564019,0.0,26.662569952846887,-4.322671455193692,-15.0
1774558576.5419455,-0.4459270754744518,0.8766952624456189,-8.767049316560115,-1.2334706350868048,-0.8209905731637153,9.662916635158588,-0.000843456868029433,-0.000691731384148363,-0.002181661564992912,26.662569952846887,-4.322671455193692,-15.0
1774558576.588055,-0.4459270754744518,0.8766952624456189,-8.767049316560115,-1.2333635566319292,-0.824092931875555,9.66863121153173,-0.000691731384148363,0.000843456868029433,0.0,26.662569952846887,-4.322671455193692,-14.5625
1774558576.6284995,-0.4459270754744518,0.8766952624456189,-8.767049316560115,-1.233292297116354,-0.8261575169426666,9.665743974857417,-0.001686913736058866,-0.001383462768296726,0.001090830782496456,26.662569952846887,-4.322671455193692,-14.5625
1774558576.6529226,-0.4459270754744518,0.8766952624456189,-8.767049316560115,-1.2379526408200014,-0.8270661980416506,9.670512774517846,0.00015172548388107002,0.001535188252177796,0.0,27.290814696459208,-3.807438699903922,-13.75
1774558576.6694098,-0.4459270754744518,0.8766952624456189,-8.767049316560115,-1.2410540474953284,-0.8276709151623914,9.66699613400624,0.000691731384148363,-0.000843456868029433,-0.001090830782496456,27.290814696459208,-3.807438699903922,-13.75
1774558576.6907616,-0.4459270754744518,0.8766952624456189,-8.767049316560115,-1.2410540474953284,-0.8276709151623914,9.66699613400624,0.000691731384148363,-0.000843456868029433,-0.001090830782496456,27.290814696459208,-3.807438699903922,-13.75
1774558576.7050083,-0.4459270754744518,0.8766952624456189,-8.767049316560115,-1.2341677439625456,-0.8337116681668582,9.678036295858494,0.0,0.0,-0.001090830782496456,27.290814696459208,-3.807438699903922,-13.75
1774558576.724708,-0.4459270754744518,0.8766952624456189,-8.767049316560115,-1.2341677439625456,-0.8337116681668582,9.678036295858494,0.0,0.0,-0.001090830782496456,27.290814696459208,-3.807438699903922,-13.75
1774558576.7445376,-0.4459270754744518,0.8766952624456189,-8.767049316560115,-1.2295849858865295,-0.8377317218116984,9.68538340024448,0.000843456868029433,0.000691731384148363,0.0,26.793995909809567,-3.891565647025391,-14.5625
1774558576.772029,-0.4459270754744518,0.8766952624456189,-8.767049316560115,-1.2307777004946916,-0.8352339792899038,9.69027281614082,-0.001383462768296726,0.001686913736058866,0.001090830782496456,26.793995909809567,-3.891565647025391,-14.5625
1774558576.797107,-0.4459270754744518,0.8766952624456189,-8.767049316560115,-1.2307777004946916,-0.8352339792899038,9.69027281614082,-0.001383462768296726,0.001686913736058866,0.001090830782496456,26.793995909809567,-3.891565647025391,-14.5625
1774558576.8436096,-0.4459270754744518,0.8766952624456189,-8.767049316560115,-1.2431082154309057,-0.8300546834850095,9.68683644438684,0.001686913736058866,0.001383462768296726,-0.002181661564992912,26.278763154519797,-3.2633209034130704,-14.1875
1774558576.8749182,-0.4459270754744518,0.8766952624456189,-8.767049316560115,-1.2513140353800791,-0.8266079199833775,9.684549577371355,0.000843456868029433,0.000691731384148363,0.0,26.278763154519797,-3.2633209034130704,-14.1875
1774558576.898876,-0.4459270754744518,0.8766952624456189,-8.767049316560115,-1.2482899390612614,-0.8346602240069005,9.676337469503888,0.000691731384148363,-0.000843456868029433,0.001090830782496456,26.854848518906326,-3.2758469937704193,-15.0
1774558576.91821,-0.4459270754744518,0.8766952624456189,-8.767049316560115,-1.2482899390612614,-0.8346602240069005,9.676337469503888,0.000691731384148363,-0.000843456868029433,0.001090830782496456,26.854848518906326,-3.2758469937704193,-15.0
1774558576.9541502,-0.4459270754744518,0.8766952624456189,-8.767049316560115,-1.2462774367424574,-0.8400189423844254,9.674217515160665,0.001686913736058866,0.001383462768296726,0.0,26.854848518906326,-3.2758469937704193,-15.0
1774558576.983872,-0.4459270754744518,0.8766952624456189,-8.767049316560115,-1.2371785739571763,-0.8372213762313783,9.672806709226691,-0.00015172548388107002,-0.001535188252177796,0.002181661564992912,26.952529065283343,-4.084871721983029,-14.1875
1774558577.006963,-0.4459270754744518,0.8766952624456189,-8.767049316560115,-1.2410041918452641,-0.8391368389221232,9.681903168759325,0.000995182351910503,0.002226919636326159,-0.004363323129985824,26.952529065283343,-4.084871721983029,-14.1875
1774558577.050495,-0.4459270754744518,0.8766952624456189,-8.767049316560115,-1.233204011183847,-0.8319265801157161,9.687956760964182,0.000843456868029433,0.000691731384148363,0.001090830782496456,26.952529065283343,-4.084871721983029,-14.1875
1774558577.0755727,-0.4459270754744518,0.8766952624456189,-8.767049316560115,-1.2357726430606417,-0.8334919667964037,9.665224465294903,0.000843456868029433,0.000691731384148363,-0.004363323129985824,26.854848518906326,-3.2758469937704193,-13.75
1774558577.11365,-0.4459270754744518,0.8766952624456189,-8.767049316560115,-1.2357726430606417,-0.8334919667964037,9.665224465294903,0.000843456868029433,0.000691731384148363,-0.004363323129985824,26.854848518906326,-3.2758469937704193,-13.75
1774558577.143276,-0.4459270754744518,0.8766952624456189,-8.767049316560115,-1.2348955172234037,-0.832412469688392,9.65009637646338,0.001535188252177796,-0.00015172548388106997,-0.001090830782496456,26.854848518906326,-3.2758469937704193,-13.75
1774558577.168876,-0.4459270754744518,0.8766952624456189,-8.767049316560115,-1.2343117997768593,-0.831694076421783,9.66344458428906,-0.002378645120207229,-0.000540005900267293,0.001090830782496456,26.418882341353445,-2.744255287636917,-14.5625
1774558577.2077436,-0.4459270754744518,0.8766952624456189,-8.767049316560115,-1.2343117997768593,-0.831694076421783,9.66344458428906,-0.002378645120207229,-0.000540005900267293,0.001090830782496456,26.418882341353445,-2.744255287636917,-14.5625
1774558577.239172,-0.4459270754744518,0.8766952624456189,-8.767049316560115,-1.2339233423367353,-0.8312159937278333,9.679017890902438,0.000843456868029433,0.000691731384148363,0.003272492347489368,26.418882341353445,-2.744255287636917,-14.5625
1774558577.2666397,-0.4459270754744518,0.8766952624456189,-8.767049316560115,-1.2247145732194562,-0.83653615555129,9.692726864195727,0.000843456868029433,0.000691731384148363,0.0,27.663873247118936,-3.1781664473934015,-14.5625
1774558577.290731,-0.4459270754744518,0.8766952624456189,-8.767049316560115,-1.2228287291555873,-0.8349036204992049,9.701850032783145,0.001383462768296726,-0.001686913736058866,-0.004363323129985824,27.663873247118936,-3.1781664473934015,-14.5625
1774558577.3186667,-0.4459270754744518,0.8766952624456189,-8.767049316560115,-1.212158188766858,-0.8347477410591586,9.707921399565603,0.000843456868029433,0.000691731384148363,0.001090830782496456,27.663873247118936,-3.1781664473934015,-14.5625
1774558577.3511355,-0.4459270754744518,0.8766952624456189,-8.767049316560115,-1.212158188766858,-0.8347477410591586,9.707921399565603,0.000843456868029433,0.000691731384148363,0.001090830782496456,27.663873247118936,-3.1781664473934015,-14.5625
1774558577.3962278,-0.4459270754744518,0.8766952624456189,-8.767049316560115,-1.214472595566388,-0.8337134506325903,9.708616714630397,0.002378645120207229,0.000540005900267293,-0.003272492347489368,26.793995909809567,-3.891565647025391,-13.375
1774558577.4177008,-0.4459270754744518,0.8766952624456189,-8.767049316560115,-1.2185993290956043,-0.8351463863649846,9.70907943903884,0.000843456868029433,0.000691731384148363,-0.003272492347489368,26.793995909809567,-3.891565647025391,-13.375
1774558577.4395664,-0.4459270754744518,0.8766952624456189,-8.767049316560115,-1.2185993290956043,-0.8351463863649846,9.70907943903884,0.000843456868029433,0.000691731384148363,-0.003272492347489368,26.793995909809567,-3.891565647025391,-13.375
1774558577.467985,-0.4459270754744518,0.8766952624456189,-8.767049316560115,-1.2213456241606635,-0.836099989087952,9.689316706719772,-0.002226919636326159,0.000995182351910503,0.0,26.262404203676066,-4.327531824578273,-13.75
1774558577.5619085,-0.4459270754744518,0.8766952624456189,-8.767049316560115,-1.224969064094728,-0.8377182686107993,9.654535044884842,-0.000691731384148363,0.000843456868029433,0.0,27.290814696459208,-3.807438699903922,-14.1875
1774558577.6244276,-0.4459270754744518,0.8766952624456189,-8.767049316560115,-1.2302923777632198,-0.837346270792482,9.649672910003773,0.001838639219939936,0.0029186510204745222,-0.004363323129985824,25.79063759774112,-3.259488042926687,-15.375
1774558577.67676,-0.4459270754744518,0.8766952624456189,-8.767049316560115,-1.2385427496595323,-0.8366334331996272,9.659817660383304,0.0,0.0,-0.003272492347489368,25.79063759774112,-3.259488042926687,-15.375
1774558577.7000957,-0.4459270754744518,0.8766952624456189,-8.767049316560115,-1.2385427496595323,-0.8366334331996272,9.659817660383304,0.0,0.0,-0.003272492347489368,25.79063759774112,-3.259488042926687,-15.375
1774558577.7489405,-0.4459270754744518,0.8766952624456189,-8.767049316560115,-1.2440332799938356,-0.8361590477444999,9.666568878436594,0.000540005900267293,-0.002378645120207229,-0.001090830782496456,25.747171448386293,-3.6992870809659526,-14.5625
1774558577.784704,-0.4459270754744518,0.8766952624456189,-8.767049316560115,-1.2403928788250833,-0.8341873822661037,9.671061738635013,0.0,0.0,-0.002181661564992912,25.747171448386293,-3.6992870809659526,-14.5625
1774558577.802891,-0.4459270754744518,0.8766952624456189,-8.767049316560115,-1.2403928788250833,-0.8341873822661037,9.671061738635013,0.0,0.0,-0.002181661564992912,25.747171448386293,-3.6992870809659526,-14.5625
1774558577.8417604,-0.4459270754744518,0.8766952624456189,-8.767049316560115,-1.2337714667976678,-0.8298808143559976,9.67047021790344,-0.003070376504355592,0.00030345096776213993,0.001090830782496456,27.390273085526214,-2.3517552594388613,-15.0
1774558577.8805928,-0.4459270754744518,0.8766952624456189,-8.767049316560115,-1.2337714667976678,-0.8298808143559976,9.67047021790344,-0.003070376504355592,0.00030345096776213993,0.001090830782496456,27.390273085526214,-2.3517552594388613,-15.0
1774558577.9022617,-0.4459270754744518,0.8766952624456189,-8.767049316560115,-1.2337714667976678,-0.8298808143559976,9.67047021790344,-0.003070376504355592,0.00030345096776213993,0.001090830782496456,27.390273085526214,-2.3517552594388613,-15.0
1774558577.9400504,-0.4459270754744518,0.8766952624456189,-8.767049316560115,-1.2269964606900523,-0.8291483986153523,9.670208247933552,-0.00015172548388107002,-0.001535188252177796,0.0,25.25904589160762,-3.6954542204795695,-14.1875
1774558577.9986887,-0.4459270754744518,0.8766952624456189,-8.767049316560115,-1.2269964606900523,-0.8291483986153523,9.670208247933552,-0.00015172548388107002,-0.001535188252177796,0.0,25.25904589160762,-3.6954542204795695,-14.1875
1774558578.0219655,-0.4459270754744518,0.8766952624456189,-8.767049316560115,-1.2243472997769158,-0.8299871507849906,9.670138586673497,-0.000843456868029433,-0.000691731384148363,0.001090830782496456,26.854848518906326,-3.2758469937704193,-13.75
1774558578.0615995,-0.4459270754744518,0.8766952624456189,-8.767049316560115,-1.2247055572397842,-0.8279588093266622,9.670092227883098,-0.000843456868029433,-0.000691731384148363,0.0,26.854848518906326,-3.2758469937704193,-13.75
1774558578.077217,-0.4459270754744518,0.8766952624456189,-8.767049316560115,-1.2249439735793248,-0.8266089707442034,9.670061376625949,0.000843456868029433,0.000691731384148363,0.0,26.617048785695662,-2.985887881333963,-13.375
1774558578.0908337,-0.4459270754744518,0.8766952624456189,-8.767049316560115,-1.2249439735793248,-0.8266089707442034,9.670061376625949,0.000843456868029433,0.000691731384148363,0.0,26.617048785695662,-2.985887881333963,-13.375
1774558578.1274862,-0.4459270754744518,0.8766952624456189,-8.767049316560115,-1.2251026369900042,-0.8257106682462619,9.670040845458947,0.00015172548388107002,0.001535188252177796,0.003272492347489368,26.617048785695662,-2.985887881333963,-13.375
1774558578.169313,-0.4459270754744518,0.8766952624456189,-8.767049316560115,-1.225208225717425,-0.8251128579685784,9.673372293903975,-0.000843456868029433,-0.000691731384148363,-0.001090830782496456,25.55283786453046,-2.9695289304902306,-13.0
1774558578.1995978,-0.4459270754744518,0.8766952624456189,-8.767049316560115,-1.2252784938360202,-0.8247150219067583,9.675589335629423,-0.000995182351910503,-0.002226919636326159,0.002181661564992912,25.55283786453046,-2.9695289304902306,-13.0
1774558578.239867,-0.4459270754744518,0.8766952624456189,-8.767049316560115,-1.2377925875724813,-0.8303487226239679,9.67706475213173,0.0,0.0,0.0,25.55283786453046,-2.9695289304902306,-13.0
1774558578.271241,-0.4459270754744518,0.8766952624456189,-8.767049316560115,-1.2435340555047627,-0.8319766430612158,9.684736848747173,-0.001535188252177796,0.00015172548388106997,0.001090830782496456,26.226603775294006,-3.7910797490601893,-14.1875
1774558578.321833,-0.4459270754744518,0.8766952624456189,-8.767049316560115,-1.2451899269651194,-0.8342462490127115,9.727786780380814,0.005449021624562821,0.00023655493250515297,0.0,26.226603775294006,-3.7910797490601893,-14.1875
1774558578.4044237,-0.4459270754744518,0.8766952624456189,-8.767049316560115,-1.2322123594336494,-0.8385527565932069,9.735217350481355,-0.001535188252177796,0.00015172548388106997,0.0,26.080596710177577,-3.021688309716024,-14.1875
1774558578.483677,-0.4459270754744518,0.8766952624456189,-8.767049316560115,-1.204970353263739,-0.8414331608897547,9.637599451006531,-0.002530370604088299,-0.002075194152445089,0.003272492347489368,24.297375886204012,-4.888285747019268,-16.1875
1774558578.5299587,-0.4459270754744518,0.8766952624456189,-8.767049316560115,-1.204970353263739,-0.8414331608897547,9.637599451006531,-0.002530370604088299,-0.002075194152445089,0.003272492347489368,24.297375886204012,-4.888285747019268,-16.1875
1774558578.5767345,-0.4459270754744518,0.8766952624456189,-8.767049316560115,-1.1964964273872265,-0.8489738866800597,9.665163355119292,-0.005600747108443891,-0.001771743184682949,0.001090830782496456,24.297375886204012,-4.888285747019268,-16.1875
1774558578.639099,-0.4459270754744518,0.8766952624456189,-8.767049316560115,-1.196030167691856,-0.8582346443730702,9.68350682539735,-0.001686913736058866,-0.001383462768296726,0.002181661564992912,26.516562887730462,-3.5532800158495266,-14.5625
1774558578.7097182,-0.4459270754744518,0.8766952624456189,-8.767049316560115,-1.2042048549030269,-0.8540514885373388,9.68233375312813,0.000843456868029433,0.000691731384148363,-0.001090830782496456,25.98880404208334,-3.501120636623733,-14.1875
1774558578.7662995,-0.4459270754744518,0.8766952624456189,-8.767049316560115,-1.2096450179248215,-0.8512676450575721,9.68155308663704,0.000843456868029433,0.000691731384148363,0.001090830782496456,25.98880404208334,-3.501120636623733,-14.1875
1774558578.7871811,-0.4459270754744518,0.8766952624456189,-8.767049316560115,-1.2222156406754534,-0.84377670780361,9.681033561807835,0.000995182351910503,0.002226919636326159,0.0,25.98880404208334,-3.501120636623733,-15.0
1774558578.808602,-0.4459270754744518,0.8766952624456189,-8.767049316560115,-1.2305812496929418,-0.8387915727403503,9.677342712130153,0.000691731384148363,-0.000843456868029433,-0.001090830782496456,25.98880404208334,-3.501120636623733,-15.0
1774558578.9000466,-0.4459270754744518,0.8766952624456189,-8.767049316560115,-1.2303725250892568,-0.8254908295853984,9.671025771964807,-0.001535188252177796,0.00015172548388106997,-0.001090830782496456,25.842796976966916,-2.731729197279568,-13.375
1774558578.9324894,-0.4459270754744518,0.8766952624456189,-8.767049316560115,-1.2303725250892568,-0.8254908295853984,9.671025771964807,-0.001535188252177796,0.00015172548388106997,-0.001090830782496456,25.842796976966916,-2.731729197279568,-13.375
1774558579.0638278,-0.4459270754744518,0.8766952624456189,-8.767049316560115,-1.224944708980197,-0.8296350636703989,9.68271575874647,0.001535188252177796,-0.00015172548388106997,0.002181661564992912,26.854848518906326,-3.2758469937704193,-15.75
1774558579.0892668,-0.4459270754744518,0.8766952624456189,-8.767049316560115,-1.2323974141640583,-0.8293804665422142,9.681807307108762,0.001686913736058866,0.001383462768296726,0.001090830782496456,26.080596710177577,-3.021688309716024,-15.0
1774558579.1085699,-0.4459270754744518,0.8766952624456189,-8.767049316560115,-1.2323974141640583,-0.8293804665422142,9.681807307108762,0.001686913736058866,0.001383462768296726,0.001090830782496456,26.080596710177577,-3.021688309716024,-15.0
1774558579.2113242,-0.4459270754744518,0.8766952624456189,-8.767049316560115,-1.2389364245962013,-0.8276866157064635,9.675229165644774,0.001686913736058866,0.001383462768296726,0.001090830782496456,26.226603775294006,-3.7910797490601893,-14.1875
1774558579.2828407,-0.4459270754744518,0.8766952624456189,-8.767049316560115,-1.2395875001513101,-0.830670317845552,9.680170174737627,-0.00015172548388107002,-0.001535188252177796,0.0,26.226603775294006,-3.7910797490601893,-14.1875
1774558579.3285787,-0.4459270754744518,0.8766952624456189,-8.767049316560115,-1.2442632725752336,-0.8274828949734847,9.683458361094234,0.001535188252177796,-0.00015172548388106997,-0.002181661564992912,26.952529065283343,-4.084871721983029,-13.75
1774558579.3674402,-0.4459270754744518,0.8766952624456189,-8.767049316560115,-1.2478402240918067,-0.8300694667732117,9.678956388968468,-0.000691731384148363,0.000843456868029433,-0.001090830782496456,26.952529065283343,-4.084871721983029,-13.75
1774558579.39679,-0.4459270754744518,0.8766952624456189,-8.767049316560115,-1.2476341237111725,-0.8296695569545354,9.672615265101776,-0.000843456868029433,-0.000691731384148363,-0.001090830782496456,26.226603775294006,-3.7910797490601893,-14.1875
1774558579.4218848,-0.4459270754744518,0.8766952624456189,-8.767049316560115,-1.2476341237111725,-0.8296695569545354,9.672615265101776,-0.000843456868029433,-0.000691731384148363,-0.001090830782496456,26.226603775294006,-3.7910797490601893,-14.1875
1774558579.4630797,-0.4459270754744518,0.8766952624456189,-8.767049316560115,-1.2474969662101525,-0.8294034214374917,9.668395318003487,0.001535188252177796,-0.00015172548388106997,-0.002181661564992912,26.226603775294006,-3.7910797490601893,-14.1875
1774558579.4884822,-0.4459270754744518,0.8766952624456189,-8.767049316560115,-1.2474056894253736,-0.8292263112238277,9.665586990349473,0.000843456868029433,0.000691731384148363,-0.001090830782496456,25.98880404208334,-3.501120636623733,-14.5625
1774558579.5134206,-0.4459270754744518,0.8766952624456189,-8.767049316560115,-1.2452237012872371,-0.831694968012832,9.663718079666802,-0.001686913736058866,-0.001383462768296726,-0.001090830782496456,25.98880404208334,-3.501120636623733,-14.5625
1774558579.5452101,-0.4459270754744518,0.8766952624456189,-8.767049316560115,-1.2416503680982176,-0.8359243531869581,9.662474340484586,-0.000843456868029433,-0.000691731384148363,0.0,26.262404203676066,-4.327531824578273,-13.75
1774558579.5615602,-0.4459270754744518,0.8766952624456189,-8.767049316560115,-1.2416503680982176,-0.8359243531869581,9.662474340484586,-0.000843456868029433,-0.000691731384148363,0.0,26.262404203676066,-4.327531824578273,-13.75
1774558579.6643426,-0.4459270754744518,0.8766952624456189,-8.767049316560115,-1.237302750830841,-0.8351996388349786,9.680405932748153,-0.001686913736058866,-0.001383462768296726,0.001090830782496456,25.747171448386293,-3.6992870809659526,-15.375
1774558579.6957157,-0.4459270754744518,0.8766952624456189,-8.767049316560115,-1.2427427974247836,-0.8304971074961174,9.680270143709329,0.001535188252177796,-0.00015172548388106997,-0.003272492347489368,25.984971181596958,-3.989246193402409,-13.75
1774558579.7457113,-0.4459270754744518,0.8766952624456189,-8.767049316560115,-1.2374128326335196,-0.8330059459365688,9.670144442498897,0.000691731384148363,-0.000843456868029433,0.0,25.984971181596958,-3.989246193402409,-13.75
1774558579.7677846,-0.4459270754744518,0.8766952624456189,-8.767049316560115,-1.2374128326335196,-0.8330059459365688,9.670144442498897,0.000691731384148363,-0.000843456868029433,0.0,25.984971181596958,-3.989246193402409,-13.75
1774558579.8277326,-0.4459270754744518,0.8766952624456189,-8.767049316560115,-1.2333094026472529,-0.8300763047630948,9.672301924493748,0.000691731384148363,-0.000843456868029433,0.001090830782496456,26.262404203676066,-4.327531824578273,-14.5625
1774558579.8641446,-0.4459270754744518,0.8766952624456189,-8.767049316560115,-1.2285484921292502,-0.8306046619609224,9.678222128451047,-0.00015172548388107002,-0.001535188252177796,0.003272492347489368,26.418882341353445,-2.744255287636917,-15.0
1774558579.974155,-0.4459270754744518,0.8766952624456189,-8.767049316560115,-1.2232716692986152,-0.8311902741696974,9.662498885915241,0.002378645120207229,0.000540005900267293,-0.003272492347489368,26.262404203676066,-4.327531824578273,-13.75
1774558579.995397,-0.4459270754744518,0.8766952624456189,-8.767049316560115,-1.2235244599718023,-0.8240517083841743,9.665008092369527,0.00015172548388107002,0.001535188252177796,-0.006544984694978736,26.262404203676066,-4.327531824578273,-13.75
1774558580.0218368,-0.4459270754744518,0.8766952624456189,-8.767049316560115,-1.2235244599718023,-0.8240517083841743,9.665008092369527,0.00015172548388107002,0.001535188252177796,-0.006544984694978736,26.262404203676066,-4.327531824578273,-13.75
1774558580.0410507,-0.4459270754744518,0.8766952624456189,-8.767049316560115,-1.2250885209417093,-0.833424370942638,9.666677941235182,0.001146907835791573,0.003762107888503955,-0.004363323129985824,25.79063759774112,-3.259488042926687,-13.375
1774558580.0635333,-0.4678346656003765,0.8750357232440743,-8.767412801290153,-1.2350796410757068,-0.834023452660048,9.657753871879883,-0.000540005900267293,0.002378645120207229,-0.017453292519943295,25.79063759774112,-3.259488042926687,-13.375
1774558580.079429,-0.492695477352187,0.8731012575335079,-8.767313925995774,-1.239607375459263,-0.8370086565085499,9.648469891705,-0.003762107888503955,0.001146907835791573,-0.017453292519943295,25.79063759774112,-3.259488042926687,-13.375
1774558580.106871,-0.492695477352187,0.8731012575335079,-8.767313925995774,-1.239607375459263,-0.8370086565085499,9.648469891705,-0.003762107888503955,0.001146907835791573,-0.017453292519943295,25.79063759774112,-3.259488042926687,-13.375
1774558580.1313112,-0.5019659034627121,0.8723649384984741,-8.767126866967683,-1.2296879238246774,-0.8283890540353439,9.642291506607469,0.00015172548388107002,0.001535188252177796,-0.008726646259971648,25.98880404208334,-3.501120636623733,-13.375
1774558580.1737368,-0.5019659034627121,0.8723649384984741,-8.767126866967683,-1.2179135962539018,-0.818410315961705,9.658250530586061,-0.000843456868029433,-0.000691731384148363,0.002181661564992912,25.98880404208334,-3.501120636623733,-13.375
1774558580.2020767,-0.5019659034627121,0.8723649384984741,-8.767126866967683,-1.2100779127834078,-0.8117695772435064,9.668871082769835,-0.001535188252177796,0.00015172548388106997,0.001090830782496456,26.516562887730462,-3.5532800158495266,-14.1875
1774558580.2320516,-0.5019659034627121,0.8723649384984741,-8.767126866967683,-1.2100779127834078,-0.8117695772435064,9.668871082769835,-0.001535188252177796,0.00015172548388106997,0.001090830782496456,26.516562887730462,-3.5532800158495266,-14.1875
1774558580.2587416,-0.5019659034627121,0.8723649384984741,-8.767126866967683,-1.2074498746218607,-0.8094714842659518,9.6592133830722,-0.000691731384148363,0.000843456868029433,0.0,26.516562887730462,-3.5532800158495266,-14.1875
1774558580.2785952,-0.5019659034627121,0.8723649384984741,-8.767126866967683,-1.2108739878979549,-0.8121846179757586,9.652786291806997,-0.002378645120207229,-0.000540005900267293,0.002181661564992912,26.418882341353445,-2.744255287636917,-13.75
1774558580.3110483,-0.5019659034627121,0.8723649384984741,-8.767126866967683,-1.2110314525758494,-0.8165766998096927,9.655199357779956,-0.000691731384148363,0.000843456868029433,0.002181661564992912,26.418882341353445,-2.744255287636917,-13.75
1774558580.38481,-0.5019659034627121,0.8723649384984741,-8.767126866967683,-1.2327450954275359,-0.8391092708673803,9.657873913743527,-0.000843456868029433,-0.000691731384148363,0.002181661564992912,26.952529065283343,-4.084871721983029,-14.5625
1774558580.4092855,-0.5019659034627121,0.8723649384984741,-8.767126866967683,-1.2327450954275359,-0.8391092708673803,9.657873913743527,-0.000843456868029433,-0.000691731384148363,0.002181661564992912,26.952529065283343,-4.084871721983029,-14.5625
1774558580.4278722,-0.5078227601214982,0.8655850035437872,-8.770352726865257,-1.2385190386092413,-0.8451009778284593,9.675310671882855,0.000843456868029433,0.000691731384148363,-0.003272492347489368,26.226603775294006,-3.7910797490601893,-14.1875
1774558580.4964519,-0.592087815372637,0.8591302778633099,-8.771054908570964,-1.232275582322991,-0.8191858279306143,9.686914639643225,-0.006377307941216337,0.0060559235600871,-0.05345070834232634,26.226603775294006,-3.7910797490601893,-14.1875
1774558580.555122,-0.7904838029302158,0.8243889445002593,-8.796987770104348,-1.2451654330780253,-0.8629491832371435,9.649634846585394,-0.008755953061423566,0.005515917659819808,-0.008726646259971648,26.85868137939271,-2.787721436991744,-15.0
1774558580.5844996,-0.7900952489378571,0.8176094296058584,-8.815510963961506,-1.2686125037776292,-0.9134770133256589,9.636376547652333,0.006595929460354394,0.003998662821009108,-0.002181661564992912,25.984971181596958,-3.989246193402409,-15.0
1774558580.6172872,-0.7877034770086168,0.8237525044533127,-8.828629478456593,-1.2969437341522407,-0.9315835898702384,9.634243521231923,0.003373827472117732,0.002766925536593452,-0.002181661564992912,25.984971181596958,-3.989246193402409,-15.0
1774558580.66344,-0.8059541503990649,0.819339387405883,-8.821913772613815,-1.2760694722192543,-0.9023991152040436,9.626133792561967,-0.000540005900267293,0.002378645120207229,-0.015271630954950384,26.50403679737311,-4.129365380236054,-14.1875
1774558580.7143526,-0.8059541503990649,0.819339387405883,-8.821913772613815,-1.2621778840836364,-0.8829771733256343,9.647497752382272,-0.006595929460354394,-0.003998662821009108,0.002181661564992912,26.50403679737311,-4.129365380236054,-14.1875
1774558580.7403781,-0.8122804044458695,0.8188725593071436,-8.822185629908024,-1.2592969207310734,-0.8622925229896182,9.661715228991616,-0.001080011800534586,0.004757290240414458,-0.008726646259971648,25.747171448386293,-3.6992870809659526,-14.1875
1774558580.7766268,-0.8122804044458695,0.8188725593071436,-8.822185629908024,-1.2592969207310734,-0.8622925229896182,9.661715228991616,-0.001080011800534586,0.004757290240414458,-0.008726646259971648,25.747171448386293,-3.6992870809659526,-14.1875
1774558580.818114,-0.8212694956997673,0.8152002615776658,-8.815664029027607,-1.2470335851714238,-0.8400421414237059,9.671176800855514,0.003070376504355592,-0.00030345096776213993,-0.006544984694978736,25.747171448386293,-3.6992870809659526,-14.1875
1774558580.889717,-0.874357689904048,0.8111195876695246,-8.816162182868704,-1.2388724723469113,-0.8252347610446393,9.6507124775797,0.001298633319672643,0.005297296140681751,-0.019634954084936207,25.06676732554818,-4.742278681902842,-16.5625
1774558580.9059787,-0.874357689904048,0.8111195876695246,-8.816162182868704,-1.2388724723469113,-0.8252347610446393,9.6507124775797,0.001298633319672643,0.005297296140681751,-0.019634954084936207,25.06676732554818,-4.742278681902842,-16.5625
1774558581.0110512,-0.8899446114015443,0.8099148828302617,-8.816237108614525,-1.233441342927802,-0.8153806148116475,9.637093699041117,0.001990364703821006,0.004453839272652318,-0.009817477042468103,25.06676732554818,-4.742278681902842,-16.5625
1774558581.0378966,-0.26737247501108485,0.7914583134020764,-8.835387803696964,-1.2505191602310517,-0.825792746231573,9.641411000884691,0.001146907835791573,0.003762107888503955,-0.02399827721492203,-1273.1650757096852,1577.7530435894116,-15.75
1774558581.1266115,0.08350861491312973,0.7962434449350997,-8.851539671550343,-1.2618842568746451,-0.8327219033804044,9.644284117034168,0.002985547055731509,0.006680758908978477,-0.009817477042468103,24.971141796967558,-5.709836565589227,-17.375
1774558581.1582065,0.8694122324954896,0.7786100015084573,-8.844623510007171,-1.2694476017345084,-0.8373331800591947,9.61609013837096,-0.0012317372844156558,0.003222101988236662,-0.02945243112740431,24.971141796967558,-5.709836565589227,-17.375
1774558581.2639759,1.4701810939483744,0.7590786904984196,-8.849001250042297,-1.2848270098816374,-0.8488869110075715,9.597327360517975,0.010121482416353196,0.008300776609780356,-0.037088246604879506,24.971141796967558,-5.709836565589227,-18.5625
1774558581.3052788,1.4330062392734901,0.7531415186269373,-8.843196512566209,-1.3014255675767896,-0.8488162249168442,9.5547349360849,0.006140753008711184,-0.0006069019355242799,-0.028361600344907856,24.971141796967558,-5.709836565589227,-18.5625
1774558581.3508275,1.4330062392734901,0.7531415186269373,-8.843196512566209,-1.3014255675767896,-0.8488162249168442,9.5547349360849,0.006140753008711184,-0.0006069019355242799,-0.028361600344907856,24.971141796967558,-5.709836565589227,-18.5625
1774558581.3824642,1.8382394921163392,0.7467841262347924,-8.843133761593789,-1.3124717223048745,-0.8487691841130803,9.563186382193757,-0.0036103824046228848,0.002682096087969369,-0.016362461737446838,24.716983112913162,-6.484088374317976,-18.1875
1774558581.4299552,2.1783867156130436,0.7291733591684245,-8.84734817635363,-1.3195626792262976,-0.8701554651023686,9.582191171999641,-0.001080011800534586,0.004757290240414458,-0.05672320068981571,24.716983112913162,-6.484088374317976,-18.1875
1774558581.5393548,1.9416714009827818,0.7077089944630159,-8.842033103138906,-1.2826682090836454,-0.8571559768046213,9.676812398442868,0.004520735307909305,0.006529033425097407,-0.04145156973486533,25.42552194316057,-6.953799962456521,-20.1875
1774558581.583523,1.8672672590192199,0.6923443300217841,-8.886552493429171,-1.3213515017671078,-0.9021222698424145,9.711329803844764,0.001298633319672643,0.005297296140681751,-0.02399827721492203,23.427498548894643,-5.6016849466512575,-22.1875
1774558581.6228628,1.772689342754155,0.6974820320918242,-8.896511453292975,-1.347094800927259,-0.9320468355526602,9.680778964237934,0.000995182351910503,0.002226919636326159,-0.05126904677733343,23.427498548894643,-5.6016849466512575,-22.1875
1774558581.6893814,1.6642887034957012,0.6796563355715772,-8.893924994829424,-1.3124962457919052,-0.9095364106036379,9.660447721754828,-0.00023655493250515278,0.005449021624562821,-0.03599741582238305,23.847105775603794,-7.197487573949965,-23.0
1774558581.7133284,1.6642887034957012,0.6796563355715772,-8.893924994829424,-1.275347995494788,-0.8959518058587441,9.64691750699718,0.0043690098240282355,0.004993845172919611,-0.050178215994836975,23.847105775603794,-7.197487573949965,-23.0
1774558581.8027294,1.4402052155928542,0.6559338892071203,-8.8983986821456,-1.2506262498952023,-0.8869114031509955,9.671364417291562,0.006055923560087101,0.006377307941216337,-0.031634092692397225,24.52087168636734,-8.019038392519926,-23.75
1774558581.8267488,1.2570958869269027,0.6290952198464057,-8.905881613526704,-1.2600394209361414,-0.9021075607118485,9.684288451295272,0.006055923560087101,0.006377307941216337,-0.061086523819801536,24.52087168636734,-8.019038392519926,-23.75
1774558581.881817,1.2570958869269027,0.6290952198464057,-8.905881613526704,-1.2600394209361414,-0.9021075607118485,9.684288451295272,0.006055923560087101,0.006377307941216337,-0.061086523819801536,24.52087168636734,-8.019038392519926,-23.75
1774558581.9101825,1.1233146251747765,0.6155895771611105,-8.8999755928575,-1.2684250255693703,-0.9096339121586464,9.69623436326114,0.000691731384148363,-0.000843456868029433,-0.039269908169872414,23.734093787281243,-8.340965072852056,-24.1875
1774558581.9601705,1.0146487657450125,0.6008116977164537,-8.903488363014729,-1.2356730041134902,-0.8875317142244609,9.700839122522527,0.005600747108443891,0.001771743184682949,-0.03381575425739013,23.734093787281243,-8.340965072852056,-24.1875
1774558581.9812264,1.0146487657450125,0.6008116977164537,-8.903488363014729,-1.2356730041134902,-0.8875317142244609,9.700839122522527,0.005600747108443891,0.001771743184682949,-0.03381575425739013,23.734093787281243,-8.340965072852056,-24.1875
1774558582.0071542,0.9769190655326945,0.6009425932439838,-8.910167974433167,-1.2350893442735984,-0.8469577318195187,9.667107309591936,0.005904198076206031,0.004842119689038541,-0.022907446432425576,23.16670165276568,-8.240479174886854,-25.375
1774558582.0224917,0.8675142187817355,0.5954592865449825,-8.916901770525197,-1.2210429040245865,-0.8260597974861099,9.644659164895666,0.000995182351910503,0.002226919636326159,-0.05890486225480862,23.16670165276568,-8.240479174886854,-25.375
1774558582.0706563,0.8675142187817355,0.5954592865449825,-8.916901770525197,-1.2210429040245865,-0.8260597974861099,9.644659164895666,0.000995182351910503,0.002226919636326159,-0.05890486225480862,23.16670165276568,-8.240479174886854,-25.375
1774558582.0992446,0.7236686460893728,0.5873211736923365,-8.924490974101237,-1.2220412415788755,-0.8206374334624266,9.626375063655187,0.013040133436827719,0.00646213738984042,-0.04036073895236887,22.651468897475908,-7.612234431274532,-27.0
1774558582.1707761,0.5579270371683301,0.580420366552449,-8.937456611266644,-1.2227056240690937,-0.8170289107764404,9.644313203892317,0.001535188252177796,-0.00015172548388106997,-0.04581489286485115,22.651468897475908,-7.612234431274532,-27.0
1774558582.2250423,0.4432519429147434,0.5621094801494738,-8.934835829376619,-1.2238181819387164,-0.8454605975879518,9.626144830472095,0.003829003923760942,0.00737249029312684,-0.03599741582238305,24.022275057027713,-10.367873508319066,-29.5
1774558582.28067,0.39018975984387605,0.5579744785558104,-8.935263982564823,-1.2224373323153699,-0.8669680892160078,9.6541953214028,0.002530370604088299,0.002075194152445089,-0.02181661564992912,24.022275057027713,-10.367873508319066,-29.5
1774558582.311207,0.321535843055957,0.5526194135972684,-8.9357406610454,-1.19048013242317,-0.8558261511501222,9.642756604406793,-0.002378645120207229,-0.000540005900267293,-0.019634954084936207,24.316067029950553,-9.641948218329727,-31.0
1774558582.3812907,0.2745024087299498,0.5519558960300638,-8.942192801955542,-1.1776979507102021,-0.8380652291998907,9.635144266024794,-0.001990364703821006,-0.004453839272652318,-0.022907446432425576,24.316067029950553,-9.641948218329727,-31.0
1774558582.4269474,0.1972986379444272,0.5365642749560464,-8.939138371747793,-1.1847106815130295,-0.8389730007894762,9.630078339866964,0.002530370604088299,0.002075194152445089,-0.019634954084936207,24.074434436253505,-9.840114662671947,-30.5625
1774558582.5063365,120.87123007972944,47.69534653140796,151.75772285719765,-1.241833421536652,-0.8652921817882899,9.64343258113563,-0.0036103824046228848,0.002682096087969369,-0.022907446432425576,24.074434436253505,-9.840114662671947,-30.5625
1774558582.5362134,120.87123007972944,47.69534653140796,151.75772285719765,-1.241833421536652,-0.8652921817882899,9.64343258113563,-0.0036103824046228848,0.002682096087969369,-0.022907446432425576,24.074434436253505,-9.840114662671947,-30.5625
1774558582.5707126,0.049478390059713974,0.5406933482579249,-8.94016214685753,-1.2789174125190512,-0.8733917705080018,9.652319679523275,0.006984209876740617,8.482944862408298e-05,-0.028361600344907856,24.31223416946417,-10.130073775108404,-31.375
1774558582.6293862,-0.0038539647542156943,0.5395338288144483,-8.946870599890623,-1.3035963942625155,-0.8787819563226354,9.6649241676395,0.005449021624562821,0.00023655493250515297,-0.004363323129985824,24.31223416946417,-10.130073775108404,-31.375
1774558582.7225804,-0.07251342922823636,0.5341699151891766,-8.947317970100999,-1.288461449724569,-0.8997493035174458,9.683347648801448,0.000691731384148363,-0.000843456868029433,-0.008726646259971648,25.267265962793203,-10.801784668075548,-34.1875
1774558582.7678552,-0.1884634702858669,0.5310808305818985,-8.960507604016213,-1.2783893132029738,-0.913702838854977,9.695608269710954,0.006747654944235464,0.005533851073186904,-0.038179077387375956,25.267265962793203,-10.801784668075548,-34.1875
1774558582.801058,-0.1884634702858669,0.5310808305818985,-8.960507604016213,-1.2783893132029738,-0.913702838854977,9.695608269710954,0.006747654944235464,0.005533851073186904,-0.038179077387375956,25.267265962793203,-10.801784668075548,-34.1875
1774558582.846183,-0.1884634702858669,0.5310808305818985,-8.960507604016213,-1.2783893132029738,-0.913702838854977,9.695608269710954,0.006747654944235464,0.005533851073186904,-0.038179077387375956,25.267265962793203,-10.801784668075548,-34.1875
1774558582.9197693,-0.2890435054809279,0.5325372261006446,-8.964372724036478,-1.2716864188609893,-0.9229887607509012,9.723838246210036,0.002918651020474522,-0.001838639219939936,-0.003272492347489368,24.49787452344904,-10.947791733191979,-35.0
1774558583.0089078,-0.4464001770163957,0.5388421888518721,-8.971504506366625,-1.2312745500006608,-0.8780534295184594,9.742624980220675,-0.0023117490849502422,0.00797939222865112,-0.020725784867432664,25.99319125278254,-11.09557664099839,-36.5625
1774558583.0567186,-0.4685643597777559,0.5400901634852302,-8.978124115259437,-1.2043809027042662,-0.8481494685438093,9.755127341843187,0.001838639219939936,0.0029186510204745222,-0.00545415391248228,25.99319125278254,-11.09557664099839,-36.5625
1774558583.115999,-0.4685643597777559,0.5400901634852302,-8.978124115259437,-1.2043809027042662,-0.8481494685438093,9.755127341843187,0.001838639219939936,0.0029186510204745222,-0.00545415391248228,25.99319125278254,-11.09557664099839,-36.5625
1774558583.1415083,-0.5311713421265954,0.5381385651942737,-8.984606737687281,-1.1864834808502407,-0.8282487165643115,9.763447523842437,-0.002378645120207229,-0.000540005900267293,-0.01090830782496456,25.02563336909616,-10.999951112417769,-37.75
1774558583.1737144,-0.5847302744159492,0.5402955116997279,-8.982041498127732,-1.1964558098526537,-0.8199728901996471,9.738878506654542,0.00015172548388107002,0.001535188252177796,-0.019634954084936207,25.02563336909616,-10.999951112417769,-37.75
1774558583.190985,-0.5847302744159492,0.5402955116997279,-8.982041498127732,-1.1964558098526537,-0.8199728901996471,9.738878506654542,0.00015172548388107002,0.001535188252177796,-0.019634954084936207,25.02563336909616,-10.999951112417769,-37.75
1774558583.2116046,-0.6156411723108084,0.5348972785142264,-8.975802274463598,-1.1778974855720963,-0.8240860939752521,9.722528100169901,-0.003070376504355592,0.00030345096776213993,-0.016362461737446838,26.50842400807231,-11.72382138461071,-39.0
1774558583.242989,-0.6624372331412257,0.5307875337737359,-8.991505166632383,-1.1992269037368781,-0.8068566247351812,9.708301975593063,0.000843456868029433,0.000691731384148363,-0.03599741582238305,26.50842400807231,-11.72382138461071,-39.0
1774558583.3081372,-0.7165592306218664,0.5383834233276614,-9.017168813943675,-1.1797416175969009,-0.8153573658269356,9.6988346486034,-0.005212466692057668,-0.005685576557067974,-0.01090830782496456,25.703232140346085,-11.333376374209053,-41.0
1774558583.3838704,-0.7970746682873507,0.5170955525656842,-9.101899585798588,-1.1720024147638641,-0.77771406462632,9.756091370687821,-0.03625554953010992,0.02528577262751589,-0.03490658503988659,25.703232140346085,-11.333376374209053,-41.0
1774558583.4456184,-0.6276835207907114,0.5365705996404385,-9.346198831031234,-1.1498821060710827,-0.7733550414425133,9.794195079635509,-0.031886539706081685,0.030279617800435504,0.0545415391248228,26.27062427486165,-11.433862272174254,-41.75
1774558583.4769995,-0.6530221651086001,0.5277212298895068,-9.481196291468374,-1.1836347804892475,-0.7799246865503682,9.786101555220682,-0.0408790477000104,0.04124455708481813,-0.03490658503988659,26.27062427486165,-11.433862272174254,-41.75
1774558583.5060709,-0.726977867969046,0.5358864395087288,-9.644952883133717,-1.3031939412098552,-0.8769060552549198,9.750609399767333,-0.023773355406916587,0.04963016314322257,-0.038179077387375956,26.423269552052645,-10.338711292011572,-42.1875
1774558583.534016,-0.7682563087263148,0.5336339887673067,-9.714732137961539,-1.384880471563579,-0.9388595511171791,9.726989766786483,-0.019216753272273096,0.02515198055700192,-0.017453292519943295,26.423269552052645,-10.338711292011572,-42.1875
1774558583.5817287,-0.7810359422708248,0.5307858290733091,-9.777599988506065,-1.3517654858525026,-0.9126743651080481,9.727996723422914,-0.0247326709320929,0.016396027495578353,0.003272492347489368,25.380277951115755,-9.658307169173458,-42.1875
1774558583.606451,-0.7810359422708248,0.5307858290733091,-9.777599988506065,-1.3517654858525026,-0.9126743651080481,9.727996723422914,-0.0247326709320929,0.016396027495578353,0.003272492347489368,25.380277951115755,-9.658307169173458,-42.1875
1774558583.6369045,-0.840788863500554,0.5272850233325254,-9.83131252346018,-1.3318490772379044,-0.8926618946689181,9.728666841816015,-0.01091597666249274,0.015030498140648725,-0.020725784867432664,25.380277951115755,-9.658307169173458,-42.1875
1774558583.670815,-0.9189784927137449,0.5230351113688889,-9.853370517799593,-1.3176093812725302,-0.917471225267804,9.635449670315968,-0.0028517549852175353,0.010358037348858349,-0.032724923474893676,27.57263492923752,-11.740180335454445,-43.0
1774558583.6961148,-0.9723079417924176,0.5213937781088706,-9.860068454810394,-1.3081330226754002,-0.933981557642981,9.573414683986721,0.008974574580561622,0.004538668721276401,-0.019634954084936207,27.57263492923752,-11.740180335454445,-43.0
1774558583.7215524,-0.9878823799712926,0.5200482496528174,-9.860098583187195,-1.26044226536292,-0.9110290880862529,9.59234310429256,0.003222101988236662,0.001231737284415656,-0.016362461737446838,27.57263492923752,-11.740180335454445,-43.0
1774558583.7651126,-1.0250765832440472,0.5139033695007195,-9.854112022236256,-1.2329470880271187,-0.8905814326766411,9.614975091683744,-0.004757290240414458,-0.001080011800534586,-0.015271630954950384,27.14050161217102,-10.720463072542264,-44.1875
1774558583.8470886,-1.1245973848316064,0.5018897083232584,-9.863802257239579,-1.3442351647663726,-0.9481536298813078,9.6400595765353,-0.014053249202105317,0.006814550979492451,-0.061086523819801536,26.50842400807231,-11.72382138461071,-45.75
1774558583.8957813,-1.1557450503759459,0.499197697774382,-9.86385323770205,-1.3458739386790173,-0.9405371924791103,9.593208083616258,0.004605564756533388,-0.00045517645164320987,-0.006544984694978736,26.50842400807231,-11.72382138461071,-45.75
1774558584.0024905,-1.2391532906061908,0.4821806682580683,-9.876404053962368,-1.4241145348023339,-0.9443355527298433,9.56902941659475,-0.005618680521810987,0.01373186482097608,-0.025089107997418487,27.14050161217102,-10.720463072542264,-47.0
1774558584.0785863,-1.2698569163220357,0.506968456439776,-9.902828353641965,-1.4698544003993097,-0.9571424990156928,9.562663864171295,0.008974574580561622,0.004538668721276401,-0.017453292519943295,26.27062427486165,-11.433862272174254,-47.5
1774558584.2087097,-1.50350094794832,0.5215619062243718,-9.895556330573378,-1.5308786380690895,-0.9798072468766874,9.612475412705376,0.004909015724295528,0.002615200052712382,-0.02945243112740431,27.718641994353945,-12.509571774798612,-50.25
1774558584.2414367,-1.50350094794832,0.5215619062243718,-9.895556330573378,-1.5308786380690895,-0.9798072468766874,9.612475412705376,0.004909015724295528,0.002615200052712382,-0.02945243112740431,27.718641994353945,-12.509571774798612,-50.25
1774558584.381624,-1.693888102199348,0.4587304758907913,-10.048546553451478,-1.5275355953768472,-1.006417956417537,9.716035637817987,-0.018422259026133554,0.0018207058065728395,-0.002181661564992912,27.282675816801063,-11.977980068665108,-50.1875
1774558584.432551,-1.8034534125134736,0.4735174889680662,-9.814313486185009,-1.6435916529460572,-1.0498877834567983,9.660494862228267,0.08848781693088918,-0.061451655090790334,-0.06435901616729091,26.931864095267844,-12.831498455130742,-52.25
1774558584.4733746,-1.9087987680362892,0.5033196097424888,-9.288467967105323,-1.6762795292198744,-1.1331334225743284,9.623533096504426,0.1267206353696644,-0.1373138105915494,-0.02399827721492203,26.931864095267844,-12.831498455130742,-52.25
1774558584.5115974,-2.201319210193706,0.5067531450752767,-9.3158689054589,-1.3932886673187024,-0.9429333856232227,10.619194525037598,-0.07942357528349207,-0.011527716216228414,-0.13853550937704992,27.56010883888017,-12.316265699840972,-55.75
1774558584.7971005,-2.278646968861492,0.48091480162423456,-9.410016324771618,-1.2871029225324595,-0.90515005521286,9.674804500963084,-0.004302113788771248,0.0035255529559988018,-0.013089969389957472,27.207519274656967,-15.43449225498428,-60.25
1774558585.1523757,-2.81335467071117,0.4461126784175772,-9.484480377451556,-1.3068130373339433,-0.8455737164038845,9.556777577997902,0.001686913736058866,0.001383462768296726,-0.0719948316447661,31.81722969864739,-16.422992283792574,-74.5625
1774558585.2278924,-2.8444923703179965,0.4435240105312282,-9.484481358595103,-1.2877554324421154,-0.8969459324730815,9.59465174293493,0.0057524725923249614,0.0033069314368607454,0.0,31.81722969864739,-16.422992283792574,-74.5625
1774558585.2724578,-2.963137639345256,0.42863317558097497,-9.525836310545973,-1.2682987928139795,-0.88664242890721,9.629891911740335,-0.01236633546604645,0.008198013747789177,-0.016362461737446838,33.07474669477023,-16.28081807916253,-77.75
1774558585.3025718,-2.963137639345256,0.42863317558097497,-9.525836310545973,-1.2682987928139795,-0.88664242890721,9.629891911740335,-0.01236633546604645,0.008198013747789177,-0.016362461737446838,33.07474669477023,-16.28081807916253,-77.75
1774558585.3362935,-3.0713294968186644,0.4103468428979456,-9.52223375422684,-1.245004529855373,-0.871300584551821,9.713555861153603,0.007742837296145967,0.007760770709513063,-0.03490658503988659,33.07474669477023,-16.28081807916253,-77.75
1774558585.3654115,-3.216299953852498,0.4139541299895636,-9.523711975997376,-1.2295024580703873,-0.8610907585129405,9.769233284900581,0.009059404029185706,-0.0024455411554642164,-0.04363323129985824,36.249992998523915,-16.505814546909434,-80.5625
1774558585.4025114,-3.2446316358303235,0.4116115546286798,-9.524216191831972,-1.2469123278454481,-0.8943397423712054,9.812976211861258,0.009599409929452999,-0.004824186275671445,-0.011999138607461015,36.249992998523915,-16.505814546909434,-80.5625
1774558585.4184368,-3.2446316358303235,0.4116115546286798,-9.524216191831972,-1.2469123278454481,-0.8943397423712054,9.812976211861258,0.009599409929452999,-0.004824186275671445,-0.011999138607461015,36.249992998523915,-16.505814546909434,-80.5625
1774558585.4561198,-3.2714582586770664,0.4342808622909025,-9.528314294685286,-1.2584984016997627,-0.9164665697133948,9.818670859161841,0.011201494216887781,0.003543486369365898,-0.01090830782496456,37.296817459947185,-16.698093112968873,-81.75
1774558585.4936247,-3.3620541788739384,0.42673664894356483,-9.52879223989897,-1.2895424934573225,-0.9027399879015479,9.795699689668446,-0.002378645120207229,-0.000540005900267293,-0.031634092692397225,37.296817459947185,-16.698093112968873,-81.75
1774558585.5217175,-3.4307000548823594,0.4210138284845477,-9.529012358857761,-1.3217387664247289,-0.8900880249834775,9.780412632975368,0.001316566733039739,-0.010206311864977278,-0.016362461737446838,40.72800029044525,-13.88412960330936,-85.0625
1774558585.5505846,-3.521031451814032,0.4098626809852392,-9.538643452332622,-1.3791711880932924,-0.8852403551641558,9.830451278245485,-0.005060741208176598,-0.004150388304890178,-0.05781403147231216,40.72800029044525,-13.88412960330936,-85.0625
1774558585.597024,-3.552158692022864,0.407259827991984,-9.538617818790817,-1.404664356406568,-0.8975334149978993,9.863751437704456,-0.0057524725923249614,-0.0033069314368607454,0.011999138607461015,42.986820580840146,-12.597450390879029,-87.0625
1774558585.6360667,-3.552158692022864,0.407259827991984,-9.538617818790817,-1.404664356406568,-0.8975334149978993,9.863751437704456,-0.0057524725923249614,-0.0033069314368607454,0.011999138607461015,42.986820580840146,-12.597450390879029,-87.0625
1774558585.6913435,-3.6486266820205575,0.3927894991371722,-9.54208746894373,-1.416251590282441,-0.8753464678458364,9.86249653988601,0.0014503588035537128,0.006832484392859547,-0.04363323129985824,42.986820580840146,-12.597450390879029,-87.0625
1774558585.7224834,-3.7563480337436927,0.40226356084465953,-9.54973792289085,-1.3921440981265345,-0.8993791272267829,9.804794520381533,6.68960352569869e-05,0.008519398128918413,-0.05890486225480862,46.52054432709981,-10.992677358602947,-89.5
1774558585.7545469,-3.8116739128324864,0.3911804272467815,-9.55218454876883,-1.3761008313951113,-0.9153725935824071,9.759704247560457,0.0,0.0,-0.039269908169872414,46.52054432709981,-10.992677358602947,-89.5
1774558585.7949498,-3.864753427827427,0.38674622347242343,-9.55238054578668,-1.2807394206387508,-0.8868481180352286,9.73638739810402,0.006832484392859547,-0.0014503588035537128,-0.02399827721492203,46.52054432709981,-10.992677358602947,-89.5
1774558585.8149009,-3.9178330780345507,0.382311825164304,-9.55257243526326,-1.2172774670371498,-0.8678653981978514,9.714180071842398,0.0023117490849502422,-0.00797939222865112,-0.017453292519943295,50.137367511582745,-8.996431807027008,-89.75
1774558585.8657372,-3.9397927042069925,0.3804833335777676,-9.552803558313146,-1.2322078579586746,-0.8804824021431166,9.756268243311805,-0.00015172548388107002,-0.001535188252177796,0.002181661564992912,50.137367511582745,-8.996431807027008,-89.75
1774558585.8847482,-3.9397927042069925,0.3804833335777676,-9.552803558313146,-1.2322078579586746,-0.8804824021431166,9.756268243311805,-0.00015172548388107002,-0.001535188252177796,0.002181661564992912,50.137367511582745,-8.996431807027008,-89.75
1774558585.908529,-4.03064586271618,0.37567246028203793,-9.559597058328617,-1.2790805823987494,-0.9018664797289724,9.797657898098292,0.000843456868029433,0.000691731384148363,-0.04036073895236887,53.76671678642303,-6.424100891064543,-91.75
1774558585.932009,-4.068167243718166,0.3725382787839731,-9.559801493686354,-1.3500572302904055,-0.9097886052267935,9.825202251005962,0.0014503588035537128,0.006832484392859547,-0.04254240051736178,53.76671678642303,-6.424100891064543,-91.75
1774558585.9650273,-4.068167243718166,0.3725382787839731,-9.559801493686354,-1.3500572302904055,-0.9097886052267935,9.825202251005962,0.0014503588035537128,0.006832484392859547,-0.04254240051736178,53.76671678642303,-6.424100891064543,-91.75
1774558585.989935,-4.1582439117088095,0.35856054214686905,-9.562927278205356,-1.3872054456266911,-0.8851581273009625,9.813426704809558,-0.0025483040174553943,0.01342841385321394,-0.06326818538479445,54.588267604992986,-5.750334980300997,-90.25
1774558586.0039866,-4.173802594119236,0.35725629545513077,-9.562900242766649,-1.4326193412222097,-0.885736775041744,9.805590210357321,0.003677278439879872,0.0058373020409490444,0.002181661564992912,54.588267604992986,-5.750334980300997,-90.25
1774558586.0257883,-4.19576678374419,0.3554248550313768,-9.563122649684214,-1.4628417814345733,-0.8861218586493153,9.84051645132657,0.0027489921232263554,0.012129780533541298,-0.017453292519943295,54.588267604992986,-5.750334980300997,-90.25
1774558586.0552397,-4.279436734970414,0.34196865566036816,-9.565970799789214,-1.491439455619101,-0.8760320408575,9.863759474539929,0.002142090187702076,0.0059890275248301135,-0.04363323129985824,57.87344337037462,-2.1669800312973164,-90.25
1774558586.1012816,-4.323896895424218,0.3447124730629347,-9.563666005991866,-1.4742595851234936,-0.8396199574227748,9.70193652635891,0.009362854996947846,0.0006248353488913764,0.007635815477475192,57.87344337037462,-2.1669800312973164,-90.25
1774558586.130381,-4.323896895424218,0.3447124730629347,-9.563666005991866,-1.4742595851234936,-0.8396199574227748,9.70193652635891,0.009362854996947846,0.0006248353488913764,0.007635815477475192,57.87344337037462,-2.1669800312973164,-90.25
1774558586.1738305,-4.389104046474291,0.32811365389285285,-9.64483845908304,-1.4249593027546952,-0.7929849880146548,9.594245162025217,-0.0313465338058144,0.027900972680228276,-0.008726646259971648,59.85866349917679,-0.05388963091244284,-87.0
1774558586.196375,-4.478313467271775,0.30301675341094725,-9.675319811228082,-1.3769866745868375,-0.849016112895902,9.542648432296424,-0.008671123612799482,-0.0014682922169208092,-0.038179077387375956,59.85866349917679,-0.05388963091244284,-87.0
1774558586.2225518,-4.534770191217471,0.3075624197779164,-9.625523368599604,-1.365753599692474,-0.9032741562556513,9.648806076742563,0.02317954926654801,-0.0007406940060382547,-0.037088246604879506,63.23385408996268,1.744189476321276,-86.5625
1774558586.2836647,-4.626267413961924,0.31198456159531823,-9.582847958639874,-1.35191438045946,-0.9471418429827476,9.719452803262879,0.022099537466013425,0.004016596234376204,-0.06435901616729091,63.23385408996268,1.744189476321276,-86.5625
1774558586.319881,-4.60511015773778,0.3239280348509421,-9.570776849589674,-1.3311677579661205,-0.9798523745237132,9.672804282781563,0.008064221677275203,-0.004672460791790374,0.015271630954950384,63.33817284841427,2.7997071676155145,-85.0625
1774558586.3725078,-4.657945444911456,0.3167627997365088,-9.564494135793003,-1.3173611124517612,-1.0016208678636462,9.61165420813349,0.005989027524830114,-0.002142090187702076,-0.04581489286485115,63.33817284841427,2.7997071676155145,-85.0625
1774558586.4358282,-4.743968044086969,0.33168586715654613,-9.562813144174864,-1.2254042510443872,-0.948227734371546,9.57095951654629,0.016650515841450605,0.0037800413018710508,-0.025089107997418487,66.56071816200917,3.502635294686551,-84.25
1774558586.469508,-4.781532676484743,0.32954057583205215,-9.547429886411415,-1.2094245393546326,-0.8892113640094433,9.570638547543055,0.011522878598017018,-0.00888974513193754,-0.018544123302439753,66.56071816200917,3.502635294686551,-84.25
1774558586.500954,-4.878957264052165,0.29381012690267233,-9.536301368116641,-1.147209934006289,-0.8811800302262497,9.597185839915415,-0.007354556879759744,-0.011674604081898089,-0.019634954084936207,65.62204531952386,5.238557108818903,-80.6875
1774558586.5672472,-4.866199899151246,0.2968724514977284,-9.50471087321929,-1.1319321613635995,-0.8756301257656427,9.68510011229024,0.009465617858939025,-0.021862982533508272,0.002181661564992912,65.62204531952386,5.238557108818903,-80.6875
1774558586.608447,-4.881399674961299,0.2931732931060974,-9.445163058929532,-1.1800642824049845,-0.932727402754206,9.743606078488916,0.014981535518758833,-0.013107029472084706,0.008726646259971648,68.47330992514901,7.576921152057091,-77.5
1774558586.6921003,-4.838252657736925,0.30692665125801044,-9.432922859915086,-1.2184594046594879,-0.9629654377984781,9.769160698610392,0.010898043249125642,0.00047310986501030594,0.028361600344907856,68.47330992514901,7.576921152057091,-77.5
1774558586.7263484,-4.839818756594981,0.32619108515787176,-9.424789245474397,-1.2800720853956467,-0.9391176441577582,9.622256539178775,0.003003480469098605,-0.008822849096680553,0.00545415391248228,68.51677607450384,8.016720190096358,-75.75
1774558586.8705382,-4.703394492066247,0.31748334389176064,-9.341612487646982,-1.320857113381573,-0.8901289530944202,9.566476801030117,0.008166984539266382,-0.027160278674190023,0.04254240051736178,69.75971196247293,9.359391642238867,-72.5625
1774558586.9068758,-4.643752703357921,0.3225339009304712,-9.288149406564354,-1.2275256590665193,-0.847905758304965,9.597761355808128,0.010679421729987586,-0.009581476516085902,0.02399827721492203,69.75971196247293,9.359391642238867,-72.5625
1774558586.9524648,-4.643752703357921,0.3225339009304712,-9.288149406564354,-1.2275256590665193,-0.847905758304965,9.597761355808128,0.010679421729987586,-0.009581476516085902,0.02399827721492203,69.75971196247293,9.359391642238867,-72.5625
1774558586.999904,-4.556670094903868,0.34071820962245714,-9.259897962458046,-1.2343751432718884,-0.8201218236057729,9.61858087754152,-0.0007586274194053499,-0.007675941260888979,0.008726646259971648,69.48227894039383,9.697677273414735,-71.0625
1774558587.0419252,-3.6392360233427095,0.4246067634301747,-9.201190768120387,-1.1901447759744372,-0.8611219235585285,9.642471371807753,0.006698692322345575,-0.01848915506139054,0.04581489286485115,69.48227894039383,9.697677273414735,-71.0625
1774558587.078212,-3.6392360233427095,0.4246067634301747,-9.201190768120387,-1.1901447759744372,-0.8611219235585285,9.642471371807753,0.006698692322345575,-0.01848915506139054,0.04581489286485115,69.48227894039383,9.697677273414735,-71.0625
1774558587.1532383,-4.237635139582589,0.41165783648871423,-9.132794959138591,-1.201663666030912,-0.7905425025215277,9.663438594422974,0.003543486369365898,-0.011201494216887781,0.031634092692397225,69.00284661348611,9.78946994150897,-66.1875
1774558587.1699612,-4.119411930431499,0.4330069246249915,-9.08888180505804,-1.1837446357971404,-0.7804963919579755,9.702429686664706,0.0080821550906423,-0.020176068797449404,0.04908738521234052,67.75785570772062,10.223381101265458,-65.5
1774558587.2594805,-4.026277640824814,0.44409715928490484,-9.079789897719012,-1.174406243002996,-0.775932062057834,9.728377822992538,-0.001686913736058866,-0.001383462768296726,0.031634092692397225,67.75785570772062,10.223381101265458,-65.5
1774558587.317014,-3.789469751336268,0.5152365741713413,-9.040688346405236,-1.2112319606963695,-0.7995401750431184,9.742300906151716,-0.002142090187702076,-0.0059890275248301135,0.044724062082354694,68.28944741385413,10.65934727881834,-63.0
1774558587.3817124,-3.62352146449899,0.5255401412358327,-9.033260253485238,-1.2357390644510886,-0.8152511105149232,9.74487633904848,-0.009362854996947846,-0.0006248353488913764,0.037088246604879506,68.28944741385413,10.65934727881834,-63.0
1774558587.4041698,-3.62352146449899,0.5255401412358327,-9.033260253485238,-1.2357390644510886,-0.8152511105149232,9.74487633904848,-0.009362854996947846,-0.0006248353488913764,0.037088246604879506,68.28944741385413,10.65934727881834,-63.0
1774558587.4335248,-3.3950409233973327,0.538765966533853,-9.003804241339845,-1.2520482682375678,-0.8257065625687606,9.746590260871805,-0.009193196099699678,-0.014593255102372608,0.10471975511965978,67.08408979695707,11.044931919835415,-62.1875
1774558587.4798784,-3.024274735342385,0.5822819323363588,-8.964972777093031,-1.2629018611717258,-0.8326645491155373,9.613926388406693,0.003931766785752121,-0.015115327589272807,0.1308996938995747,67.08408979695707,11.044931919835415,-62.1875
1774558587.52209,-3.024274735342385,0.5822819323363588,-8.964972777093031,-1.1977021996099146,-0.7779001666267703,9.525640063233718,-0.004975911759552515,-0.011134598181630794,0.14508049407202864,67.53258206486731,11.089425578088441,-62.25
1774558587.5713336,-2.5519234677942286,0.6120899672396606,-8.911984874711703,-1.1977021996099146,-0.7779001666267703,9.525640063233718,-0.004975911759552515,-0.011134598181630794,0.14508049407202864,67.53258206486731,11.089425578088441,-62.25
1774558587.5989013,-2.101599807976791,0.6378809671589621,-8.905790028682151,-1.1820388785469513,-0.7814985908746427,9.520408287371085,-0.01686913736058866,-0.01383462768296726,0.15926129424448257,67.53258206486731,11.089425578088441,-62.25
1774558587.6528916,-1.8393394464622634,0.6554259178099128,-8.898264249298085,-1.1588876466053437,-0.799412431961051,9.51692659897727,-0.00888974513193754,-0.011522878598017018,0.1538071403320003,67.53258206486731,11.089425578088441,-62.25
1774558587.721665,-1.0807319316289559,0.7114801600187128,-8.887246425156548,-1.1613812704248703,-0.8000572520618459,9.578166696683262,-0.013883590304857151,-0.0071538687739887835,0.136353847812057,67.37404890939354,11.282731653046078,-60.1875
1774558587.7989578,-0.04850985376272132,0.7653484036859073,-8.792263375205227,-1.2472169073434392,-0.8400489200316618,9.70510060278709,-0.015516703800814732,-0.055048155559262596,0.21707532571679475,66.80665677487796,11.383217551011283,-59.375
1774558587.8268359,0.42365433177969114,0.7523711531591892,-8.73465070293545,-1.2811042305852336,-0.8424693634489517,9.740190622957854,-0.014945668692024641,-0.017900186539233354,0.11780972450961724,66.80665677487796,11.383217551011283,-59.375
1774558587.8919961,0.42365433177969114,0.7523711531591892,-8.73465070293545,-1.2811042305852336,-0.8424693634489517,9.740190622957854,-0.014945668692024641,-0.017900186539233354,0.11780972450961724,66.80665677487796,11.383217551011283,-59.375
1774558587.9264328,0.7941331033056026,0.7900211056078865,-8.73541694449521,-1.2596849974747446,-0.808018985727628,9.65649906476607,-0.006292478492592254,-0.0009282863166535159,0.11235557059713497,66.17841203126565,10.867984795721512,-59.0
1774558587.9844744,1.0655129019446092,0.8992887079017049,-8.675160336016983,-1.2390670037357423,-0.7928522091632627,9.6008032676854,0.051250180844024454,0.016637420046294905,0.08835729338221293,66.17841203126565,10.867984795721512,-59.0
1774558588.0142875,1.5413014773220983,0.9982150769515599,-8.656173170493176,-1.1900102162998487,-0.8100199369619009,9.613915012500824,0.0020082981171881025,-0.011049768733006712,0.21162117180431245,65.12953255204599,12.836845973679944,-57.375
1774558588.1418023,2.5101174602761347,1.1310914164221662,-8.641231094797941,-1.1214280652292077,-0.8021535565929759,9.72368207670609,0.027869943471705478,-0.00818008033442208,0.09817477042468103,64.45398879859245,11.393688623572235,-55.5
1774558588.1868422,2.8266092738642534,1.4054956938669714,-8.51228381697463,-1.0686275089428876,-0.8371071945792605,9.642167699940746,0.08003047721901636,0.0176684692249396,0.16580627893946132,63.15197814421658,11.700006686852422,-57.0625
1774558588.3067229,3.3708904975573266,1.5706084240355815,-8.410510463973766,-1.104365955940308,-0.8319717060789115,9.715035037656797,0.006595929460354394,0.003998662821009108,0.061086523819801536,63.15197814421658,11.700006686852422,-57.0625
1774558588.3281648,3.3708904975573266,1.5706084240355815,-8.410510463973766,-1.104365955940308,-0.8319717060789115,9.715035037656797,0.006595929460354394,0.003998662821009108,0.061086523819801536,63.15197814421658,11.700006686852422,-57.0625
1774558588.4108303,3.83149324485289,1.5355230986021922,-8.408187962614692,-1.2962691896235174,-0.7566358734370232,9.7824417800997,-0.02162642760100312,-0.014914639483501847,0.06654067773228381,64.54961432717307,12.361246507258619,-53.5
1774558588.449778,3.83149324485289,1.5355230986021922,-8.408187962614692,-1.2962691896235174,-0.7566358734370232,9.7824417800997,-0.02162642760100312,-0.014914639483501847,0.06654067773228381,64.54961432717307,12.361246507258619,-53.5
1774558588.5120413,4.221412240450056,1.5670866297299857,-8.393123593754193,-1.3090151282527343,-0.7216654199869897,9.785533673241874,-0.014811876621510666,-0.0008613902813965288,0.055632369907319255,63.79658183867264,13.279450363307399,-53.0625
1774558588.6860642,4.870034526051706,0.990611547853861,-8.688255021738339,-1.308287919871401,-0.7297728921438029,9.636432069733646,-0.112670806726292,-0.06559862283694762,0.16144295580947549,62.353424488564926,13.954994116760929,-50.25
1774558588.756361,4.885298268284685,1.0362527150005223,-8.712599250610765,-1.3260532297743954,-0.748197212287477,9.725475495862169,0.007658007847521884,0.01474498058625368,0.06654067773228381,61.48738001174194,13.729720473907616,-51.0625
1774558588.79021,4.932820233032337,1.03038805388341,-8.709174982868076,-1.2677151910029456,-0.7403140204468709,9.830687455965197,-0.017172588328350797,-0.01690500418732285,0.0272707695624114,61.28921356739972,13.971353067604664,-48.75
1774558588.9394224,5.1221326930005855,1.0575789963420947,-8.716681670358854,-1.124806457553928,-0.7656435885917858,9.68677257989621,-0.0033917608854848276,0.012736682469065577,-0.011999138607461015,61.38969946536492,14.538745202120227,-48.25
1774558588.9957476,5.152132042976324,1.0755378608664201,-8.715986663362859,-1.1622944445119034,-0.7277151396683672,9.6577461826077,0.005042807794809501,0.019653996310549204,-0.001090830782496456,58.79259354379417,12.974632967610786,-48.25
1774558589.0384362,5.073424777511139,1.0790361777756192,-8.719766507453931,-1.1811936774608995,-0.6412732211002291,9.591597875555827,0.009818031448591056,0.005230400105424764,-0.018544123302439753,58.79259354379417,12.974632967610786,-48.25
1774558589.1950302,4.617065802958122,1.0540281171917427,-8.742770931630686,-1.2462901743404107,-0.5367319702094289,9.54188211160869,-0.0006248353488913765,0.009362854996947846,-0.10362892433716332,59.51646381598711,14.457423606586943,-46.25
1774558589.2818317,3.5627869924855564,0.9703222189448971,-8.76118042502432,-1.199173080589314,-0.6099868329825725,9.552011493238872,0.024326457102339584,0.0030214138824657018,-0.2279836335417593,59.13265701766002,15.516774158367566,-46.25
1774558589.4054213,2.225307631252991,0.8615335266599616,-8.759066751806685,-1.2745742636832547,-0.7429962025991032,9.837297810523154,0.01939950796467696,0.015909821835412348,-0.16907877128695067,58.32746514993379,15.907219168769224,-46.75
1774558589.4881594,1.7965316109120288,0.8474856559188843,-8.768682418716113,-1.3110521638594324,-0.8004901403231764,9.874997951869107,0.013968419753481233,0.00016965889724816595,-0.11999138607461016,58.32746514993379,15.907219168769224,-46.75
1774558589.5865293,0.2639282608465581,0.7423168120009445,-8.789250349894138,-1.3689793624119773,-0.8253090416182762,9.788644777124738,0.015789125560054074,0.018591917923381718,-0.23125612588924865,58.31110619909006,14.843008247604022,-46.25
1774558589.6411986,0.2639282608465581,0.7423168120009445,-8.789250349894138,-1.3689793624119773,-0.8253090416182762,9.788644777124738,0.015789125560054074,0.018591917923381718,-0.23125612588924865,58.31110619909006,14.843008247604022,-46.25
1774558589.689021,-0.7256441560838485,0.6755373444991459,-8.798348583937537,-1.2724895832418246,-0.8744593049069641,9.690189071151478,0.013410480439846844,0.018051912023114423,-0.18871372537188688,57.02162163507154,15.725411675270735,-45.5
1774558589.7167182,-1.0259221805820276,0.6617495862577512,-8.803536353655549,-1.2098711894924912,-0.888332655344803,9.623223590592858,0.01680224132533167,0.005315229554048846,-0.17889624832941878,57.02162163507154,15.725411675270735,-45.5
1774558589.8899643,-2.6954334221791076,0.5673927009779153,-8.820441212673124,-1.0531478885372472,-0.9127956018566068,9.720960589533394,0.017190521741717896,0.0014013961816638223,-0.16798794050445423,55.48667161686959,15.92152310181656,-43.875
1774558590.1498723,-4.370587982174264,0.4528626583302129,-8.844246701559058,-0.9983897542224818,-0.8606269142718251,9.667005699903282,0.006577996046987298,0.01950227082666814,-0.16580627893946132,54.62062714004661,15.696249458963244,-43.0625
1774558590.469554,-6.832500316575236,0.3626973546429876,-8.856815651000618,-1.2459327268746025,-0.6868890510991231,9.559637065136918,0.008501464715551316,0.015436711970402042,-0.09490227807719166,51.1477560028837,14.707195079942137,-42.6875
1774558590.8285108,-10.702067040395114,0.17794734389538291,-8.852031759171249,-1.243918289819216,-0.7310183724265559,9.690587628769345,0.011335286287401755,0.020582282627202724,-0.20507618710933373,49.508487226230166,13.847788815193722,-39.875
1774558591.0109332,-12.309119632779685,0.0714036865004216,-8.862321085812656,-1.338485630617956,-0.6482234864499329,9.531987581681546,0.010424933384115336,0.011371153114135947,-0.20398535632683726,47.735737474817554,14.333859354176,-40.6875
1774558591.2191489,-14.299764482026973,0.02378269667636203,-8.826865613761406,-1.18422479265595,-0.7494477307956126,9.499412006731296,0.01725741777697488,0.009920794310582235,-0.18216874067690814,47.24966693583528,12.56110960276339,-39.0625
1774558591.288009,-15.406192769014648,-0.04155788744176941,-8.820739951699274,-1.182405264334501,-0.7245006675892879,9.488597099894191,0.02117125114935991,0.010309074726968459,-0.18980455615438332,45.42859066568325,13.007546852877226,-40.6875
1774558591.392096,-16.058015166618915,-0.07634938297467193,-8.822866378829907,-1.1335813854458903,-0.6713079816768452,9.479031050529047,0.015333949108410865,0.01398635316684833,-0.20289452554434081,45.42859066568325,13.007546852877226,-40.6875
1774558591.429112,-17.100154461905543,-0.08552535301775212,-8.814783064493739,-1.2597340291588772,-0.7299076652309475,9.52189107112268,0.02807063157747644,0.017378114052333155,-0.21162117180431245,45.27211252800588,11.424270315935868,-40.6875
1774558591.5120916,-17.65607775192301,-0.09947429831746435,-8.812879405085885,-1.3087855711019294,-0.7244753076990733,9.521258486707495,0.008113184299165094,0.01935054534278707,-0.2301652951067522,44.11022106046366,12.24965399499221,-40.25
1774558591.584005,-18.180773591070995,-0.11774048257107274,-8.813251662878665,-1.2819388261952231,-0.6720715119226485,9.510802173723663,0.019702958932439098,0.01898019833976794,-0.1930770485018727,44.11022106046366,12.24965399499221,-40.25
1774558591.6954231,-19.77175623392587,-0.19113151808289247,-8.804554658772425,-1.1529434151604823,-0.6917910345004747,9.512844734485663,0.016110509941183307,0.0061586864220782795,-0.16471544815696484,44.546187238016536,11.718062288858707,-40.25
1774558591.7154813,-19.77175623392587,-0.19113151808289247,-8.804554658772425,-1.1529434151604823,-0.6917910345004747,9.512844734485663,0.016110509941183307,0.0061586864220782795,-0.16471544815696484,44.546187238016536,11.718062288858707,-40.25
1774558591.7671273,-20.602861863728165,-0.2483381627179893,-8.801287836329506,-1.1873055346285901,-0.7534043477319574,9.48897487814691,0.020024343313568334,0.006546966838464502,-0.18544123302439752,44.09591712741632,9.40886046192801,-40.25
1774558591.8230395,-21.040576400429313,-0.22059568694794726,-8.812979736241,-1.2394277666090916,-0.7184343656531567,9.482627569443492,0.021322976633240977,0.011844262979146253,-0.19416787928436915,44.09591712741632,9.40886046192801,-40.25
1774558591.8790689,-21.611654755609276,-0.25101271368742417,-8.808100958722477,-1.1935072403638454,-0.7934500562143967,9.585447081039671,0.014423596205124444,0.004775223653781554,-0.18544123302439752,43.528524992900756,9.509346359893213,-39.875
1774558591.9490674,-22.05933633578642,-0.27016126777990823,-8.810328057738653,-1.2435549324983115,-0.7450843373083452,9.590315194998658,0.016025680492559227,0.013142896298818898,-0.19962203319685143,43.528524992900756,9.509346359893213,-39.875
1774558591.9968522,-22.983552763817148,-0.2648687493691477,-8.825603030888233,-1.1827829546449606,-0.8050960635166952,9.662565792460923,0.01777949026387508,0.023045757196034036,-0.15926129424448257,41.93272236560205,9.089739133184063,-41.5
1774558592.0221903,-23.34494729056049,-0.27745391069241554,-8.827804307248986,-1.1697289075676822,-0.8236012642332735,9.748680410611268,0.013798760856233067,0.0141380786507294,-0.14835298641951802,43.80212515449348,8.682935171938672,-40.6875
1774558592.0582254,-23.34494729056049,-0.27745391069241554,-8.827804307248986,-1.1697289075676822,-0.8236012642332735,9.748680410611268,0.013798760856233067,0.0141380786507294,-0.14835298641951802,43.80212515449348,8.682935171938672,-40.6875
1774558592.112187,-23.652158551600344,-0.3096313518579314,-8.822074664888298,-1.2577284349108742,-0.8762749073986298,9.812678950441645,0.007135935360621687,0.0016200177008018793,-0.16253378659197193,43.80212515449348,8.682935171938672,-40.6875
1774558592.1474173,-24.111087700634783,-0.33820662707345533,-8.819281193922068,-1.3332610929985933,-0.8906364552600504,9.85526926378823,0.013410480439846844,0.018051912023114423,-0.18216874067690814,43.372046855223374,7.926069822951853,-41.5
1774558592.1822822,-24.62583696095689,-0.3931416042394033,-8.813915645881215,-1.3489718972496778,-0.8632021947549138,9.82005551911634,0.004520735307909305,0.006529033425097407,-0.19525871006686563,43.372046855223374,7.926069822951853,-41.5
1774558592.2504268,-25.290718023277115,-0.44437968907815606,-8.811592013169525,-1.3224143222282432,-0.7967338864742864,9.6751721873388,0.007439386328383827,0.004690394205157471,-0.17562375598192942,42.65864765559139,8.795947160261223,-40.25
1774558592.3889706,-26.46730545282519,-0.37087238836325287,-8.835697300075513,-1.3270186973714968,-0.7807187648870777,9.627720664993275,0.008804915683313458,0.018507088474757637,-0.14944381720201447,42.936080677670496,8.457661529085357,-40.6875
1774558592.4238064,-26.75227873335934,-0.38603650000937184,-8.833575495130217,-1.2980001271960433,-0.7732883855565679,9.635173351429504,0.002985547055731509,0.006680758908978477,-0.18216874067690814,42.40448897153699,8.021695351532475,-40.25
1774558592.464952,-27.213462103017093,-0.3652657122793437,-8.827138361610432,-1.2786885929029477,-0.7683435511148892,9.640133031000852,0.008804915683313458,0.018507088474757637,-0.20289452554434081,42.40448897153699,8.021695351532475,-40.25
1774558592.4825728,-27.540841540836748,-0.3836702111593358,-8.824910350751882,-1.326517670740036,-0.8018393876655143,9.727061435035317,0.015182223624529794,0.012451164914670534,-0.18980455615438332,41.97057781178051,6.776704445766981,-40.6875
1774558592.4952831,-27.540841540836748,-0.3836702111593358,-8.824910350751882,-1.326517670740036,-0.8018393876655143,9.727061435035317,0.015182223624529794,0.012451164914670534,-0.18980455615438332,41.97057781178051,6.776704445766981,-40.6875
1774558592.5486712,-27.805869428175626,-0.39035587647222525,-8.820984018305671,-1.3583473877548105,-0.8241304927169442,9.784911316866355,0.02039469031658746,0.018136741471738507,-0.1461713248545251,41.97057781178051,6.776704445766981,-40.6875
1774558592.5831969,-28.52432609065942,-0.4402239920459876,-8.810218786610275,-1.262095691642355,-0.8291793180083129,9.773233091389598,0.0068145509794924515,0.014053249202105317,-0.18653206380689397,42.92560960510954,6.104993552799832,-42.6875
1774558592.6760147,-28.75714730520426,-0.4719442059292499,-8.81217300507205,-1.1453278054344507,-0.8048726913209175,9.738028019482686,0.002918651020474522,-0.001838639219939936,-0.002181661564992912,42.72744316076732,6.34662614649688,-42.25
1774558592.7317834,-28.75714730520426,-0.4719442059292499,-8.81217300507205,-1.1453278054344507,-0.8048726913209175,9.738028019482686,0.002918651020474522,-0.001838639219939936,-0.002181661564992912,42.72744316076732,6.34662614649688,-42.25
1774558592.7922206,-29.617688175677145,-0.5175408903175485,-8.80452370327943,-1.0735700330584441,-0.6147520662626734,9.867265320542801,0.018100874645004317,0.010612525694730599,-0.16471544815696484,43.06572879194319,6.624059168575987,-41.875
1774558592.882826,-30.219197098477302,-0.5857775807356262,-8.79829041006977,-1.20750378746089,-0.6360986247262683,9.777862085271982,0.014187041272619291,0.010224245278344375,-0.1832595714594046,43.06572879194319,6.624059168575987,-41.875
1774558592.9103217,-30.44890746812943,-0.5689082484882257,-8.79084387158687,-1.2148372254358721,-0.7605943978097245,9.718365230898828,0.015333949108410865,0.01398635316684833,-0.09272061651219876,42.6318176321867,5.3790682628104936,-41.875
1774558593.0230913,-31.18468222442484,-0.45280295338292537,-8.715037594836074,-1.173197826739169,-0.751414773258516,9.662733985920356,0.009278025548323762,0.007609045225631992,-0.14180800172453928,42.683977011412495,5.9068271084576125,-41.875
1774558593.1919873,-31.66510913535145,-0.4144428504738843,-8.693193584965915,-1.1894755730427107,-0.7287168341404687,9.75017174655012,0.01005458638109621,-0.0002186215191380569,-0.038179077387375956,43.55385434872186,6.620226308089602,-42.6875
1774558593.4981067,-32.00070222316796,-0.3995496748548069,-8.678170965278458,-1.14546346120152,-0.7491177375446071,9.68618725419053,0.004757290240414458,0.001080011800534586,0.003272492347489368,42.92177674462316,5.616867996021156,-42.25
1774558593.6034536,-32.0841349668675,-0.4265103563270051,-8.63881121569771,-1.0817916168830022,-0.7294633914547882,9.798641015120086,-0.03301551412850617,0.011013901906272517,-0.026179938779914945,42.92560960510954,6.104993552799832,-41.0625
1774558593.6964314,-32.08667706834606,-0.5004239253243792,-8.622080318676188,-0.9802072586305204,-0.6390639439599805,9.855209545823163,-0.013580139337095011,-0.004083492269633192,0.006544984694978736,43.835120231287355,6.770066233692413,-41.875
1774558593.7610376,-32.04194491991662,-0.5292728215089345,-8.599263024555917,-0.9570612593999751,-0.67088899576246,9.82670600089232,-0.0015172548388106997,-0.015351882521777958,0.011999138607461015,43.835120231287355,6.770066233692413,-41.875
1774558593.8764803,-30.780756022373282,-0.46447440198026246,-8.595556827522525,-1.0964354741312197,-0.8012734048050373,9.75144931232462,-0.01196012163629313,-0.011219427630254877,0.21925698728178766,42.92560960510954,6.104993552799832,-42.25
1774558593.9254267,-30.780756022373282,-0.46447440198026246,-8.595556827522525,-1.0964354741312197,-0.8012734048050373,9.75144931232462,-0.01196012163629313,-0.011219427630254877,0.21925698728178766,42.92560960510954,6.104993552799832,-42.25
1774558593.9987211,-29.811097280500004,-0.3872137848260266,-8.583896457063231,-1.1642561926617703,-0.8420646305937369,9.73089383091824,-0.021693323636260108,-0.02343403761242026,0.2399827721492203,42.92560960510954,6.104993552799832,-42.25
1774558594.0343006,-28.99700102448371,-0.2929893855128419,-8.573255202233025,-1.1606194315789513,-0.8427987311063881,9.657969655353726,-0.01157184121990691,-0.015133261002639904,0.1712604328519436,43.06572879194319,6.624059168575987,-40.6875
1774558594.080677,-28.99700102448371,-0.2929893855128419,-8.573255202233025,-1.1606194315789513,-0.8427987311063881,9.657969655353726,-0.01157184121990691,-0.015133261002639904,0.1712604328519436,43.06572879194319,6.624059168575987,-40.6875
1774558594.1023326,-28.27957170365136,-0.22961315401127894,-8.587438782598213,-1.1980196443312219,-0.8753375918947437,9.672029275147619,-0.017712594228618095,-0.014526359067115623,0.2301652951067522,44.661531419241896,7.043666395285135,-40.25
1774558594.1293807,-28.039102451454493,-0.18955275025819043,-8.590764155748008,-1.2462427571625458,-0.868540102031286,9.68138579506421,-0.010576658867996405,-0.012906341366313743,0.21271200258680892,44.661531419241896,7.043666395285135,-40.25
1774558594.1714513,-27.59616688053948,-0.09862876346555077,-8.558020880179363,-1.252524477599571,-0.7952610655324804,9.687612454549527,-0.018100874645004317,-0.010612525694730599,0.20398535632683726,43.59732049807669,7.060025346128869,-41.5
1774558594.190654,-27.59616688053948,-0.09862876346555077,-8.558020880179363,-1.252524477599571,-0.7952610655324804,9.687612454549527,-0.018100874645004317,-0.010612525694730599,0.20398535632683726,43.59732049807669,7.060025346128869,-41.5
1774558594.307084,-26.587505589566216,0.09840467585116855,-8.489593261229583,-1.1752480702476287,-0.6838689392811842,9.618749456133148,-0.012500127536560424,-0.00884078251004765,0.07963064712224129,42.642288704747656,7.731736239096019,-41.875
1774558594.4104972,-25.788438130421827,0.15538614399783604,-8.51049730820699,-1.0817135855177111,-0.7343168623390482,9.53697280943691,-0.024023006134577446,4.8962621889890736e-05,0.15926129424448257,43.17388041088116,8.1677024166489,-40.25
1774558594.4484568,-25.575225233167856,0.19331442683832867,-8.5126428266043,-1.1162363808032307,-0.6753090220836995,9.524604991666921,-0.014963602105391738,-0.0023965785335743253,0.10362892433716332,42.12705594945788,8.359980982708342,-40.6875
1774558594.510122,-25.28245244599431,0.2151006972702612,-8.512034773481176,-1.193527870233539,-0.6805860971619137,9.51637434709857,-0.011741500117155074,-0.0011648412491586688,0.10581058590215622,42.12705594945788,8.359980982708342,-40.6875
1774558594.5607471,-24.87682265408156,0.274197273716633,-8.511832688053227,-1.248481569105152,-0.6956347083656517,9.554383397275808,-0.008822849096680553,-0.003003480469098605,0.08726646259971647,42.014043961135336,7.216503483806249,-43.0625
1774558594.647275,-24.66145692450674,0.2833913972034569,-8.512925116116907,-1.3223137509875995,-0.7229127772956764,9.589821044777374,0.001316566733039739,-0.010206311864977278,0.09381144729469522,44.5318833049692,8.877268755794505,-41.0625
1774558594.8485532,-24.085724954959748,0.3872892166870825,-8.525778721991449,-1.2117965859561362,-0.7127164049526022,9.580992567255912,-0.009059404029185706,0.0024455411554642164,0.015271630954950384,43.7208035589602,10.556170821316485,-41.0625
1774558595.029854,-24.08529871875811,0.3824880333566437,-8.505412386338813,-1.1508449131936038,-0.7703909543180133,9.630580799233252,0.003458656920741815,-0.004217284340147165,0.003272492347489368,43.483003825749535,10.846129933752941,-41.5
1774558595.100987,-24.064329716022655,0.39770526248749893,-8.502282642451942,-1.156289056839061,-0.7593261967628387,9.643766962231055,-0.009666305964709986,-0.0036952118532469678,0.018544123302439753,43.483003825749535,10.846129933752941,-41.5
1774558595.217208,-24.165491221840202,0.38695706173151445,-8.488698477107336,-1.1384592942392484,-0.7058756751159039,9.65838203338019,0.01535188252177796,-0.0015172548388106997,-0.04145156973486533,42.577326060058105,10.669182809639038,-41.5
1774558595.2871525,-24.35441445398226,0.39270801931770183,-8.419809234745255,-1.1647563857848378,-0.7171174119934615,9.662268372995708,0.022487817882399647,0.00010276286199117946,-0.06326818538479445,44.74052082187237,10.988304138382984,-40.25
1774558595.3397276,-24.441714544243908,0.42204308923513945,-8.419393028926365,-1.2130899247998628,-0.723928243563026,9.725066699328325,0.027178212087557118,-0.007336623466392651,-0.04799655442984406,44.74052082187237,10.988304138382984,-40.25
1774558595.3807817,-24.802141307652207,0.4191443119259591,-8.429373729508278,-1.3394106773981826,-0.7191552318855461,9.723371831804261,0.018640880545271608,0.008233880574523369,-0.1832595714594046,45.028424916512435,13.002686483492642,-40.6875
1774558595.478371,-26.195644183089637,0.3247747139559089,-8.439432856774117,-1.4159096412657135,-0.8967333173055163,9.72149330129795,0.008974574580561622,0.004538668721276401,-0.1832595714594046,45.27005751020948,13.200852927834863,-40.25
1774558595.6061482,-27.00356884840301,0.2940540311950424,-8.442657785119826,-1.256250921511046,-0.8511572095484715,9.681662623114233,0.016413960908945452,0.009229062926433874,-0.14835298641951802,44.73846580407598,12.76488675028198,-40.6875
1774558595.7072308,-27.649042181870737,0.29870203340169926,-8.454737468962941,-1.2602655010065342,-0.8667767675819037,9.671071121987847,0.016110509941183307,0.0061586864220782795,-0.13962634015954636,44.73846580407598,12.76488675028198,-40.6875
1774558595.7644272,-28.07162532128219,0.30322291716246236,-8.45573974785068,-1.3053620479648793,-0.825440975816317,9.70081882508357,0.019872617829687265,0.005011778586286708,-0.10581058590215622,44.46103278199687,13.103172381457846,-41.0625
1774558595.860984,-28.684000137322357,0.28817617556984354,-8.466088347863588,-1.229027230588094,-0.8633659881175941,9.750503853102328,0.009126300064442693,0.0060738569734541965,-0.09272061651219876,45.46439109406531,12.47109477735914,-41.5
1774558595.8942432,-28.935439514870584,0.30239575146447417,-8.48872132004355,-1.2164883637721617,-0.879814480997672,9.726919526659955,0.01081321380050156,0.007457319741750923,-0.10035643198967395,45.46439109406531,12.47109477735914,-41.5
1774558595.9889994,-29.41118999531846,0.2627725917487345,-8.504748073042272,-1.2692827495290262,-0.8518675166387729,9.655078736611172,0.002985547055731509,0.006680758908978477,-0.10144726277217041,45.028424916512435,13.002686483492642,-43.875
1774558596.0098956,-29.41118999531846,0.2627725917487345,-8.504748073042272,-1.2692827495290262,-0.8518675166387729,9.655078736611172,0.002985547055731509,0.006680758908978477,-0.10144726277217041,45.028424916512435,13.002686483492642,-43.875
1774558596.0881107,-29.745470322823707,0.2606258205844613,-8.551339403400563,-1.2740531512513724,-0.8674586761492424,9.60767927796659,0.004217284340147165,0.003458656920741815,-0.0916297857297023,45.27005751020948,13.200852927834863,-42.6875
1774558596.1434927,-30.093266557747107,0.23837519944711644,-8.572658420933353,-1.3176955317252692,-0.8219601617728669,9.625685947886797,0.008671123612799482,0.0014682922169208092,-0.003272492347489368,44.041425555287724,14.698975008756554,-41.0625
1774558596.2754495,-30.324941680509276,0.2072153527411554,-8.576071126557695,-1.3034836995115162,-0.8391961502190265,9.669326090258162,-0.003003480469098605,0.008822849096680553,-0.06654067773228381,44.11022106046366,12.24965399499221,-41.875
1774558596.886065,-32.01894178111284,0.2193123333766774,-8.732637285130584,-1.462591505733183,-0.8588940719864597,9.668473613381915,0.0111166647682637,0.010527696246106515,-0.1407171709420428,44.223233048786206,13.393131493894302,-42.25
1774558596.9204564,-32.361120371334984,0.24366314434000744,-8.782106965968897,-1.4756987758763906,-0.8927277245953763,9.628842866268688,0.013798760856233067,0.0141380786507294,-0.16471544815696484,44.223233048786206,13.393131493894302,-42.25
1774558597.0196607,-32.83995985102812,0.27727315126302643,-8.778955897831757,-1.4691075293361806,-0.9286415279489341,9.666026169208356,0.020176068797449407,0.0080821550906423,-0.1832595714594046,44.11022106046366,12.24965399499221,-41.5
1774558597.557358,-39.17981936247792,0.30270607593454624,-8.68723510866156,-1.2370664126719197,-0.8092569015475958,9.524119277184804,0.018167770680261305,0.019131923823649012,-0.17453292519943295,42.2226814780385,9.327538866394725,-41.5
1774558597.620074,-39.17981936247792,0.30270607593454624,-8.68723510866156,-1.2370664126719197,-0.8092569015475958,9.524119277184804,0.018167770680261305,0.019131923823649012,-0.17453292519943295,42.2226814780385,9.327538866394725,-41.5
1774558597.762518,-41.24708812390944,0.3529863757667145,-8.730721562579573,-1.2228985574891413,-0.8039256729722123,9.60319052468636,0.007724903882778872,0.023264378715172094,-0.18544123302439752,41.163330926257885,8.943732068067638,-40.75
1774558597.7912428,-41.76703439462697,0.34180703674900514,-8.736981494916611,-1.2086875826845527,-0.8025954863383157,9.63891948731879,0.016110509941183307,0.0061586864220782795,-0.16907877128695067,42.3523295923112,7.4939365058853555,-41.5
1774558597.8481214,-42.446912858140486,0.3113600027376488,-8.744444052786745,-1.2540675638247443,-0.8034212233625734,9.625900484051494,0.015333949108410865,0.01398635316684833,-0.2083486794568231,42.3523295923112,7.4939365058853555,-41.5
1774558597.883361,-42.902016440768065,0.2830785913969896,-8.737931919552315,-1.254570011941015,-0.840182045336588,9.603856035979627,0.01626223542506438,0.007693874674256076,-0.20180369476184434,42.450010138688214,6.6849117776727445,-41.5
1774558597.9788787,-44.01675987514446,0.24691851134524886,-8.737441675864693,-1.2290299010160621,-0.7370352560530784,9.540424035413887,0.01449049224038143,0.013294621782699967,-0.2279836335417593,42.21221040547755,6.974870890109201,-41.0625
1774558598.0111065,-44.82893278726369,0.2128915729873896,-8.73771917551808,-1.204132798049093,-0.6947584571379155,9.560352861075073,0.021019525665478836,0.008773886474790661,-0.18216874067690814,42.21221040547755,6.974870890109201,-41.0625
1774558598.1151,-45.53094814561611,0.20861808419679695,-8.743527972975356,-1.1759722833427453,-0.7176837341335817,9.573615271933022,0.017239484363607786,0.025424402316241265,-0.20289452554434081,41.68061869934405,6.538904712556318,-40.25
1774558598.21739,-46.59020890964596,0.19822796212573982,-8.756579069479512,-1.1218264308298695,-0.7675468427731078,9.628456193969354,0.019872617829687265,0.005011778586286708,-0.20180369476184434,41.38682672642121,5.81297942256698,-41.0625
1774558598.2348166,-46.9633310617526,0.21217238768391405,-8.76966206468993,-1.1854510737368555,-0.7669039986437105,9.659078619697924,0.018640880545271608,0.008233880574523369,-0.2203478180642841,41.38682672642121,5.81297942256698,-41.0625
1774558598.2548316,-47.188727352884925,0.22293373421151988,-8.769219808930941,-1.2150650961126575,-0.781995323003118,9.602519932677032,0.018471221648023443,0.022202300328004604,-0.18435040224190105,41.38682672642121,5.81297942256698,-41.0625
1774558598.311375,-48.032701896551245,0.24906335210652736,-8.754710748355965,-1.1789630518199503,-0.7421954636522604,9.450692369254408,0.01403531578873822,0.008689057026166578,-0.22143864884678055,41.32597411732445,5.197260769312009,-40.6875
1774558598.385269,-48.63039807743827,0.2663008732307023,-8.747664262836796,-1.2150448730306151,-0.7128360873105679,9.500637439614328,0.0222333295365274,0.02105539249221303,-0.2181661564992912,41.38018851434664,3.9484370030601332,-41.0625
1774558598.4864678,-49.87654391145134,0.23396402614185233,-8.72878815380372,-1.2232180054711634,-0.719093030177997,9.703120583281546,0.013495309888470928,0.011067702146373808,-0.23889194136672387,42.82998407652892,5.137435669113449,-39.875
1774558598.5148685,-50.232743704308916,0.2137955814057259,-8.729587874157483,-1.1919852102008808,-0.7192895451107867,9.782359394290335,0.010576658867996405,0.012906341366313743,-0.19744037163185854,42.82998407652892,5.137435669113449,-39.875
1774558598.5419183,-50.70269056012879,0.21299130511772002,-8.744412181946837,-1.2504517508313433,-0.7757633695551872,9.738083698348905,0.016110509941183307,0.0061586864220782795,-0.1636246173744684,42.19790647243021,4.134077357045004,-39.875
1774558598.6043196,-51.01167472642053,0.21742378500979226,-8.745000703458627,-1.2336477940934185,-0.7546766369158738,9.698583382169856,0.008349739231670247,0.013901523718224246,-0.18216874067690814,42.19790647243021,4.134077357045004,-39.875
1774558598.6561685,-51.74555493411201,0.27340472608706035,-8.761412962990008,-1.3481733965202847,-0.7885893209380296,9.661481048809566,0.01894433151303375,0.01130425707887896,-0.2083486794568231,41.6179882475573,3.658477890623677,-40.25
1774558598.6792743,-52.089910049507345,0.28217380065929065,-8.75537107359443,-1.36546474357827,-0.8136567540655048,9.69443673851156,0.01702086284446973,0.015369815935145057,-0.19744037163185854,41.6179882475573,3.658477890623677,-40.25
1774558598.709455,-52.089910049507345,0.28217380065929065,-8.75537107359443,-1.36546474357827,-0.8136567540655048,9.69443673851156,0.01702086284446973,0.015369815935145057,-0.19744037163185854,41.6179882475573,3.658477890623677,-40.25
1774558598.7863908,-52.97941990040112,0.26316101877676157,-8.758242059837913,-1.3351878911710326,-0.8138710753015631,9.783401915593679,0.009818031448591056,0.005230400105424764,-0.15489797111449674,40.80027028947373,3.4728375366388073,-41.0625
1774558598.8057148,-52.97941990040112,0.26316101877676157,-8.758242059837913,-1.3351878911710326,-0.8138710753015631,9.783401915593679,0.009818031448591056,0.005230400105424764,-0.15489797111449674,40.80027028947373,3.4728375366388073,-41.0625
1774558598.8676653,-53.655103839116975,0.19629280102422636,-8.801496086067994,-1.3005361539720706,-0.8311386040383602,9.812767067246037,0.004453839272652318,-0.001990364703821006,-0.03599741582238305,42.911305672062205,3.2642000197356347,-39.875
1774558598.8870137,-53.655103839116975,0.19629280102422636,-8.801496086067994,-1.3005361539720706,-0.8311386040383602,9.812767067246037,0.004453839272652318,-0.001990364703821006,-0.03599741582238305,42.911305672062205,3.2642000197356347,-39.875
1774558598.9129617,-53.71087217105926,0.19199843770372627,-8.801476735191242,-1.2990022133103158,-0.7788557642502743,9.748284329903003,-0.002918651020474522,0.001838639219939936,-0.044724062082354694,42.911305672062205,3.2642000197356347,-39.875
1774558598.992593,-53.90034827279712,0.19124391256862142,-8.809285943712727,-1.2463059538929335,-0.6540942909063353,9.705371788520587,0.008046288263908108,0.010831147213868655,-0.07526732399225546,41.37635565386026,3.460311446281458,-41.5
1774558599.0271308,-54.43804669474853,0.24936674098162798,-8.771319099789668,-1.211237181906454,-0.571066924072919,9.673468859887766,0.0111166647682637,0.010527696246106515,-0.2083486794568231,41.37635565386026,3.460311446281458,-41.5
1774558599.1117399,-55.72859018856044,0.23540186774627456,-8.756313889906727,-1.2547206834096056,-0.6229897307567652,9.61584745082157,0.016953966809212743,0.006850417806226643,-0.15926129424448257,41.89542126963641,3.320192259447809,-40.25
1774558599.1652913,-55.72859018856044,0.23540186774627456,-8.756313889906727,-1.2547206834096056,-0.6229897307567652,9.61584745082157,0.016953966809212743,0.006850417806226643,-0.15926129424448257,41.89542126963641,3.320192259447809,-40.25
1774558599.2415264,-56.84813613362065,0.2776401363617697,-8.729727430155306,-1.3025256215080367,-0.7270234357005709,9.610399017520798,0.016887070773955754,-0.0016689803226917694,-0.19853120241435498,42.62134655962575,3.0264002865249715,-41.5625
1774558599.3062835,-57.46763533346182,0.2942025995849028,-8.720909875720812,-1.3000110519624928,-0.7785288072354914,9.600230206580814,0.019636062897182113,0.010460800210849528,-0.16907877128695067,41.315503044763496,2.844592793026483,-40.25
1774558599.328516,-57.90411947357352,0.30336722683342154,-8.717755235888873,-1.2983376340195156,-0.8128050566392824,9.660365210639705,0.013258754955965776,0.01651672377093663,-0.19198621771937624,41.315503044763496,2.844592793026483,-40.25
1774558599.4000423,-58.7090394122494,0.34549013989076616,-8.748092958895448,-1.3878490625751292,-0.7657645222624387,9.702529217763233,0.0058193686275819475,0.011826329565779158,-0.19634954084936207,41.263343665537704,2.3168339473793673,-40.25
1774558599.429414,-58.7090394122494,0.34549013989076616,-8.748092958895448,-1.3878490625751292,-0.7657645222624387,9.702529217763233,0.0058193686275819475,0.011826329565779158,-0.19634954084936207,41.263343665537704,2.3168339473793673,-40.25
1774558599.4655025,-59.18027435022455,0.3449434482049544,-8.745154179002364,-1.4185140796784619,-0.7554267917354127,9.69164783104626,0.006359374527849241,0.009447684445571928,-0.15817046346198613,41.461510109879924,2.0752013536823193,-40.75
1774558599.514136,-59.65044601903053,0.33051664798676156,-8.741112711893551,-1.3629816235348753,-0.6776155260518717,9.684406389739168,0.01955123344855803,0.017445010087590147,-0.23125612588924865,41.461510109879924,2.0752013536823193,-40.75
1774558599.535574,-59.65044601903053,0.33051664798676156,-8.741112711893551,-1.3629816235348753,-0.6776155260518717,9.684406389739168,0.01955123344855803,0.017445010087590147,-0.23125612588924865,41.461510109879924,2.0752013536823193,-40.75
1774558599.6149464,-60.68066974590415,0.36540657204621063,-8.732567632329355,-1.2117362096178033,-0.6690908396678339,9.63847684933631,0.02662027277392273,0.01054562965947361,-0.15817046346198613,42.412709042722575,0.9153649039364943,-41.0625
1774558599.70904,-61.59058801065455,0.379715039260073,-8.74326018834268,-1.2485147426993315,-0.7216214383902841,9.600326710799797,0.014945668692024641,0.017900186539233354,-0.17562375598192942,41.68678375273324,1.2091568768593355,-39.875
1774558599.7629442,-62.1481097256817,0.3866536109133924,-8.743083881148833,-1.2864705500882823,-0.7370665679040596,9.640358762875499,0.0058193686275819475,0.011826329565779158,-0.2007128639793479,42.118917069799735,0.1894396139471556,-39.875
1774558599.7875736,-62.50495343560531,0.3523911992579672,-8.743409574932695,-1.2698250980745585,-0.75624038997959,9.666999646344555,0.009059404029185706,-0.0024455411554642164,-0.15926129424448257,42.118917069799735,0.1894396139471556,-39.875
1774558599.8112762,-62.82764483601166,0.3277239261906253,-8.744450054808521,-1.2799601802762521,-0.7431351378077589,9.684728856695045,0.007506282363640814,0.013209792334075885,-0.19634954084936207,41.69930984309059,1.7852422412458628,-39.875
1774558599.8589442,-63.240154495061816,0.28223094112896757,-8.743828669410565,-1.2506438084877873,-0.7783846070643633,9.63631543740329,0.009059404029185706,-0.0024455411554642164,-0.17453292519943295,41.69930984309059,1.7852422412458628,-39.875
1774558599.9229484,-64.16027800300485,0.21966862821627636,-8.739713029491078,-1.2062663820674804,-0.7141466731432345,9.582655736120977,0.018404325612766455,0.01368290219908619,-0.19744037163185854,41.9767428651697,1.4469566100699984,-39.875
1774558600.0371802,-65.24322715343676,0.23770785067386038,-8.782432189094166,-1.2524564224416237,-0.7742144324935594,9.503178713612032,0.028204423647990414,0.03441691031016998,-0.2007128639793479,42.53160890932791,0.7703853477182662,-41.0
1774558600.0867903,-65.24322715343676,0.23770785067386038,-8.782432189094166,-1.2524564224416237,-0.7742144324935594,9.503178713612032,0.028204423647990414,0.03441691031016998,-0.2007128639793479,42.53160890932791,0.7703853477182662,-41.0
1774558600.1578982,-66.49304621930519,0.30036163794597054,-8.763939829525299,-1.3245060830347966,-0.7940941330243818,9.601690205266314,0.013107029472084704,0.014981535518758833,-0.23561944901923448,42.5837682885537,1.2981441933653854,-40.0625
1774558600.2082944,-67.23017128793417,0.3014262903794776,-8.760033260840135,-1.3483185792341348,-0.8031968466704676,9.641266153211735,0.020327794281330473,0.009617343342820094,-0.21380283336930536,41.904391674613784,-0.6331387135210029,-39.6875
1774558600.277801,-67.75513960321037,0.30387664018612703,-8.760672745596729,-1.37265050728176,-0.7989085142869756,9.667603504477107,0.01833742957750947,0.005163504070167776,-0.23452861823673804,41.904391674613784,-0.6331387135210029,-39.6875
1774558600.3009026,-68.52784323846244,0.2895316383823475,-8.748479056597795,-1.388843133592009,-0.7960546769895732,9.68513071753672,0.023398170785686064,0.009313892375057954,-0.25089107997418486,41.66659194140312,-0.3431796010845467,-40.0625
1774558600.3385453,-68.52784323846244,0.2895316383823475,-8.748479056597795,-1.388843133592009,-0.7960546769895732,9.68513071753672,0.023398170785686064,0.009313892375057954,-0.25089107997418486,41.66659194140312,-0.3431796010845467,-40.0625
1774558600.405054,-69.85272066789851,0.2261640992765641,-8.779098102760262,-1.3864511760034168,-0.7632324826791033,9.788125945931087,0.00813111771253219,0.003846937337128038,-0.20180369476184434,41.328306310227255,-0.6206126231636537,-39.6875
