timestamp,yaw,pitch,roll,ax,ay,az,gx,gy,gz,mx,my,mz
1772913347.58611,-0.07207976787156326,0.9203887909249909,-8.955199552369368,-0.14670785447672066,-1.5300691652647456,9.651875469818648,0.0,0.003272492347489368,0.0,-6.0625,11.6875,-55.25
1772913347.6073909,-0.07207976787156326,0.9203887909249909,-8.955199552369368,-0.14670785447672066,-1.5300691652647456,9.651875469818648,0.0,0.003272492347489368,0.0,-6.0625,11.6875,-55.25
1772913347.621232,0.0,0.0,0.0,-0.14780911392993273,-1.5233558052964227,9.691389444701773,-0.001090830782496456,0.003272492347489368,0.0,-6.0625,9.5,-58.0625
1772913347.6321216,0.0,0.0,0.0,-0.14780911392993273,-1.5233558052964227,9.691389444701773,-0.001090830782496456,0.003272492347489368,0.0,-6.0625,9.5,-58.0625
1772913347.642993,0.0,0.0,0.0,-0.14780911392993273,-1.5233558052964227,9.691389444701773,-0.001090830782496456,0.003272492347489368,0.0,-6.0625,9.5,-58.0625
1772913347.6538672,0.0,0.0,0.0,-0.14519687808685186,-1.532268586059926,9.700959995049875,-0.001090830782496456,0.001090830782496456,0.001090830782496456,-6.0625,9.5,-58.0625
1772913347.66901,-0.07207976787156326,0.9203887909249909,-8.955199552369368,-0.14345846431386788,-1.5381999420957528,9.707329089396483,-0.001090830782496456,0.001090830782496456,0.0,-6.0625,9.5,-58.0625
1772913347.6803226,-0.07207976787156326,0.9203887909249909,-8.955199552369368,-0.14345846431386788,-1.5381999420957528,9.707329089396483,-0.001090830782496456,0.001090830782496456,0.0,-6.0625,9.5,-58.0625
1772913347.691645,-0.07207976787156326,0.9203887909249909,-8.955199552369368,-0.14345846431386788,-1.5381999420957528,9.707329089396483,-0.001090830782496456,0.001090830782496456,0.0,-6.0625,9.5,-58.0625
1772913347.7214766,-0.07207976787156326,0.9203887909249909,-8.955199552369368,-0.1456466810746207,-1.5454923049873266,9.731638320780622,-0.001090830782496456,0.001090830782496456,0.001090830782496456,-5.375,11.25,-56.875
1772913347.7403567,-0.07207976787156326,0.9203887909249909,-8.955199552369368,-0.1456466810746207,-1.5454923049873266,9.731638320780622,-0.001090830782496456,0.001090830782496456,0.001090830782496456,-5.375,11.25,-56.875
1772913347.7605653,-0.07207976787156326,0.9203887909249909,-8.955199552369368,-0.14710291488491883,-1.5470001793233186,9.747815842714859,0.0,0.001090830782496456,0.0,-5.375,11.25,-56.875
1772913347.777111,-0.07207976787156326,0.9203887909249909,-8.955199552369368,-0.14710291488491883,-1.5470001793233186,9.747815842714859,0.0,0.001090830782496456,0.0,-5.375,11.25,-56.875
1772913347.788786,-0.07207976787156326,0.9203887909249909,-8.955199552369368,-0.14710291488491883,-1.5470001793233186,9.747815842714859,0.0,0.001090830782496456,0.0,-5.375,11.25,-56.875
1772913347.800171,-0.07207976787156326,0.9203887909249909,-8.955199552369368,-0.14710291488491883,-1.5470001793233186,9.747815842714859,0.0,0.001090830782496456,0.0,-5.375,11.25,-56.875
1772913347.8119063,-0.07207976787156326,0.9203887909249909,-8.955199552369368,-0.1480720222184747,-1.548003652849861,9.755236691140013,-0.001090830782496456,0.001090830782496456,-0.002181661564992912,-5.6875,10.6875,-55.6875
1772913347.8412113,-0.07207976787156326,0.9203887909249909,-8.955199552369368,-0.1480720222184747,-1.548003652849861,9.755236691140013,-0.001090830782496456,0.001090830782496456,-0.002181661564992912,-5.6875,10.6875,-55.6875
1772913347.8776064,-64.21671246549653,0.9191344358218331,-8.957009836829045,-0.14871695232331789,-1.545326341564922,9.760175182870643,-0.001090830782496456,0.001090830782496456,0.0,-5.6875,10.6875,-55.6875
1772913347.9015763,-64.21671246549653,0.9191344358218331,-8.957009836829045,-0.1491461461037497,-1.5368543973976831,9.763461693950811,-0.001090830782496456,0.0,0.001090830782496456,-5.375,11.75,-55.25
1772913347.9361768,-64.37446829918147,0.922374925231172,-8.959791961936716,-0.1494317697702184,-1.5312164131922028,9.765648830361929,0.001090830782496456,0.001090830782496456,0.0,-5.375,11.75,-55.25
1772913347.959357,-64.30011361958657,0.9223924298591731,-8.955578051262764,-0.1529669608369473,-1.5308095093911853,9.770449456918932,0.0,-0.001090830782496456,0.0,-5.375,12.1875,-54.5
1772913347.9867558,-64.30011361958657,0.9223924298591731,-8.955578051262764,-0.1529669608369473,-1.5308095093911853,9.770449456918932,0.0,-0.001090830782496456,0.0,-5.375,12.1875,-54.5
1772913348.0250556,-64.35839146045393,0.9180124330599818,-8.956207282658816,-0.156885240094882,-1.5359297579619513,9.775770299585805,0.0,0.001090830782496456,0.0,-5.375,11.375,-55.6875
1772913348.1078048,-64.37607321295623,0.9227134903685144,-8.960219176816285,-0.16127227378461131,-1.5372912993912613,9.777185181623203,0.0,0.001090830782496456,-0.003272492347489368,-5.375,11.375,-55.6875
1772913348.1347246,-64.36682812032208,0.923145982829166,-8.959884743141062,-0.15750157228411005,-1.5381973900030528,9.778126769813824,0.0,0.001090830782496456,0.002181661564992912,-6.0625,12.1875,-54.875
1772913348.151947,-64.36682812032208,0.923145982829166,-8.959884743141062,-0.15750157228411005,-1.5381973900030528,9.778126769813824,0.0,0.001090830782496456,0.002181661564992912,-6.0625,12.1875,-54.875
1772913348.1912172,-64.4748681284819,0.9244319330822318,-8.95862753346035,-0.15499221255702214,-1.5354552714761853,9.77875338623645,0.0,0.0,0.0,-6.0625,12.1875,-54.875
1772913348.2226155,-64.4748681284819,0.9244319330822318,-8.95862753346035,-0.15499221255702214,-1.5354552714761853,9.77875338623645,0.0,0.0,0.0,-6.0625,12.1875,-54.875
1772913348.2364404,-64.7311454749056,0.9235011987888083,-8.956141745173213,-0.15332226169003,-1.533630422228026,9.785860615880585,-0.001090830782496456,-0.002181661564992912,-0.001090830782496456,-5.375,10.0,-55.6875
1772913348.2507849,-64.7311454749056,0.9235011987888083,-8.956141745173213,-0.15332226169003,-1.533630422228026,9.785860615880585,-0.001090830782496456,-0.002181661564992912,-0.001090830782496456,-5.375,10.0,-55.6875
1772913348.2643,-64.7311454749056,0.9235011987888083,-8.956141745173213,-0.15221092804262018,-1.5424513405602358,9.7905903978158,-0.001090830782496456,-0.001090830782496456,-0.001090830782496456,-5.375,10.0,-55.6875
1772913348.2778986,-64.83196272683476,0.9218369781687245,-8.960983305588766,-0.1548164596219986,-1.5483215631742073,9.793738014858558,-0.002181661564992912,-0.002181661564992912,0.0,-5.375,10.0,-55.6875
1772913348.3248317,-64.83196272683476,0.9218369781687245,-8.960983305588766,-0.15655041178238013,-1.5488830190418028,9.78914249542469,0.0,0.0,-0.001090830782496456,-6.875,11.75,-55.6875
1772913348.348381,0.043267453564997546,-0.6717329035359689,-5.971727236917195,-0.15770433757559926,-1.5459115499424954,9.782739116869445,-0.001090830782496456,-0.001090830782496456,-0.001090830782496456,-6.875,11.75,-55.6875
1772913348.3655438,-64.83963925498459,0.9210654939122734,-8.96089347686033,-0.15847226230079087,-1.5405889587430714,9.778477739971356,-0.001090830782496456,-0.001090830782496456,-0.001090830782496456,-6.875,11.75,-55.6875
1772913348.3797104,-64.83963925498459,0.9210654939122734,-8.96089347686033,-0.15847226230079087,-1.5405889587430714,9.778477739971356,-0.001090830782496456,-0.001090830782496456,-0.001090830782496456,-6.875,11.75,-55.6875
1772913348.4068446,-64.83963925498459,0.9210654939122734,-8.96089347686033,-0.15898330762712462,-1.5370468337570944,9.775641841248376,0.0,0.0,0.001090830782496456,-5.375,11.375,-54.5
1772913348.4299679,-64.94039338949847,0.9231348823309989,-8.959797457335677,-0.1593234025830494,-1.5380347008543749,9.780444805741936,0.0,0.001090830782496456,0.001090830782496456,-5.375,11.375,-54.5
1772913348.4425783,-64.94039338949847,0.9231348823309989,-8.959797457335677,-0.1593234025830494,-1.5380347008543749,9.780444805741936,0.0,0.001090830782496456,0.001090830782496456,-5.375,11.375,-54.5
1772913348.4779541,-64.94039338949847,0.9231348823309989,-8.959797457335677,-0.15954973197710776,-1.5420372270797358,9.783641124959773,-0.001090830782496456,0.0,-0.001090830782496456,-5.375,11.375,-54.5
1772913348.498576,-65.0735762656536,0.9224637291985057,-8.958790268188741,-0.1597003516605886,-1.5413557518642467,9.785768239694018,0.002181661564992912,0.002181661564992912,0.0,-6.0625,11.0,-54.875
1772913348.5254085,-65.1559500909829,0.9254019463302317,-8.957055008926316,-0.15980058737741298,-1.544247349428235,9.78383869908091,0.001090830782496456,0.002181661564992912,0.0,-6.0625,11.0,-54.875
1772913348.5467927,-65.1559500909829,0.9254019463302317,-8.957055008926316,-0.15980058737741298,-1.544247349428235,9.78383869908091,0.001090830782496456,0.002181661564992912,0.0,-6.0625,11.0,-54.875
1772913348.5668716,-65.1559500909829,0.9254019463302317,-8.957055008926316,-0.15986729312725328,-1.546171675305808,9.779209499649948,0.001090830782496456,0.0,0.0,-6.0625,11.0,-54.875
1772913348.5940526,-65.1559500909829,0.9254019463302317,-8.957055008926316,-0.15986729312725328,-1.546171675305808,9.779209499649948,0.001090830782496456,0.0,0.0,-6.0625,11.0,-54.875
1772913348.6148903,-65.20689730975722,0.9217976994975077,-8.957805275941523,-0.15991168505861997,-1.5474522926812042,9.772783707432868,0.0,-0.002181661564992912,0.0,-5.375,11.375,-56.0625
1772913348.6342983,-65.1474484986708,0.9202944367647261,-8.953331073795425,-0.15994122739305414,-1.548304529239097,9.765162302785885,0.001090830782496456,0.0,-0.001090830782496456,-5.375,11.375,-56.0625
1772913348.6512623,-65.1474484986708,0.9202944367647261,-8.953331073795425,-0.15996088748661055,-1.5488716831482683,9.760090343129987,0.0,0.002181661564992912,0.0,-5.375,11.375,-56.0625
1772913348.675904,-65.1474484986708,0.9202944367647261,-8.953331073795425,-0.15996088748661055,-1.5488716831482683,9.760090343129987,0.0,0.002181661564992912,0.0,-5.375,11.375,-56.0625
1772913348.7113166,-65.24700710561285,0.9182818332343647,-8.957793467378426,-0.16331908276657411,-1.5459040060319782,9.760060122343807,0.0,0.001090830782496456,0.0,-5.6875,11.0,-54.875
1772913348.7238913,-65.24700710561285,0.9182818332343647,-8.957793467378426,-0.16331908276657411,-1.5459040060319782,9.760060122343807,0.0,0.001090830782496456,0.0,-5.6875,11.0,-54.875
1772913348.7367816,-65.24700710561285,0.9182818332343647,-8.957793467378426,-0.16331908276657411,-1.5459040060319782,9.760060122343807,0.0,0.001090830782496456,0.0,-5.6875,11.0,-54.875
1772913348.7573087,-65.39832232078216,0.922291244571674,-8.960909974868883,-0.1655539242118906,-1.5472741617695323,9.760040010748193,0.001090830782496456,0.0,-0.001090830782496456,-5.6875,11.0,-54.875
1772913348.7704399,-65.53971531864003,0.9208601348217998,-8.959896125396337,-0.16704118622893402,-1.5448408733999126,9.756681514998654,0.001090830782496456,0.001090830782496456,0.0,-6.875,11.375,-55.6875
1772913348.8037481,-65.53971531864003,0.9208601348217998,-8.959896125396337,-0.17137605419479046,-1.5432215471715427,9.751101361886873,0.0,-0.002181661564992912,-0.001090830782496456,-6.875,11.375,-55.6875
1772913348.82392,-65.53971531864003,0.9208601348217998,-8.959896125396337,-0.17137605419479046,-1.5432215471715427,9.751101361886873,0.0,-0.002181661564992912,-0.001090830782496456,-6.875,11.375,-55.6875
1772913348.8425148,-65.47239033348652,0.9201386029760887,-8.955478037030197,-0.16757063698778113,-1.5421439036556217,9.750732944032695,0.0,0.0,-0.002181661564992912,-5.6875,12.1875,-54.875
1772913348.887174,-65.47239033348652,0.9201386029760887,-8.955478037030197,-0.16838328605313133,-1.5447718556411627,9.753832877773556,0.001090830782496456,0.002181661564992912,0.0,-5.6875,12.1875,-54.875
1772913348.9125998,-65.47239033348652,0.9201386029760887,-8.955478037030197,-0.16838328605313133,-1.5447718556411627,9.753832877773556,0.001090830782496456,0.002181661564992912,0.0,-5.6875,12.1875,-54.875
1772913348.9420536,-65.48011754694049,0.91936711908711,-8.955392424363806,-0.16557898322091763,-1.5465207283313929,9.75589584904957,0.002181661564992912,0.0,0.0,-5.0,11.375,-54.875
1772913348.9580736,-65.48011754694049,0.91936711908711,-8.955392424363806,-0.16371275101219462,-1.547684583570553,9.757268733388859,0.0,-0.001090830782496456,0.002181661564992912,-5.0,11.375,-54.875
1772913348.9715118,-65.48011754694049,0.91936711908711,-8.955392424363806,-0.16371275101219462,-1.547684583570553,9.757268733388859,0.0,-0.001090830782496456,0.002181661564992912,-5.0,11.375,-54.875
1772913348.9931247,-65.49793877232423,0.9240340227948364,-8.959474392879354,-0.1624707943244692,-1.54511400452378,9.758182372580533,0.0,-0.001090830782496456,-0.001090830782496456,-6.5,11.75,-54.875
1772913349.0373683,-65.53042196776369,0.9212892115211841,-8.95955747426262,-0.16164428602235317,-1.543403312883402,9.762135500963893,0.0,-0.001090830782496456,0.0,-6.5,11.75,-54.875
1772913349.0497704,-65.53042196776369,0.9212892115211841,-8.95955747426262,-0.16164428602235317,-1.543403312883402,9.762135500963893,0.0,-0.001090830782496456,0.0,-6.5,11.75,-54.875
1772913349.0644665,-65.63944645080848,0.9226071817658035,-8.95848105206415,-0.16109425397999766,-1.542264866706408,9.764766263743681,-0.001090830782496456,0.001090830782496456,0.001090830782496456,-6.5,11.75,-55.6875
1772913349.0850928,-65.63944645080848,0.9226071817658035,-8.95848105206415,-0.16407332550738996,-1.5415072434928958,9.766517006986085,-0.001090830782496456,0.001090830782496456,0.0,-6.5,11.75,-55.6875
1772913349.1104865,-65.7470083294755,0.9235857333613557,-8.956999607877545,-0.16271075262314066,-1.5410030537075092,9.767682107056821,0.0,-0.001090830782496456,0.001090830782496456,-5.375,11.0,-56.5
1772913349.142995,-65.7470083294755,0.9235857333613557,-8.956999607877545,-0.16271075262314066,-1.5410030537075092,9.767682107056821,0.0,-0.001090830782496456,0.001090830782496456,-5.375,11.0,-56.5
1772913349.1688955,-65.7470083294755,0.9235857333613557,-8.956999607877545,-0.1618039755896092,-1.5406675210375034,9.768457468138875,0.0,0.0,-0.001090830782496456,-5.375,11.0,-56.5
1772913349.1884935,-65.80592339040518,0.919213420047796,-8.95768408444835,-0.1612005256031572,-1.54044422779376,9.76897346227763,-0.001090830782496456,0.0,0.0,-5.0,11.0,-55.25
1772913349.2080443,-65.88104262563195,0.922940196676473,-8.95613416335944,-0.16079893637815143,-1.5402956286343976,9.76931685061294,0.001090830782496456,0.0,0.0,-5.0,11.0,-55.25
1772913349.232482,-65.88104262563195,0.922940196676473,-8.95613416335944,-0.16079893637815143,-1.5402956286343976,9.76931685061294,0.001090830782496456,0.0,0.0,-5.0,11.0,-55.25
1772913349.250811,-65.88104262563195,0.922940196676473,-8.95613416335944,-0.16053168323495567,-1.5435418492611228,9.762855148299552,-0.001090830782496456,0.0,0.001090830782496456,-5.0,11.0,-55.25
1772913349.265461,-65.98119328583113,0.9209049637282742,-8.960686900076427,-0.1603538292535721,-1.545702172825548,9.761900069299255,-0.001090830782496456,-0.001090830782496456,-0.001090830782496456,-5.375,11.0,-56.0625
1772913349.2883995,-65.98119328583113,0.9209049637282742,-8.960686900076427,-0.1603538292535721,-1.545702172825548,9.761900069299255,-0.001090830782496456,-0.001090830782496456,-0.001090830782496456,-5.375,11.0,-56.0625
1772913349.309064,-65.98119328583113,0.9209049637282742,-8.960686900076427,-0.1602354694157205,-1.5437947323179582,9.761264474893489,0.002181661564992912,-0.001090830782496456,0.0,-5.375,11.0,-56.0625
1772913349.322102,-65.98119328583113,0.9209049637282742,-8.960686900076427,-0.1602354694157205,-1.5437947323179582,9.761264474893489,0.002181661564992912,-0.001090830782496456,0.0,-5.375,11.0,-56.0625
1772913349.3361287,-65.97342603499142,0.9216773018340859,-8.960769137705197,-0.16015670226579629,-1.5425253519676636,9.760841493916507,-0.001090830782496456,0.0,-0.001090830782496456,-5.375,11.75,-55.6875
1772913349.3551764,-65.97342603499142,0.9216773018340859,-8.960769137705197,-0.15675917190008903,-1.5383354818171309,9.760560004801333,0.0,0.002181661564992912,0.0,-5.375,11.75,-55.6875
1772913349.3682785,-65.97342603499142,0.9216773018340859,-8.960769137705197,-0.15675917190008903,-1.5383354818171309,9.760560004801333,0.0,0.002181661564992912,0.0,-5.375,11.75,-55.6875
1772913349.3822734,-66.01521551144945,0.9222997834143897,-8.955290916062658,-0.15449815339461184,-1.5355471700358676,9.760372676939623,0.0,0.0,-0.001090830782496456,-5.375,11.75,-55.6875
1772913349.3941982,-66.01521551144945,0.9222997834143897,-8.955290916062658,-0.15449815339461184,-1.5355471700358676,9.760372676939623,0.0,0.0,-0.001090830782496456,-5.375,11.75,-55.6875
1772913349.4072387,-66.01521551144945,0.9222997834143897,-8.955290916062658,-0.1529934708364484,-1.5403818031075591,9.760248012340245,-0.001090830782496456,0.002181661564992912,0.0,-5.6875,11.375,-55.6875
1772913349.4191716,-66.01521551144945,0.9222997834143897,-8.955290916062658,-0.1529934708364484,-1.5403818031075591,9.760248012340245,-0.001090830782496456,0.002181661564992912,0.0,-5.6875,11.375,-55.6875
1772913349.4331453,-66.00590268392119,0.9227271525184907,-8.954950573440781,-0.1553372331097155,-1.5435991974103798,9.763510161149274,0.0,0.0,0.001090830782496456,-5.6875,11.375,-55.6875
1772913349.4459422,-66.00590268392119,0.9227271525184907,-8.954950573440781,-0.1553372331097155,-1.5435991974103798,9.763510161149274,0.0,0.0,0.001090830782496456,-5.6875,11.375,-55.6875
1772913349.4592924,-66.00590268392119,0.9227271525184907,-8.954950573440781,-0.1568969807210347,-1.5390501139636188,9.765681084741091,0.0,0.0,0.0,-5.6875,11.375,-55.6875
1772913349.475009,-66.00590268392119,0.9227271525184907,-8.954950573440781,-0.1568969807210347,-1.5390501139636188,9.765681084741091,0.0,0.0,0.0,-5.6875,11.375,-55.6875
1772913349.5053782,-66.09060155241323,0.9222340343260067,-8.959680994514628,-0.15862574915184544,-1.5373531843850199,9.7680872587554,0.0,0.0,-0.001090830782496456,-5.375,11.0,-55.25
1772913349.5222974,-66.09060155241323,0.9222340343260067,-8.959680994514628,-0.15862574915184544,-1.5373531843850199,9.7680872587554,0.0,0.0,-0.001090830782496456,-5.375,11.0,-55.25
1772913349.5373435,-66.09837817589052,0.9214616960994763,-8.959599600099672,-0.15908545141194097,-1.5382385737750985,9.778762427190397,0.002181661564992912,0.002181661564992912,0.0,-5.375,11.0,-55.25
1772913349.5499315,-66.09837817589052,0.9214616960994763,-8.959599600099672,-0.15604626642350444,-1.545518013938387,9.785866632534443,-0.001090830782496456,0.003272492347489368,-0.001090830782496456,-5.6875,11.375,-54.875
1772913349.569089,-66.09837817589052,0.9214616960994763,-8.959599600099672,-0.15604626642350444,-1.545518013938387,9.785866632534443,-0.001090830782496456,0.003272492347489368,-0.001090830782496456,-5.6875,11.375,-54.875
1772913349.585219,-66.11547248688233,0.9202619891807774,-8.959858965595432,-0.15736883447094013,-1.5470172883430615,9.777213955002454,0.0,-0.001090830782496456,0.002181661564992912,-5.6875,11.375,-54.875
1772913349.6144252,-66.11547248688233,0.9202619891807774,-8.959858965595432,-0.1515587653178167,-1.5480150387113798,9.771455694761656,-0.001090830782496456,-0.002181661564992912,0.0,-5.6875,11.375,-54.875
1772913349.6445332,-66.16509018261152,0.920120671417285,-8.954307918425265,-0.15438245261377687,-1.5486790304358937,9.767623636895387,0.0,-0.001090830782496456,-0.001090830782496456,-6.0625,11.375,-55.25
1772913349.6623466,-66.29023739418403,0.9199170201486241,-8.95316956492783,-0.15626158496658452,-1.5457757978039648,9.768418556899595,0.0,0.003272492347489368,0.0,-6.0625,11.375,-55.25
1772913349.6786306,-66.29023739418403,0.9199170201486241,-8.95316956492783,-0.15626158496658452,-1.5457757978039648,9.768418556899595,0.0,0.003272492347489368,0.0,-6.0625,11.375,-55.25
1772913349.7037172,-66.29023739418403,0.9199170201486241,-8.95316956492783,-0.1575121265560942,-1.5438437289186495,9.765602455575237,-0.001090830782496456,0.0,-0.002181661564992912,-6.0625,11.375,-55.25
1772913349.7184644,-66.29023739418403,0.9199170201486241,-8.95316956492783,-0.1575121265560942,-1.5438437289186495,9.765602455575237,-0.001090830782496456,0.0,-0.002181661564992912,-6.0625,11.375,-55.25
1772913349.7429922,-66.35799407194325,0.9206167779107759,-8.957666186459551,-0.15499923630712864,-1.542557958658096,9.76707348330911,0.001090830782496456,0.001090830782496456,-0.001090830782496456,-6.0625,11.375,-55.6875
1772913349.761689,-66.35799407194325,0.9206167779107759,-8.957666186459551,-0.15499923630712864,-1.542557958658096,9.76707348330911,0.001090830782496456,0.001090830782496456,-0.001090830782496456,-6.0625,11.375,-55.6875
1772913349.780239,-66.3501966264171,0.9213891159541278,-8.95774589433265,-0.15332693591726543,-1.5450474046200118,9.764707324126226,0.0,-0.002181661564992912,0.001090830782496456,-6.0625,11.375,-55.6875
1772913349.7989097,-66.3501966264171,0.9213891159541278,-8.95774589433265,-0.15221403868863084,-1.5467041030987332,9.759787559914429,0.0,0.001090830782496456,0.003272492347489368,-6.0625,11.375,-55.6875
1772913349.8174381,-0.09941253792258291,0.9181736554307052,-8.95774867040393,1.3549094773767838,-0.7641298385872304,9.756513511788844,-0.0014373854123029843,-0.0005601310280481173,0.002181661564992912,-13.37190522118258,-1.2266420650336611,-56.5
1772913350.1672943,-0.01815246095819729,0.9245632230600288,-8.957340993901422,1.3485241956787044,-0.766416010424994,9.75374491888864,-0.0019975164403511015,0.0008772543842548669,0.002181661564992912,-12.576190672567874,-0.3473876325040921,-55.6875
1772913350.365629,-0.058783070339389794,0.9213684684986786,-8.957545967890095,1.342857601663614,-0.759788336570031,9.764754782641964,-0.0014373854123029843,-0.0005601310280481173,0.0,-13.028557436562238,-1.3774309863651162,-55.25
1772913350.4007325,-0.058783070339389794,0.9213684684986786,-8.957545967890095,1.342857601663614,-0.759788336570031,9.764754782641964,-0.0014373854123029843,-0.0005601310280481173,0.0,-13.028557436562238,-1.3774309863651162,-55.25
1772913350.4372706,-0.09357942559945051,0.9186612971547147,-8.958000945797952,1.345146237437411,-0.758714761172962,9.766509366441143,-0.00012150383592068386,0.002436143632478535,0.0,-12.082053966616078,-0.1548287692152054,-55.25
1772913350.5227444,-0.08392502282935242,0.9194011615937001,-8.957765413086285,1.349732063496511,-0.7593453908350487,9.767677022359512,0.0009987582201755507,-0.00043862719212743346,0.001090830782496456,-12.42540175123642,-0.004039847883750433,-54.5
1772913350.5693889,-0.08392502282935242,0.9194011615937001,-8.957765413086285,1.3514387974155955,-0.7628278323479476,9.768454084329615,0.0009987582201755507,-0.00043862719212743346,0.0,-12.42540175123642,-0.004039847883750433,-54.5
1772913350.6210883,-0.09941253792258291,0.9181736554307052,-8.95774867040393,1.3495118452559038,-0.7638002761771481,9.765626098683049,0.0019975164403511015,-0.0008772543842548669,0.0,-12.576190672567874,-0.3473876325040921,-56.0625
1772913350.6718693,-0.21620543697394812,0.9187310279554094,-8.956594752584046,1.3495745622153084,-0.7613846621651965,9.763744105825928,-0.002436143632478535,-0.0001215038359206838,-0.002181661564992912,-12.576190672567874,-0.3473876325040921,-56.0625
1772913350.6984005,-0.21620543697394812,0.9187310279554094,-8.956594752584046,1.3526790641685726,-0.7611221801206325,9.762491660602754,0.0005601310280481173,-0.0014373854123029843,0.003272492347489368,-13.19598481296255,-0.8260696496432623,-55.25
1772913350.7366526,-0.377943434535447,0.9216658262086251,-8.95995889414313,1.353399993442698,-0.7640102657694667,9.76165817229746,0.003434901852654086,-0.00031712335620674974,0.001090830782496456,-13.19598481296255,-0.8260696496432623,-55.25
1772913350.7835307,-0.35280099518595204,0.9236341727421977,-8.959743997607784,1.3508169993039456,-0.7645871724105223,9.761103495140961,-0.0019975164403511015,0.0008772543842548669,0.001090830782496456,-13.045195891631094,-0.4827218650229216,-54.5
1772913350.8423605,-0.35280099518595204,0.9236341727421977,-8.959743997607784,1.349098045558541,-0.7649710973356754,9.760734363689462,-0.0019975164403511015,0.0008772543842548669,0.0,-13.045195891631094,-0.4827218650229216,-54.5
1772913350.8688154,-0.35280099518595204,0.9236341727421977,-8.959743997607784,1.3479541010429457,-0.7652265950846423,9.760488710831957,0.0005601310280481173,-0.0014373854123029843,0.0,-12.576190672567874,-0.3473876325040921,-55.25
1772913350.888555,-0.2456634394251044,0.9223382780713586,-8.961127223582643,1.3471928187465148,-0.7653966259824829,9.76032523159941,0.0009987582201755507,-0.00043862719212743346,-0.001090830782496456,-12.576190672567874,-0.3473876325040921,-55.25
1772913350.9324684,-0.2456634394251044,0.9223382780713586,-8.961127223582643,1.3471928187465148,-0.7653966259824829,9.76032523159941,0.0009987582201755507,-0.00043862719212743346,-0.001090830782496456,-12.576190672567874,-0.3473876325040921,-55.25
1772913350.9538813,-0.38760298272442667,0.9209252131073411,-8.960192756969056,1.3480312759785331,-0.7624470151282511,9.760216437996332,0.00043862719212743346,0.0009987582201755507,0.001090830782496456,-12.072377168540127,-0.9099571421287106,-55.6875
1772913350.9683242,-0.38760298272442667,0.9209252131073411,-8.960192756969056,1.3485892599002607,-0.760484082054072,9.760144037068788,-0.0014373854123029843,-0.0005601310280481173,-0.002181661564992912,-12.072377168540127,-0.9099571421287106,-55.6875
1772913350.9946003,-0.377943434535447,0.9216658262086251,-8.95995889414313,1.3458978274497064,-0.757832689924392,9.760095855060278,0.003434901852654086,-0.00031712335620674974,0.002181661564992912,-12.072377168540127,-0.9099571421287106,-55.6875
1772913351.0211573,-0.4531501632436831,1.665654233984219,-9.451514730574425,1.34276162712292,-0.7591309825974557,9.766754013886482,0.0015588892482236681,-0.0018760126044304176,0.001090830782496456,-12.576190672567874,-0.3473876325040921,-55.6875
1772913351.0476575,-0.38760298272442667,0.9209252131073411,-8.960192756969056,1.3406745208390964,-0.7599949818685002,9.771184944208814,0.0005601310280481173,-0.0014373854123029843,0.0,-12.576190672567874,-0.3473876325040921,-55.6875
1772913351.0657713,-0.35280099518595204,0.9236341727421977,-8.959743997607784,1.3392855749217167,-0.7605699637318761,9.77413367884159,-0.0015588892482236681,0.0018760126044304176,0.002181661564992912,-12.576190672567874,-0.3473876325040921,-55.6875
1772913351.0929985,-0.35280099518595204,0.9236341727421977,-8.959743997607784,1.3392855749217167,-0.7605699637318761,9.77413367884159,-0.0015588892482236681,0.0018760126044304176,0.002181661564992912,-12.576190672567874,-0.3473876325040921,-55.6875
1772913351.132788,-0.377943434535447,0.9216658262086251,-8.95995889414313,1.3441921991622523,-0.7603847077396177,9.764033323940472,-0.0009987582201755507,0.00043862719212743346,0.003272492347489368,-12.919538457188215,-0.19659871117263714,-55.25
1772913351.1570477,-0.377943434535447,0.9216658262086251,-8.95995889414313,1.3441921991622523,-0.7603847077396177,9.764033323940472,-0.0009987582201755507,0.00043862719212743346,0.003272492347489368,-12.919538457188215,-0.19659871117263714,-55.25
1772913351.1901991,-0.377943434535447,0.9216658262086251,-8.95995889414313,1.3460343971643238,-0.7591116395244196,9.759339020319885,0.0009987582201755507,-0.00043862719212743346,0.001090830782496456,-12.919538457188215,-0.19659871117263714,-55.25
1772913351.217261,-0.38760298272442667,0.9209252131073411,-8.960192756969056,1.3472603593560022,-0.7582644268483089,9.75621501369919,-0.0009987582201755507,0.00043862719212743346,0.0,-12.701848107010752,-0.6335107863543765,-54.875
1772913351.2346365,-0.40308592811148497,0.9196973796658164,-8.960172927322649,1.345013458982294,-0.7563555341801299,9.75413602219056,-0.00043862719212743346,-0.0009987582201755507,0.002181661564992912,-12.701848107010752,-0.6335107863543765,-54.875
1772913351.267797,-0.40308592811148497,0.9196973796658164,-8.960172927322649,1.345013458982294,-0.7563555341801299,9.75413602219056,-0.00043862719212743346,-0.0009987582201755507,0.002181661564992912,-12.701848107010752,-0.6335107863543765,-54.875
1772913351.306949,-0.4188218952233366,0.9223067974319638,-8.954330488714012,1.3452358543042753,-0.7594930340467733,9.756097588272741,0.0005601310280481173,-0.0014373854123029843,0.0,-12.576190672567874,-0.3473876325040921,-56.0625
1772913351.334303,-0.4381426080746509,0.9208263265677781,-8.954797477311226,1.3423210913893597,-0.7602359230636414,9.757402988588305,-0.0014373854123029843,-0.0005601310280481173,-0.001090830782496456,-12.576190672567874,-0.3473876325040921,-56.0625
1772913351.363415,-0.4381426080746509,0.9208263265677781,-8.954797477311226,1.3434441137468942,-0.7620753895019662,9.758271717916035,0.0009987582201755507,-0.00043862719212743346,-0.001090830782496456,-12.701848107010752,-0.6335107863543765,-55.75
1772913351.3858683,-0.4381426080746509,0.9208263265677781,-8.954797477311226,1.3434441137468942,-0.7620753895019662,9.758271717916035,0.0009987582201755507,-0.00043862719212743346,-0.001090830782496456,-12.701848107010752,-0.6335107863543765,-55.75
1772913351.427408,-0.33682997495786104,0.919037598343692,-8.955929080163319,1.3411287080634762,-0.7619544517722717,9.755504735871977,0.0,0.0,0.001090830782496456,-12.701848107010752,-0.6335107863543765,-55.75
1772913351.4549453,-0.42848208591924236,0.9215665945732152,-8.95456404138219,1.3385623952696857,-0.7618204087209007,9.755783023708773,0.002436143632478535,0.0001215038359206838,-0.001090830782496456,-12.509289243721867,-1.1276474923061723,-54.5
1772913351.49735,-0.42848208591924236,0.9215665945732152,-8.95456404138219,1.3385623952696857,-0.7618204087209007,9.755783023708773,0.002436143632478535,0.0001215038359206838,-0.001090830782496456,-12.509289243721867,-1.1276474923061723,-54.5
1772913351.5383813,-0.210376260791238,0.9192183686788185,-8.956847456227065,1.3422878255628508,-0.7600670824896326,9.7571936493849,0.0,0.0,0.0,-13.320110872578613,-0.020678302952606357,-55.6875
1772913351.5529687,-0.210376260791238,0.9192183686788185,-8.956847456227065,1.344767057807169,-0.7589002634686609,9.758132405014642,0.0,0.0,0.001090830782496456,-13.320110872578613,-0.020678302952606357,-55.6875
1772913351.5670192,-0.09357942559945051,0.9186612971547147,-8.958000945797952,1.3464169591709239,-0.7581237584444268,9.758757136399646,-0.0019975164403511015,0.0008772543842548669,0.002181661564992912,-13.320110872578613,-0.020678302952606357,-55.6875
1772913351.5947657,-0.09357942559945051,0.9186612971547147,-8.958000945797952,1.3464169591709239,-0.7581237584444268,9.758757136399646,-0.0019975164403511015,0.0008772543842548669,0.002181661564992912,-13.320110872578613,-0.020678302952606357,-55.6875
1772913351.6228507,-0.09357942559945051,0.9186612971547147,-8.958000945797952,1.3461698680016838,-0.7606697675423036,9.75917288815766,0.0014373854123029843,0.0005601310280481173,-0.001090830782496456,-13.445768307021492,-0.3068014568028908,-53.6875
1772913351.6493623,-0.08392502282935242,0.9194011615937001,-8.957765413086285,1.3460054315887438,-0.7623641081561554,9.759449566308367,-0.00043862719212743346,-0.0009987582201755507,0.0,-13.445768307021492,-0.3068014568028908,-53.6875
1772913351.687502,-0.08392502282935242,0.9194011615937001,-8.957765413086285,1.3472410830890205,-0.7604289083902739,9.759633692526966,0.0021190202762717855,-0.003313398016733402,0.002181661564992912,-13.19598481296255,-0.8260696496432623,-55.25
1772913351.7274292,-0.08392502282935242,0.9194011615937001,-8.957765413086285,1.3472410830890205,-0.7604289083902739,9.759633692526966,0.0021190202762717855,-0.003313398016733402,0.002181661564992912,-13.19598481296255,-0.8260696496432623,-55.25
1772913351.7519174,-0.18523381482969672,0.9211857364369022,-8.956630221614788,1.3511261598766982,-0.7604861366598907,9.75975622646862,0.0,0.0,0.0,-13.19598481296255,-0.8260696496432623,-55.25
1772913351.7661703,-0.18523381482969672,0.9211857364369022,-8.956630221614788,1.3511261598766982,-0.7604861366598907,9.75975622646862,0.0,0.0,0.0,-13.19598481296255,-0.8260696496432623,-55.25
1772913351.8043034,-0.10906705771867309,0.9174337504751204,-8.957983995656683,1.350648870562371,-0.7591791393378259,9.759837771437995,0.0029962746605266526,-0.0013158815763823005,0.001090830782496456,-12.768749535856761,0.14674907344770452,-54.875
1772913351.8372304,-0.10906705771867309,0.9174337504751204,-8.957983995656683,1.3520489222765193,-0.7627171938336967,9.759892038704198,-0.0009987582201755507,0.00043862719212743346,0.0,-12.768749535856761,0.14674907344770452,-54.875
1772913351.8887324,-0.027805836853090387,0.9238236126865367,-8.957577381601348,1.3468551120179324,-0.7623815653856143,9.75658304125633,0.0015588892482236681,-0.0018760126044304176,0.002181661564992912,-13.445768307021492,-0.3068014568028908,-53.75
1772913351.9240916,-0.10906705771867309,0.9174337504751204,-8.957983995656683,1.342443560704031,-0.7589468023081412,9.755141601384208,0.0029962746605266526,-0.0013158815763823005,-0.001090830782496456,-13.445768307021492,-0.3068014568028908,-53.75
1772913351.9433475,-0.10906705771867309,0.9174337504751204,-8.957983995656683,1.342443560704031,-0.7589468023081412,9.755141601384208,0.0029962746605266526,-0.0013158815763823005,-0.001090830782496456,-13.445768307021492,-0.3068014568028908,-53.75
1772913351.9564269,-0.10906705771867309,0.9174337504751204,-8.957983995656683,1.346588380225111,-0.7625625761358162,9.75342167828574,0.0015588892482236681,-0.0018760126044304176,0.001090830782496456,-12.232842887947532,-0.49817655383554704,-55.75
1772913351.973088,-0.12911710064469697,0.9256078883267866,-8.956445190853279,1.3506917934119351,-0.7619060687099187,9.752277088676509,-0.002436143632478535,-0.0001215038359206838,0.002181661564992912,-12.232842887947532,-0.49817655383554704,-55.75
1772913351.9979641,-0.12911710064469697,0.9256078883267866,-8.956445190853279,1.3506917934119351,-0.7619060687099187,9.752277088676509,-0.002436143632478535,-0.0001215038359206838,0.002181661564992912,-12.232842887947532,-0.49817655383554704,-55.75
1772913352.0330296,-0.12911710064469697,0.9256078883267866,-8.956445190853279,1.3520774869534244,-0.7645319348690275,9.75151537707747,-0.0019975164403511015,0.0008772543842548669,0.001090830782496456,-12.701848107010752,-0.6335107863543765,-55.25
1772913352.0636084,-0.043294697055538414,0.9225960193726115,-8.957561840443336,1.35606241504345,-0.7676245015612805,9.754353578224505,-0.0014373854123029843,-0.0005601310280481173,-0.001090830782496456,-12.701848107010752,-0.6335107863543765,-55.25
1772913352.0818894,-0.10906705771867309,0.9174337504751204,-8.957983995656683,1.3587143401727981,-0.7696825701487413,9.756242369383072,-0.0018760126044304176,-0.001558889248223668,0.0,-12.082053966616078,-0.1548287692152054,-56.0625
1772913352.1254725,-0.10906705771867309,0.9174337504751204,-8.957983995656683,1.360479166722435,-0.7710521918035641,9.757499338799919,-0.00043862719212743346,-0.0009987582201755507,0.0,-12.082053966616078,-0.1548287692152054,-56.0625
1772913352.1419847,-0.10906705771867309,0.9174337504751204,-8.957983995656683,1.3599359566556515,-0.7675558131015839,9.758335837905562,-0.0009987582201755507,0.00043862719212743346,0.0,-12.082053966616078,-0.1548287692152054,-56.0625
1772913352.16626,-0.10906705771867309,0.9174337504751204,-8.957983995656683,1.3599359566556515,-0.7675558131015839,9.758335837905562,-0.0009987582201755507,0.00043862719212743346,0.0,-12.082053966616078,-0.1548287692152054,-56.0625
1772913352.1892836,-0.22586193991806297,0.9179909960522167,-8.956829348599179,1.3565116919068863,-0.7638839300363124,9.75889251871606,-0.0018760126044304176,-0.001558889248223668,0.002181661564992912,-12.072377168540127,-0.9099571421287106,-54.5625
1772913352.2385354,-0.23551877705782054,0.9172508986276059,-8.957063828057702,1.3525143757771572,-0.7658102834590876,9.759509523803448,0.0005601310280481173,-0.0014373854123029843,-0.001090830782496456,-12.072377168540127,-0.9099571421287106,-54.5625
1772913352.2603624,-0.23551877705782054,0.9172508986276059,-8.957063828057702,1.3525143757771572,-0.7658102834590876,9.759509523803448,0.0005601310280481173,-0.0014373854123029843,-0.001090830782496456,-12.072377168540127,-0.9099571421287106,-54.5625
1772913352.2867787,-0.36246010046882754,0.9228936645686703,-8.959978184870057,1.353290395157901,-0.7671301461716631,9.759673593570172,0.0005601310280481173,-0.0014373854123029843,-0.001090830782496456,-12.701848107010752,-0.6335107863543765,-55.0
1772913352.353884,-0.36246010046882754,0.9228936645686703,-8.959978184870057,1.3538068273870814,-0.7680085000630494,9.759782780167148,-0.0014373854123029843,-0.0005601310280481173,0.002181661564992912,-12.701848107010752,-0.6335107863543765,-55.0
1772913352.378493,-0.4381426080746509,0.9208263265677781,-8.954797477311226,1.355495589362888,-0.7655302702485359,9.759855442627742,0.0019975164403511015,-0.0008772543842548669,0.001090830782496456,-13.37190522118258,-1.2266420650336611,-56.0625
1772913352.4148571,-0.4381426080746509,0.9208263265677781,-8.954797477311226,1.3535566770757048,-0.7625359538944052,9.756558686976256,0.00043862719212743346,0.0009987582201755507,-0.002181661564992912,-13.37190522118258,-1.2266420650336611,-56.0625
1772913352.4365952,-0.4381426080746509,0.9208263265677781,-8.954797477311226,1.3535566770757048,-0.7625359538944052,9.756558686976256,0.00043862719212743346,0.0009987582201755507,-0.002181661564992912,-13.37190522118258,-1.2266420650336611,-56.0625
1772913352.4615774,-0.4381426080746509,0.9208263265677781,-8.954797477311226,1.3522663526076537,-0.7605432698094364,9.754364732917365,0.0015588892482236681,-0.0018760126044304176,0.0,-12.701848107010752,-0.6335107863543765,-55.25
1772913352.483061,-0.5237213858644845,0.9200013151651029,-8.959508900907846,1.3514076560880346,-0.7592171608106294,9.756249792706564,-0.00043862719212743346,-0.0009987582201755507,0.0,-12.701848107010752,-0.6335107863543765,-55.25
1772913352.5554066,-0.5237213858644845,0.9200013151651029,-8.959508900907846,1.3525538855676589,-0.7627424966991199,9.757504278938779,-0.00043862719212743346,-0.0009987582201755507,0.0,-12.576190672567874,-0.3473876325040921,-55.0
1772913352.5811749,-0.596046807832907,0.9240114258792684,-8.957683580843362,1.3519716063859133,-0.768151332869703,9.761684237220107,0.00043862719212743346,0.0009987582201755507,-0.001090830782496456,-12.576190672567874,-0.3473876325040921,-55.0
1772913352.6122215,-0.596046807832907,0.9240114258792684,-8.957683580843362,1.3519716063859133,-0.768151332869703,9.761684237220107,0.00043862719212743346,0.0009987582201755507,-0.001090830782496456,-12.576190672567874,-0.3473876325040921,-55.0
1772913352.6366544,-0.55493726242463,0.9213901077278102,-8.953647902902038,1.3515841060949463,-0.7717508529205673,9.764465952763139,-0.0019975164403511015,0.0008772543842548669,-0.001090830782496456,-13.045195891631094,-0.4827218650229216,-54.0625
1772913352.6522884,-0.55493726242463,0.9213901077278102,-8.953647902902038,1.3526713110761828,-0.7710835287877686,9.766317153383227,0.0,0.0,0.0,-13.045195891631094,-0.4827218650229216,-54.0625
1772913352.6686554,-0.55493726242463,0.9213901077278102,-8.953647902902038,1.3533948338463202,-0.7706394320318902,9.76754910671663,-0.0014373854123029843,-0.0005601310280481173,-0.002181661564992912,-13.045195891631094,-0.4827218650229216,-54.0625
1772913352.6822062,-0.55493726242463,0.9213901077278102,-8.953647902902038,1.3533948338463202,-0.7706394320318902,9.76754910671663,-0.0014373854123029843,-0.0005601310280481173,-0.002181661564992912,-13.045195891631094,-0.4827218650229216,-54.0625
1772913352.7288618,-0.6153737235826272,0.9225297189291878,-8.9581486845388,1.355221412263781,-0.7672811260843638,9.76502384619087,-0.0029962746605266526,0.0013158815763823005,0.001090830782496456,-12.082053966616078,-0.1548287692152054,-56.5
1772913352.7789075,-0.5237213858644845,0.9200013151651029,-8.959508900907846,1.3533742152790078,-0.7637011288948073,9.766688425227304,0.00043862719212743346,0.0009987582201755507,0.0,-12.082053966616078,-0.1548287692152054,-56.5
1772913352.7991724,-0.4632858573689596,0.9188588520209133,-8.955010291582832,1.3521449263201837,-0.7613186807563465,9.764451072274166,0.0014373854123029843,0.0005601310280481173,-0.001090830782496456,-13.596557228352948,-0.6501492414232315,-55.0
1772913352.8284447,-0.4632858573689596,0.9188588520209133,-8.955010291582832,1.3513268482501437,-0.7597331881338902,9.766307250584042,0.0019975164403511015,-0.0008772543842548669,0.001090830782496456,-13.596557228352948,-0.6501492414232315,-55.0
1772913352.8497472,-0.42848208591924236,0.9215665945732152,-8.95456404138219,1.3507824264330632,-0.7586780605047588,9.764197404807074,0.0014373854123029843,0.0005601310280481173,-0.002181661564992912,-13.596557228352948,-0.6501492414232315,-55.0
1772913352.8765528,-0.28654427908017405,0.9229723446786767,-8.955498168703892,1.350420119795386,-0.7579758848541196,9.769483549425663,0.0,0.0,0.0,-13.043664516804279,0.6087926355180198,-55.25
1772913352.9189148,-0.28654427908017405,0.9229723446786767,-8.955498168703892,1.350420119795386,-0.7579758848541196,9.769483549425663,0.0,0.0,0.0,-13.043664516804279,0.6087926355180198,-55.25
1772913352.9559631,-0.21620543697394812,0.9187310279554094,-8.956594752584046,1.348833926679029,-0.7605713593198103,9.76631119620459,-0.00043862719212743346,-0.0009987582201755507,-0.001090830782496456,-13.043664516804279,0.6087926355180198,-55.25
1772913352.9842045,-0.210376260791238,0.9192183686788185,-8.956847456227065,1.3477783328790316,-0.7622986185833781,9.770890253988112,-0.002436143632478535,-0.0001215038359206838,-0.001090830782496456,-12.919538457188215,-0.19659871117263714,-56.0625
1772913353.0250623,-0.210376260791238,0.9192183686788185,-8.956847456227065,1.3470758469968889,-0.7634480903285322,9.7705924540843,-0.003434901852654086,0.00031712335620674974,-0.001090830782496456,-12.919538457188215,-0.19659871117263714,-56.0625
1772913353.04849,-0.210376260791238,0.9192183686788185,-8.956847456227065,1.3470758469968889,-0.7634480903285322,9.7705924540843,-0.003434901852654086,0.00031712335620674974,-0.001090830782496456,-12.919538457188215,-0.19659871117263714,-56.0625
1772913353.0752869,-0.210376260791238,0.9192183686788185,-8.956847456227065,1.3466083504896043,-0.7642130509344915,9.770394271574956,-0.0015588892482236681,0.0018760126044304176,-0.001090830782496456,-12.576190672567874,-0.3473876325040921,-55.6875
1772913353.099356,-0.210376260791238,0.9192183686788185,-8.956847456227065,1.3462972367862847,-0.7647221236725876,9.77026238332883,-0.0009987582201755507,0.00043862719212743346,-0.001090830782496456,-12.576190672567874,-0.3473876325040921,-55.6875
1772913353.1193175,-0.210376260791238,0.9192183686788185,-8.956847456227065,1.3474352761883064,-0.7619981413757003,9.766829501467004,0.00043862719212743346,0.0009987582201755507,0.0,-12.576190672567874,-0.3473876325040921,-55.6875
1772913353.136546,-0.210376260791238,0.9192183686788185,-8.956847456227065,1.3474352761883064,-0.7619981413757003,9.766829501467004,0.00043862719212743346,0.0009987582201755507,0.0,-12.576190672567874,-0.3473876325040921,-55.6875
1772913353.1664155,-0.13494914332775676,0.9251201628002805,-8.956193164327779,1.3468475466014054,-0.763248126103373,9.764544956935762,-0.0009987582201755507,0.00043862719212743346,-0.001090830782496456,-12.768749535856761,0.14674907344770452,-55.0
1772913353.1825726,-0.13494914332775676,0.9251201628002805,-8.956193164327779,1.3468475466014054,-0.763248126103373,9.764544956935762,-0.0009987582201755507,0.00043862719212743346,-0.001090830782496456,-12.768749535856761,0.14674907344770452,-55.0
1772913353.226429,-0.06843701939474471,0.9206287105481191,-8.957781824433074,1.3495191836440676,-0.7654250590726079,9.763024618070254,0.0009987582201755507,-0.00043862719212743346,-0.001090830782496456,-12.768749535856761,0.14674907344770452,-55.0
1772913353.2496057,-0.29620240915845764,0.9222323065922293,-8.955732658112819,1.348234363734443,-0.765528701549486,9.765357961245876,-0.00043862719212743346,-0.0009987582201755507,0.0,-11.998514082701215,-1.8297977503594811,-54.5
1772913353.2681756,-0.29620240915845764,0.9222323065922293,-8.955732658112819,1.348234363734443,-0.765528701549486,9.765357961245876,-0.00043862719212743346,-0.0009987582201755507,0.0,-11.998514082701215,-1.8297977503594811,-54.5
1772913353.289529,-0.29620240915845764,0.9222323065922293,-8.955732658112819,1.3504420949543419,-0.7669427565562992,9.766910775064101,0.00043862719212743346,0.0009987582201755507,-0.002181661564992912,-11.998514082701215,-1.8297977503594811,-54.5
1772913353.3130713,-0.255320918972964,0.9215978304941582,-8.96136202417387,1.3488485509018355,-0.7665387122710908,9.767944155314062,-0.0019975164403511015,0.0008772543842548669,-0.001090830782496456,-11.998514082701215,-1.8297977503594811,-54.5
1772913353.3364556,-0.38760298272442667,0.9209252131073411,-8.960192756969056,1.3477880651359462,-0.766269825312755,9.768631858326797,-0.003434901852654086,0.00031712335620674974,-0.001090830782496456,-12.509289243721867,-1.1276474923061723,-56.0625
1772913353.3503046,-0.38760298272442667,0.9209252131073411,-8.960192756969056,1.3477880651359462,-0.766269825312755,9.768631858326797,-0.003434901852654086,0.00031712335620674974,-0.001090830782496456,-12.509289243721867,-1.1276474923061723,-56.0625
1772913353.3652449,-0.38760298272442667,0.9209252131073411,-8.960192756969056,1.347082323705149,-0.7660908840456466,9.769089516999628,-0.0014373854123029843,-0.0005601310280481173,0.0,-12.509289243721867,-1.1276474923061723,-56.0625
1772913353.389004,-0.377943434535447,0.9216658262086251,-8.95995889414313,1.35102050728019,-0.7642541182101289,9.766048972026695,0.0005601310280481173,-0.0014373854123029843,0.0,-12.509289243721867,-1.1276474923061723,-56.0625
1772913353.413241,-0.377943434535447,0.9216658262086251,-8.95995889414313,1.3536413244569867,-0.7630317710646106,9.76402552331232,-0.00043862719212743346,-0.0009987582201755507,-0.001090830782496456,-13.445768307021492,-0.3068014568028908,-57.6875
1772913353.4480877,-0.377943434535447,0.9216658262086251,-8.95995889414313,1.355385449011699,-0.7622183126937806,9.762678940796308,-0.0019975164403511015,0.0008772543842548669,-0.002181661564992912,-13.445768307021492,-0.3068014568028908,-57.6875
1772913353.4834404,-0.2611487684560708,0.9211102634867829,-8.961109090886202,1.3521382978061238,-0.7633946476560807,9.761782805174214,0.0,0.0,0.0,-13.445768307021492,-0.3068014568028908,-57.6875
1772913353.513174,-0.2611487684560708,0.9211102634867829,-8.961109090886202,1.349977354951869,-0.7641774854329687,9.754496213513562,-0.0008772543842548669,-0.0019975164403511015,-0.001090830782496456,-13.16932195124716,0.3226694816677353,-55.75
1772913353.5347128,-0.2611487684560708,0.9211102634867829,-8.961109090886202,1.348539271621676,-0.7646984552286168,9.7563372915746,0.0005601310280481173,-0.0014373854123029843,0.0,-13.16932195124716,0.3226694816677353,-55.75
1772913353.548473,-0.2611487684560708,0.9211102634867829,-8.961109090886202,1.348539271621676,-0.7646984552286168,9.7563372915746,0.0005601310280481173,-0.0014373854123029843,0.0,-13.16932195124716,0.3226694816677353,-55.75
1772913353.5677445,-0.2611487684560708,0.9211102634867829,-8.961109090886202,1.3475822432298759,-0.7650451548080067,9.754217396750711,-0.004433660072829636,0.0007557505483341831,0.0,-13.16932195124716,0.3226694816677353,-55.75
1772913353.6001709,-0.22003298383396214,0.9184783113076441,-8.957082143216173,1.3452276691046785,-0.7608680328916143,9.75615174213351,0.0014373854123029843,0.0005601310280481173,0.001090830782496456,-13.445768307021492,-0.3068014568028908,-56.5
1772913353.6370313,-0.210376260791238,0.9192183686788185,-8.956847456227065,1.3467234908440513,-0.7594332870139776,9.764129250792346,0.0009987582201755507,-0.00043862719212743346,-0.001090830782496456,-13.445768307021492,-0.3068014568028908,-56.5
1772913353.6621237,-0.210376260791238,0.9192183686788185,-8.956847456227065,1.3446561789848048,-0.7571333975633587,9.76943819369019,0.0014373854123029843,0.0005601310280481173,0.001090830782496456,-13.445768307021492,-0.3068014568028908,-56.5
1772913353.6956475,-0.210376260791238,0.9192183686788185,-8.956847456227065,1.3463431705532383,-0.7569479289216337,9.76962612417661,0.0009987582201755507,-0.00043862719212743346,0.0,-13.772477636572978,-1.0507216568136304,-55.25
1772913353.7529817,-0.33682997495786104,0.919037598343692,-8.955929080163319,1.3474658445971002,-0.7568245016123861,9.769751189816,0.0,0.0,0.0,-13.772477636572978,-1.0507216568136304,-55.25
1772913353.7697656,-0.33682997495786104,0.919037598343692,-8.955929080163319,1.3468678895359862,-0.7598051266342303,9.76983441960194,0.0014373854123029843,0.0005601310280481173,0.0,-13.772477636572978,-1.0507216568136304,-55.25
1772913353.7843266,-0.33682997495786104,0.919037598343692,-8.955929080163319,1.3468678895359862,-0.7598051266342303,9.76983441960194,0.0014373854123029843,0.0005601310280481173,0.0,-13.772477636572978,-1.0507216568136304,-55.25
1772913353.8091516,-0.3271712877714709,0.9197777814050141,-8.955695122503116,1.3464699571224106,-0.7617886992905044,9.769889808094746,-0.00043862719212743346,-0.0009987582201755507,-0.001090830782496456,-12.768749535856761,0.14674907344770452,-57.0
1772913353.8436265,-0.2514915093586448,0.9218506855533125,-8.960874381309644,1.3462051375463724,-0.7631087447352966,9.763236445103338,0.003434901852654086,-0.00031712335620674974,0.001090830782496456,-12.768749535856761,0.14674907344770452,-57.0
1772913353.868024,-0.2514915093586448,0.9218506855533125,-8.960874381309644,1.3460289030767474,-0.7639872202329319,9.758808706355492,-0.0028747708246059686,-0.0011202620560962346,0.0,-12.768749535856761,0.14674907344770452,-57.0
1772913353.8903475,-0.2514915093586448,0.9218506855533125,-8.960874381309644,1.3460289030767474,-0.7639872202329319,9.758808706355492,-0.0028747708246059686,-0.0011202620560962346,0.0,-12.768749535856761,0.14674907344770452,-57.0
1772913353.9035795,-0.2611487684560708,0.9211102634867829,-8.961109090886202,1.3459116210058801,-0.7645718358633938,9.7592072073872,-0.0009987582201755507,0.00043862719212743346,-0.001090830782496456,-12.576190672567874,-0.3473876325040921,-55.75
1772913353.9482536,-0.2611487684560708,0.9211102634867829,-8.961109090886202,1.3458335710978444,-0.7649608910348819,9.769507740494214,0.0015588892482236681,-0.0018760126044304176,0.0,-12.576190672567874,-0.3473876325040921,-55.75
1772913353.9642925,-0.2611487684560708,0.9211102634867829,-8.961109090886202,1.3458335710978444,-0.7649608910348819,9.769507740494214,0.0015588892482236681,-0.0018760126044304176,0.0,-12.576190672567874,-0.3473876325040921,-55.75
1772913353.9850981,-0.20454669737381434,0.9197057675960774,-8.957100127156627,1.3457816297559213,-0.7652198029054761,9.776362630212438,0.0014373854123029843,0.0005601310280481173,0.0,-12.768749535856761,0.14674907344770452,-55.6875
1772913354.024703,-0.22586193991806297,0.9179909960522167,-8.956829348599179,1.3470921454693074,-0.7623293413457463,9.770889147623821,0.0,0.0,-0.001090830782496456,-12.768749535856761,0.14674907344770452,-55.6875
1772913354.0692766,-0.22586193991806297,0.9179909960522167,-8.956829348599179,1.3479642790371462,-0.7604057714663174,9.763901494396585,-0.12927843759477348,0.05558414956426336,0.0,-12.576190672567874,-0.3473876325040921,-56.5
1772913354.097953,-0.22586193991806297,0.9179909960522167,-8.956829348599179,1.3479642790371462,-0.7604057714663174,9.763901494396585,-0.12927843759477348,0.05558414956426336,0.0,-12.576190672567874,-0.3473876325040921,-56.5
1772913354.1451678,-0.22586193991806297,0.9179909960522167,-8.956829348599179,1.3485446741841725,-0.7591256571992409,9.75925128923106,-0.0009987582201755507,0.00043862719212743346,0.001090830782496456,-12.576190672567874,-0.3473876325040921,-56.5
1772913354.1692154,-0.33682997495786104,0.919037598343692,-8.955929080163319,1.34893092067108,-0.7582737554543149,9.752811517932278,0.0,0.0,0.001090830782496456,-12.358500322390412,-0.7842997076858315,-56.0625
1772913354.1862152,-0.43430396393050824,0.9210797739527363,-8.954310606685661,1.3491879633934607,-0.7577068243594325,9.748525922069899,0.0009987582201755507,-0.00043862719212743346,-0.001090830782496456,-12.358500322390412,-0.7842997076858315,-56.0625
1772913354.219568,-0.43430396393050824,0.9210797739527363,-8.954310606685661,1.3493590224538499,-0.7573295380488236,9.73898368248209,-0.0005601310280481173,0.0014373854123029843,0.001090830782496456,-12.358500322390412,-0.7842997076858315,-56.0625
1772913354.2572498,-0.43430396393050824,0.9210797739527363,-8.954310606685661,1.3493590224538499,-0.7573295380488236,9.73898368248209,-0.0005601310280481173,0.0014373854123029843,0.001090830782496456,-12.358500322390412,-0.7842997076858315,-56.0625
1772913354.2817447,-0.4850747915963986,0.9229643938757173,-8.95857660395994,1.3450650137340956,-0.7587961406448397,9.735978540337522,0.0019975164403511015,-0.0008772543842548669,0.001090830782496456,-12.232842887947532,-0.49817655383554704,-55.0
1772913354.3396478,-0.34648899485477563,0.9182973499743647,-8.956162921152925,1.3452701634156947,-0.7611172303856771,9.733978651809949,-0.0011202620560962346,0.0028747708246059686,-0.001090830782496456,-12.232842887947532,-0.49817655383554704,-55.0
1772913354.3725212,-0.34648899485477563,0.9182973499743647,-8.956162921152925,1.3454066882371267,-0.762661889679933,9.742683083457026,-0.0013158815763823005,-0.0029962746605266526,0.001090830782496456,-12.701848107010752,-0.6335107863543765,-54.5625
1772913354.3960705,-0.34648899485477563,0.9182973499743647,-8.956162921152925,1.3454066882371267,-0.762661889679933,9.742683083457026,-0.0013158815763823005,-0.0029962746605266526,0.001090830782496456,-12.701848107010752,-0.6335107863543765,-54.5625
1772913354.4593153,-0.30202885432863935,0.9217450999315588,-8.955479774003216,1.3486207719805108,-0.7657190168563175,9.752330763973037,-0.00043862719212743346,-0.0009987582201755507,-0.001090830782496456,-12.29974431679354,0.28208330596653397,-55.25
1772913354.4976292,-0.30202885432863935,0.9217450999315588,-8.955479774003216,1.350699245325637,-0.7670694092670343,9.754896209095035,0.00012150383592068386,-0.002436143632478535,0.001090830782496456,-12.29974431679354,0.28208330596653397,-55.25
1772913354.5814075,-0.3116870967259414,0.9210050219816558,-8.955714055864835,1.3534275282149628,-0.7649053158141195,9.749913260751187,-0.0009987582201755507,0.00043862719212743346,-0.001090830782496456,-12.576190672567874,-0.3473876325040921,-55.75
1772913354.6415682,-0.3116870967259414,0.9210050219816558,-8.955714055864835,1.3521804054835174,-0.7621200536994994,9.753287387706175,-0.00043862719212743346,-0.0009987582201755507,-0.001090830782496456,-12.576190672567874,-0.3473876325040921,-55.75
1772913354.6742465,-0.3116870967259414,0.9210050219816558,-8.955714055864835,1.3521804054835174,-0.7621200536994994,9.753287387706175,-0.00043862719212743346,-0.0009987582201755507,-0.001090830782496456,-12.576190672567874,-0.3473876325040921,-55.75
1772913354.7085412,-0.3116870967259414,0.9210050219816558,-8.955714055864835,1.351350459237014,-0.7602664928756363,9.755532831503253,0.0029962746605266526,-0.0013158815763823005,0.001090830782496456,-13.16932195124716,0.3226694816677353,-55.75
1772913354.7849703,-0.3116870967259414,0.9210050219816558,-8.955714055864835,1.3507981392810733,-0.7590329688529864,9.760372260974275,0.0014373854123029843,0.0005601310280481173,0.001090830782496456,-13.16932195124716,0.3226694816677353,-55.75
1772913354.8408458,-0.36246010046882754,0.9228936645686703,-8.959978184870057,1.3473678120028376,-0.756866990299066,9.760247735519952,0.0014373854123029843,0.0005601310280481173,-0.001090830782496456,-11.795930812765793,-0.2804862036580845,-54.0625
1772913354.8739855,-0.36246010046882754,0.9228936645686703,-8.959978184870057,1.3450849675184384,-0.7554255557669979,9.76016486522114,0.0019975164403511015,-0.0008772543842548669,0.001090830782496456,-11.795930812765793,-0.2804862036580845,-54.0625
1772913354.922261,-0.36246010046882754,0.9228936645686703,-8.959978184870057,1.3496912890498647,-0.7571564613802113,9.756764604255684,-0.0009987582201755507,0.00043862719212743346,0.002181661564992912,-13.37190522118258,-1.2266420650336611,-56.0625
1772913354.974783,-0.36246010046882754,0.9228936645686703,-8.959978184870057,1.3527567445730457,-0.7583083597303224,9.754501768566577,0.0011202620560962346,-0.0028747708246059686,0.001090830782496456,-13.37190522118258,-1.2266420650336611,-56.0625
1772913355.0066657,-0.36246010046882754,0.9228936645686703,-8.959978184870057,1.351734006462966,-0.7577298531185606,9.752995876693006,0.0015588892482236681,-0.0018760126044304176,0.0,-12.42540175123642,-0.004039847883750433,-56.5
1772913355.0636456,-0.36246010046882754,0.9228936645686703,-8.959978184870057,1.3479906211580657,-0.7559997813345621,9.75199372247306,0.0,0.0,-0.001090830782496456,-12.42540175123642,-0.004039847883750433,-56.5
1772913355.1049051,-0.36246010046882754,0.9228936645686703,-8.959978184870057,1.3441543579577953,-0.7579112024058545,9.7546719117418,0.00043862719212743346,0.0009987582201755507,-0.001090830782496456,-12.072377168540127,-0.9099571421287106,-55.75
1772913355.1440358,-0.36246010046882754,0.9228936645686703,-8.959978184870057,1.3429464497480965,-0.756120467259452,9.756454216782814,0.0009987582201755507,-0.00043862719212743346,0.001090830782496456,-12.072377168540127,-0.9099571421287106,-55.75
1772913355.1815667,-0.36246010046882754,0.9228936645686703,-8.959978184870057,1.3377347537141724,-0.7566464354445055,9.757640320877956,-0.0015588892482236681,0.0018760126044304176,0.001090830782496456,-12.072377168540127,-0.9099571421287106,-55.75
1772913355.2185075,-0.36246010046882754,0.9228936645686703,-8.959978184870057,1.3386742748356435,-0.7552787789750469,9.758429659903623,0.0,0.0,-0.003272492347489368,-13.028557436562238,-1.3774309863651162,-55.0
1772913355.2721748,-0.36246010046882754,0.9228936645686703,-8.959978184870057,1.3379544335506308,-0.7574313833897213,9.75895495620771,-0.00043862719212743346,-0.0009987582201755507,0.001090830782496456,-13.028557436562238,-1.3774309863651162,-55.0
1772913355.3102863,-0.36246010046882754,0.9228936645686703,-8.959978184870057,1.3379544335506308,-0.7574313833897213,9.75895495620771,-0.00043862719212743346,-0.0009987582201755507,0.001090830782496456,-13.028557436562238,-1.3774309863651162,-55.0
1772913355.3291204,-0.36246010046882754,0.9228936645686703,-8.959978184870057,1.3388204693128218,-0.755801153064145,9.759304535030134,0.0014373854123029843,0.0005601310280481173,0.0,-12.919538457188215,-0.19659871117263714,-54.5
1772913355.3569825,-0.36246010046882754,0.9228936645686703,-8.959978184870057,1.342832171280631,-0.7635319462205163,9.762882287538726,0.003434901852654086,-0.00031712335620674974,0.0,-12.919538457188215,-0.19659871117263714,-54.5
1772913355.3835104,-0.36246010046882754,0.9228936645686703,-8.959978184870057,1.3455019141265605,-0.7686767027074636,9.761918130159762,-0.00043862719212743346,-0.0009987582201755507,0.002181661564992912,-12.919538457188215,-0.19659871117263714,-54.5
1772913355.435219,-0.36246010046882754,0.9228936645686703,-8.959978184870057,1.3411530691327946,-0.7694103164864051,9.761276494194403,-0.0014373854123029843,-0.0005601310280481173,-0.001090830782496456,-12.576190672567874,-0.3473876325040921,-55.25
1772913355.4641607,-0.36246010046882754,0.9228936645686703,-8.959978184870057,1.3409491255616515,-0.7637729992265375,9.760849492627,-0.0009987582201755507,0.00043862719212743346,-0.001090830782496456,-12.576190672567874,-0.3473876325040921,-55.25
1772913355.4937673,-0.377943434535447,0.9216658262086251,-8.95995889414313,1.3438761679106297,-0.7613665096592688,9.760565327853815,0.0029962746605266526,-0.0013158815763823005,0.0,-12.576190672567874,-0.3473876325040921,-55.25
1772913355.5195084,-0.377943434535447,0.9216658262086251,-8.95995889414313,1.3444789998004563,-0.7628277822518763,9.757031107664268,0.00043862719212743346,0.0009987582201755507,-0.001090830782496456,-11.9563965321732,0.13129438463507903,-55.75
1772913355.5400698,-0.377943434535447,0.9216658262086251,-8.95995889414313,1.3444789998004563,-0.7628277822518763,9.757031107664268,0.00043862719212743346,0.0009987582201755507,-0.001090830782496456,-11.9563965321732,0.13129438463507903,-55.75
1772913355.5546,-0.377943434535447,0.9216658262086251,-8.95995889414313,1.3448801776890624,-0.7638002428387723,9.754679123607952,0.00043862719212743346,0.0009987582201755507,0.001090830782496456,-11.9563965321732,0.13129438463507903,-55.75
1772913355.583787,-0.377943434535447,0.9216658262086251,-8.95995889414313,1.345147157092479,-0.7644474044962549,9.759804127906495,0.0005601310280481173,-0.0014373854123029843,0.0,-11.9563965321732,0.13129438463507903,-55.75
1772913355.6041036,-0.377943434535447,0.9216658262086251,-8.95995889414313,1.345147157092479,-0.7644474044962549,9.759804127906495,0.0005601310280481173,-0.0014373854123029843,0.0,-11.9563965321732,0.13129438463507903,-55.75
1772913355.6533086,-0.377943434535447,0.9216658262086251,-8.95995889414313,1.3453248289030975,-0.7648780833500404,9.763214761017126,0.00043862719212743346,0.0009987582201755507,-0.001090830782496456,-12.358500322390412,-0.7842997076858315,-55.25
1772913355.674257,-0.377943434535447,0.9216658262086251,-8.95995889414313,1.348505832025715,-0.7665097774124496,9.758794275838344,0.00043862719212743346,0.0009987582201755507,-0.002181661564992912,-12.358500322390412,-0.7842997076858315,-55.25
1772913355.6985943,-0.377943434535447,0.9216658262086251,-8.95995889414313,1.348505832025715,-0.7665097774124496,9.758794275838344,0.00043862719212743346,0.0009987582201755507,-0.002181661564992912,-12.358500322390412,-0.7842997076858315,-55.25
1772913355.7322817,-0.377943434535447,0.9216658262086251,-8.95995889414313,1.3475599895523087,-0.7662505694875529,9.75585249233192,0.00043862719212743346,0.0009987582201755507,0.001090830782496456,-13.16932195124716,0.3226694816677353,-56.0625
1772913355.7644517,-0.377943434535447,0.9216658262086251,-8.95995889414313,1.3469305419520095,-0.7660780695090763,9.75389476827027,0.00043862719212743346,0.0009987582201755507,-0.001090830782496456,-13.16932195124716,0.3226694816677353,-56.0625
1772913355.7795115,-0.377943434535447,0.9216658262086251,-8.95995889414313,1.3434488870880257,-0.7646181906041382,9.752591924776452,-0.0009987582201755507,0.00043862719212743346,-0.001090830782496456,-13.045195891631094,-0.4827218650229216,-55.25
1772913355.8041034,-0.377943434535447,0.9216658262086251,-8.95995889414313,1.3455397312822657,-0.7619289750796556,9.755070008692352,-0.0009987582201755507,0.00043862719212743346,-0.002181661564992912,-13.045195891631094,-0.4827218650229216,-55.25
1772913355.820619,-0.377943434535447,0.9216658262086251,-8.95995889414313,1.3438684002198975,-0.7587942500924051,9.756719145856371,-0.0005601310280481173,0.0014373854123029843,0.0,-13.045195891631094,-0.4827218650229216,-55.25
1772913355.8494923,-0.377943434535447,0.9216658262086251,-8.95995889414313,1.3438684002198975,-0.7587942500924051,9.756719145856371,-0.0005601310280481173,0.0014373854123029843,0.0,-13.045195891631094,-0.4827218650229216,-55.25
1772913355.871337,-0.377943434535447,0.9216658262086251,-8.95995889414313,1.3427561480678827,-0.7567081256305624,9.757816628216958,-0.00043862719212743346,-0.0009987582201755507,0.001090830782496456,-13.045195891631094,-0.4827218650229216,-56.0625
1772913355.8888516,-0.377943434535447,0.9216658262086251,-8.95995889414313,1.3427561480678827,-0.7567081256305624,9.757816628216958,-0.00043862719212743346,-0.0009987582201755507,0.001090830782496456,-13.045195891631094,-0.4827218650229216,-56.0625
1772913355.9330435,-0.377943434535447,0.9216658262086251,-8.95995889414313,1.3406708745891742,-0.7583825976221185,9.758546990468247,0.0005601310280481173,-0.0014373854123029843,0.001090830782496456,-13.045195891631094,-0.4827218650229216,-56.0625
1772913355.9570708,-0.377943434535447,0.9216658262086251,-8.95995889414313,1.3406282304793378,-0.756434175510046,9.759033038387798,-0.0014373854123029843,-0.0005601310280481173,0.0,-12.576190672567874,-0.3473876325040921,-55.0
1772913355.9820063,-0.377943434535447,0.9216658262086251,-8.95995889414313,1.3453802982391452,-0.7608904510695643,9.75935649784875,-0.0009987582201755507,0.00043862719212743346,-0.001090830782496456,-12.576190672567874,-0.3473876325040921,-55.0
1772913356.007876,-0.377943434535447,0.9216658262086251,-8.95995889414313,1.3437622993106844,-0.7581031239647628,9.759571756506732,-0.0014373854123029843,-0.0005601310280481173,-0.001090830782496456,-13.320110872578613,-0.020678302952606357,-55.25
1772913356.031941,-0.377943434535447,0.9216658262086251,-8.95995889414313,1.3437622993106844,-0.7581031239647628,9.759571756506732,-0.0014373854123029843,-0.0005601310280481173,-0.001090830782496456,-13.320110872578613,-0.020678302952606357,-55.25
1772913356.0534656,-0.377943434535447,0.9216658262086251,-8.95995889414313,1.3444032215191881,-0.7606560355265893,9.759715008739024,0.0015588892482236681,-0.0018760126044304176,0.001090830782496456,-13.320110872578613,-0.020678302952606357,-55.25
1772913356.0715415,-0.377943434535447,0.9216658262086251,-8.95995889414313,1.3448297480893772,-0.7623549696530943,9.7631554532067,-0.00012150383592068386,0.002436143632478535,0.0,-12.768749535856761,0.14674907344770452,-55.6875
1772913356.0932295,-0.377943434535447,0.9216658262086251,-8.95995889414313,1.3481763612745994,-0.7648306734321587,9.765445030567657,-0.0009987582201755507,0.00043862719212743346,0.0,-12.768749535856761,0.14674907344770452,-55.6875
1772913356.1316981,-0.377943434535447,0.9216658262086251,-8.95995889414313,1.3481763612745994,-0.7648306734321587,9.765445030567657,-0.0009987582201755507,0.00043862719212743346,0.0,-12.768749535856761,0.14674907344770452,-55.6875
1772913356.16584,-0.377943434535447,0.9216658262086251,-8.95995889414313,1.3517485770614588,-0.7634154621243278,9.766968718725117,0.002557647468399219,-0.002314639796557851,0.001090830782496456,-12.509289243721867,-1.1276474923061723,-55.75
1772913356.2050965,-0.377943434535447,0.9216658262086251,-8.95995889414313,1.3510630822459737,-0.7611285727116992,9.761292492758557,0.0019975164403511015,-0.0008772543842548669,0.0,-12.509289243721867,-1.1276474923061723,-55.75
1772913356.2297304,-0.377943434535447,0.9216658262086251,-8.95995889414313,1.3506068931037474,-0.7596066733538236,9.75751502778541,-0.0009987582201755507,0.00043862719212743346,0.0,-13.19598481296255,-0.8260696496432623,-54.5
1772913356.2633393,-0.377943434535447,0.9216658262086251,-8.95995889414313,1.347240539808187,-0.757248784235674,9.758346278750148,-0.0028747708246059686,-0.0011202620560962346,-0.001090830782496456,-13.19598481296255,-0.8260696496432623,-54.5
1772913356.282965,-0.377943434535447,0.9216658262086251,-8.95995889414313,1.3436551871984088,-0.7587423998842678,9.7588994669815,0.0015588892482236681,-0.0018760126044304176,0.0,-13.19598481296255,-0.8260696496432623,-54.5
1772913356.3134856,-0.377943434535447,0.9216658262086251,-8.95995889414313,1.3436551871984088,-0.7587423998842678,9.7588994669815,0.0015588892482236681,-0.0018760126044304176,0.0,-13.19598481296255,-0.8260696496432623,-54.5
1772913356.3484259,-0.377943434535447,0.9216658262086251,-8.95995889414313,1.3426142571838273,-0.7566736198962518,9.759267607569948,-0.0019975164403511015,0.0008772543842548669,0.001090830782496456,-13.445768307021492,-0.3068014568028908,-56.5
1772913356.3645394,-0.377943434535447,0.9216658262086251,-8.95995889414313,1.3436392123082357,-0.7597047165376022,9.75616748931184,-0.0003171233562067497,-0.003434901852654086,0.0,-13.445768307021492,-0.3068014568028908,-56.5
1772913356.3903987,-0.377943434535447,0.9216658262086251,-8.95995889414313,1.3443213084940304,-0.7617218774928527,9.760794618656298,-0.0019975164403511015,0.0008772543842548669,0.001090830782496456,-13.445768307021492,-0.3068014568028908,-56.5
1772913356.4110672,-0.377943434535447,0.9216658262086251,-8.95995889414313,1.3443213084940304,-0.7617218774928527,9.760794618656298,-0.0019975164403511015,0.0008772543842548669,0.001090830782496456,-13.445768307021492,-0.3068014568028908,-56.5
1772913356.4269662,-0.377943434535447,0.9216658262086251,-8.95995889414313,1.3478380004035384,-0.7644093576716208,9.757183698131975,0.0,0.0,0.0,-13.596557228352948,-0.6501492414232315,-55.75
1772913356.4555025,-0.377943434535447,0.9216658262086251,-8.95995889414313,1.3515234016815063,-0.763135081192095,9.754780670859663,-0.0009987582201755507,0.00043862719212743346,-0.001090830782496456,-13.596557228352948,-0.6501492414232315,-55.75
1772913356.4696944,-0.377943434535447,0.9216658262086251,-8.95995889414313,1.3515234016815063,-0.763135081192095,9.754780670859663,-0.0009987582201755507,0.00043862719212743346,-0.001090830782496456,-13.596557228352948,-0.6501492414232315,-55.75
1772913356.4917362,-0.377943434535447,0.9216658262086251,-8.95995889414313,1.353975995063364,-0.7622870644295717,9.753181483053513,-0.002436143632478535,-0.0001215038359206838,-0.002181661564992912,-13.596557228352948,-0.6501492414232315,-55.75
1772913356.5159998,-0.377943434535447,0.9216658262086251,-8.95995889414313,1.3481375574307641,-0.7620953190720293,9.755462353139938,-0.0009987582201755507,0.00043862719212743346,-0.002181661564992912,-12.232842887947532,-0.49817655383554704,-56.0625
1772913356.5450728,-0.377943434535447,0.9216658262086251,-8.95995889414313,1.3442521424058906,-0.7619677146785209,9.760325358410785,0.0009987582201755507,-0.00043862719212743346,0.0,-12.232842887947532,-0.49817655383554704,-56.0625
1772913356.5728045,-0.377943434535447,0.9216658262086251,-8.95995889414313,1.346074288723355,-0.7601651129589134,9.763561634095206,0.0014373854123029843,0.0005601310280481173,-0.001090830782496456,-12.232842887947532,-0.49817655383554704,-56.0625
1772913356.602987,-0.377943434535447,0.9216658262086251,-8.95995889414313,1.3472869067429196,-0.7589655016508953,9.765715339411619,-0.00043862719212743346,-0.0009987582201755507,0.001090830782496456,-12.852637028342208,-0.9768585709747173,-56.5625
1772913356.6292026,-0.377943434535447,0.9216658262086251,-8.95995889414313,1.3472869067429196,-0.7589655016508953,9.765715339411619,-0.00043862719212743346,-0.0009987582201755507,0.001090830782496456,-12.852637028342208,-0.9768585709747173,-56.5625
1772913356.6554823,-0.377943434535447,0.9216658262086251,-8.95995889414313,1.349438972585322,-0.7551044092085704,9.770493717948547,0.0009987582201755507,-0.00043862719212743346,0.0,-12.852637028342208,-0.9768585709747173,-56.5625
1772913356.6983244,-0.377943434535447,0.9216658262086251,-8.95995889414313,1.3444830260490181,-0.7536856934142364,9.749040828040657,-0.00043862719212743346,-0.0009987582201755507,0.0,-12.701848107010752,-0.6335107863543765,-55.75
1772913356.7465475,-0.377943434535447,0.9216658262086251,-8.95995889414313,1.3444830260490181,-0.7536856934142364,9.749040828040657,-0.00043862719212743346,-0.0009987582201755507,0.0,-12.701848107010752,-0.6335107863543765,-55.75
1772913356.780346,-0.377943434535447,0.9216658262086251,-8.95995889414313,1.341820092595129,-0.7563712027449336,9.739326346653753,-0.0028747708246059686,-0.0011202620560962346,0.001090830782496456,-13.045195891631094,-0.4827218650229216,-55.75
1772913356.804902,-0.377943434535447,0.9216658262086251,-8.95995889414313,1.3431107046458566,-0.7595034613016207,9.742896802930593,-0.00043862719212743346,-0.0009987582201755507,0.0,-13.045195891631094,-0.4827218650229216,-55.75
1772913356.8392756,-0.377943434535447,0.9216658262086251,-8.95995889414313,1.3431107046458566,-0.7595034613016207,9.742896802930593,-0.00043862719212743346,-0.0009987582201755507,0.0,-13.045195891631094,-0.4827218650229216,-55.75
1772913356.8636148,66.28595292791823,0.00173775750298289,134.1544435080606,1.3439695925485347,-0.7615879443814754,9.74861801340554,0.0009987582201755507,-0.00043862719212743346,0.001090830782496456,-12.358500322390412,-0.7842997076858315,-55.75
1772913356.8814638,-0.377943434535447,0.9216658262086251,-8.95995889414313,1.3445411728533603,-0.762975144585917,9.759115638481147,-0.0005601310280481173,0.0014373854123029843,0.0,-12.358500322390412,-0.7842997076858315,-55.75
1772913356.90153,-0.377943434535447,0.9216658262086251,-8.95995889414313,1.3445411728533603,-0.762975144585917,9.759115638481147,-0.0005601310280481173,0.0014373854123029843,0.0,-12.358500322390412,-0.7842997076858315,-55.75
1772913356.9291203,-0.377943434535447,0.9216658262086251,-8.95995889414313,1.3449215531612513,-0.7638983108259312,9.766101690702808,-0.0008772543842548669,-0.0019975164403511015,0.001090830782496456,-12.701848107010752,-0.6335107863543765,-55.75
1772913356.9517386,-0.377943434535447,0.9216658262086251,-8.95995889414313,1.3449215531612513,-0.7638983108259312,9.766101690702808,-0.0008772543842548669,-0.0019975164403511015,0.001090830782496456,-12.701848107010752,-0.6335107863543765,-55.75
1772913356.9684453,-0.377943434535447,0.9216658262086251,-8.95995889414313,1.3482374565244015,-0.7658577497424311,9.770750830417006,0.0019975164403511015,-0.0008772543842548669,0.001090830782496456,-12.701848107010752,-0.6335107863543765,-55.75
1772913356.9817245,-0.377943434535447,0.9216658262086251,-8.95995889414313,1.3482374565244015,-0.7658577497424311,9.770750830417006,0.0019975164403511015,-0.0008772543842548669,0.001090830782496456,-12.701848107010752,-0.6335107863543765,-55.75
1772913356.9981277,-0.377943434535447,0.9216658262086251,-8.95995889414313,1.3517892352677234,-0.7640989699356198,9.773844780962511,0.0029962746605266526,-0.0013158815763823005,-0.001090830782496456,-12.701848107010752,-0.6335107863543765,-55.75
1772913357.0138576,-0.377943434535447,0.9216658262086251,-8.95995889414313,1.3517892352677234,-0.7640989699356198,9.773844780962511,0.0029962746605266526,-0.0013158815763823005,-0.001090830782496456,-12.701848107010752,-0.6335107863543765,-55.75
1772913357.0331635,-0.377943434535447,0.9216658262086251,-8.95995889414313,1.351090139828061,-0.7615834395248315,9.775903770488853,0.0005601310280481173,-0.0014373854123029843,0.0,-12.358500322390412,-0.7842997076858315,-55.25
1772913357.046487,-0.377943434535447,0.9216658262086251,-8.95995889414313,1.3506248996223733,-0.7599093821367678,9.773928893310893,0.0,0.0,-0.001090830782496456,-12.358500322390412,-0.7842997076858315,-55.25
1772913357.0631444,-0.377943434535447,0.9216658262086251,-8.95995889414313,1.350315287462562,-0.7587953156454579,9.765924411195147,-0.0009987582201755507,0.00043862719212743346,-0.001090830782496456,-12.358500322390412,-0.7842997076858315,-55.25
1772913357.0828261,-0.377943434535447,0.9216658262086251,-8.95995889414313,1.350315287462562,-0.7587953156454579,9.765924411195147,-0.0009987582201755507,0.00043862719212743346,-0.001090830782496456,-12.358500322390412,-0.7842997076858315,-55.25
1772913357.1011956,-0.377943434535447,0.9216658262086251,-8.95995889414313,1.3501092440288016,-0.7580539168404291,9.76394262947036,0.00012150383592068386,-0.002436143632478535,0.0,-13.19598481296255,-0.8260696496432623,-57.0
1772913357.1185632,-0.377943434535447,0.9216658262086251,-8.95995889414313,1.34997212442529,-0.7575605242176497,9.759278664163148,0.0005601310280481173,-0.0014373854123029843,-0.002181661564992912,-13.19598481296255,-0.8260696496432623,-57.0
1772913357.132815,-0.377943434535447,0.9216658262086251,-8.95995889414313,1.34997212442529,-0.7575605242176497,9.759278664163148,0.0005601310280481173,-0.0014373854123029843,-0.002181661564992912,-13.19598481296255,-0.8260696496432623,-57.0
1772913357.147254,-0.377943434535447,0.9216658262086251,-8.95995889414313,1.3498808728608798,-0.757232176938747,9.759519959058425,0.0005601310280481173,-0.0014373854123029843,-0.001090830782496456,-13.19598481296255,-0.8260696496432623,-57.0
1772913357.162691,-0.377943434535447,0.9216658262086251,-8.95995889414313,1.3498808728608798,-0.757232176938747,9.759519959058425,0.0005601310280481173,-0.0014373854123029843,-0.001090830782496456,-13.19598481296255,-0.8260696496432623,-57.0
1772913357.1777337,-0.377943434535447,0.9216658262086251,-8.95995889414313,1.3484750638678982,-0.7600764300098917,9.756335426408471,-0.0009987582201755507,0.00043862719212743346,-0.003272492347489368,-12.358500322390412,-0.7842997076858315,-55.75
1772913357.1978803,-0.377943434535447,0.9216658262086251,-8.95995889414313,1.3475395136869843,-0.7619692486563499,9.754216155503487,0.0029962746605266526,-0.0013158815763823005,0.002181661564992912,-12.358500322390412,-0.7842997076858315,-55.75
1772913357.2173865,-0.377943434535447,0.9216658262086251,-8.95995889414313,1.3475395136869843,-0.7619692486563499,9.754216155503487,0.0029962746605266526,-0.0013158815763823005,0.002181661564992912,-12.358500322390412,-0.7842997076858315,-55.75
1772913357.232225,-0.377943434535447,0.9216658262086251,-8.95995889414313,1.3469169154923666,-0.7632288983213981,9.749460692682709,-0.0029962746605266526,0.0013158815763823005,-0.001090830782496456,-13.445768307021492,-0.3068014568028908,-54.5625
1772913357.2463493,-0.377943434535447,0.9216658262086251,-8.95995889414313,1.3469169154923666,-0.7632288983213981,9.749460692682709,-0.0029962746605266526,0.0013158815763823005,-0.001090830782496456,-13.445768307021492,-0.3068014568028908,-54.5625
1772913357.2661588,-0.377943434535447,0.9216658262086251,-8.95995889414313,1.346502583348726,-0.764067181102279,9.74629598529748,-0.0005601310280481173,0.0014373854123029843,0.0,-13.445768307021492,-0.3068014568028908,-54.5625
1772913357.280882,-0.377943434535447,0.9216658262086251,-8.95995889414313,1.3506346965491147,-0.7629073665075609,9.750880131299349,0.0,0.0,0.0,-13.445768307021492,-0.3068014568028908,-54.5625
1772913357.298829,-0.377943434535447,0.9216658262086251,-8.95995889414313,1.3506346965491147,-0.7629073665075609,9.750880131299349,0.0,0.0,0.0,-13.445768307021492,-0.3068014568028908,-54.5625
1772913357.3160548,-0.377943434535447,0.9216658262086251,-8.95995889414313,1.3533845717252444,-0.7621355228507538,9.753930829255324,-0.0009987582201755507,0.00043862719212743346,-0.001090830782496456,-11.9563965321732,0.13129438463507903,-55.75
1772913357.3373232,-0.377943434535447,0.9216658262086251,-8.95995889414313,1.3582773474542154,-0.7629669516154205,9.755961034666498,0.0005601310280481173,-0.0014373854123029843,0.001090830782496456,-11.9563965321732,0.13129438463507903,-55.75
1772913357.3547776,-0.377943434535447,0.9216658262086251,-8.95995889414313,1.3554079060112094,-0.7608300939782122,9.753967001981435,0.0,0.0,0.001090830782496456,-11.9563965321732,0.13129438463507903,-55.75
1772913357.3691437,-0.377943434535447,0.9216658262086251,-8.95995889414313,1.3554079060112094,-0.7608300939782122,9.753967001981435,0.0,0.0,0.001090830782496456,-11.9563965321732,0.13129438463507903,-55.75
1772913357.404389,-0.377943434535447,0.9216658262086251,-8.95995889414313,1.3582787717231872,-0.7651609678007152,9.75263999550433,-0.0019975164403511015,0.0008772543842548669,-0.001090830782496456,-13.37190522118258,-1.2266420650336611,-56.0625
1772913357.4364717,-0.377943434535447,0.9216658262086251,-8.95995889414313,1.3540637717500867,-0.7653529517581342,9.755101999224769,-0.0019975164403511015,0.0008772543842548669,-0.001090830782496456,-13.37190522118258,-1.2266420650336611,-56.0625
1772913357.4671292,-0.377943434535447,0.9216658262086251,-8.95995889414313,1.3512587363526232,-0.7654807149371952,9.756740435198337,0.0,0.0,-0.001090830782496456,-12.852637028342208,-0.9768585709747173,-55.375
1772913357.491424,-0.377943434535447,0.9216658262086251,-8.95995889414313,1.3493920166299098,-0.7655657399056521,9.757830796036219,0.0014373854123029843,0.0005601310280481173,0.001090830782496456,-12.852637028342208,-0.9768585709747173,-55.375
1772913357.526772,-0.377943434535447,0.9216658262086251,-8.95995889414313,1.35427526454182,-0.7683124872647953,9.758556418993699,-0.00043862719212743346,-0.0009987582201755507,0.0,-12.919538457188215,-0.19659871117263714,-56.5625
1772913357.5538468,-0.377943434535447,0.9216658262086251,-8.95995889414313,1.35427526454182,-0.7683124872647953,9.758556418993699,-0.00043862719212743346,-0.0009987582201755507,0.0,-12.919538457188215,-0.19659871117263714,-56.5625
1772913357.5699074,-0.377943434535447,0.9216658262086251,-8.95995889414313,1.3588700935739557,-0.7670776524317514,9.759039312966163,-0.00043862719212743346,-0.0009987582201755507,-0.001090830782496456,-12.919538457188215,-0.19659871117263714,-56.5625
1772913357.588164,-0.377943434535447,0.9216658262086251,-8.95995889414313,1.3588651364498636,-0.7649108015481566,9.762705785217879,0.0009987582201755507,-0.00043862719212743346,0.0,-12.919538457188215,-0.19659871117263714,-56.5625
1772913357.615733,-0.377943434535447,0.9216658262086251,-8.95995889414313,1.3588651364498636,-0.7649108015481566,9.762705785217879,0.0009987582201755507,-0.00043862719212743346,0.0,-12.919538457188215,-0.19659871117263714,-56.5625
1772913357.64883,-0.377943434535447,0.9216658262086251,-8.95995889414313,1.3588618375391552,-0.7634687864904346,9.761800669836896,0.0,0.0,0.001090830782496456,-13.045195891631094,-0.4827218650229216,-55.75
1772913357.6712468,-0.377943434535447,0.9216658262086251,-8.95995889414313,1.3575145600547167,-0.7655719060952594,9.761198325661654,0.0019975164403511015,-0.0008772543842548669,0.0,-13.045195891631094,-0.4827218650229216,-55.75
1772913357.6923087,-0.377943434535447,0.9216658262086251,-8.95995889414313,1.3566179619388985,-0.7669715086988849,9.760797472341656,0.0005601310280481173,-0.0014373854123029843,0.001090830782496456,-12.509289243721867,-1.1276474923061723,-55.0
1772913357.7290695,-0.377943434535447,0.9216658262086251,-8.95995889414313,1.360429132522067,-0.7661852461758502,9.757185597227704,0.0009987582201755507,-0.00043862719212743346,0.0,-12.509289243721867,-1.1276474923061723,-55.0
1772913357.7692573,-0.377943434535447,0.9216658262086251,-8.95995889414313,1.360429132522067,-0.7661852461758502,9.757185597227704,0.0009987582201755507,-0.00043862719212743346,0.0,-12.509289243721867,-1.1276474923061723,-55.0
1772913357.7944725,-0.377943434535447,0.9216658262086251,-8.95995889414313,1.3599026594542254,-0.7643169151536854,9.754781934686656,0.0005601310280481173,-0.0014373854123029843,0.0,-13.37190522118258,-1.2266420650336611,-55.0
1772913357.818603,-0.377943434535447,0.9216658262086251,-8.95995889414313,1.3595522975086665,-0.7630735617290597,9.75318232411626,0.0009987582201755507,-0.00043862719212743346,0.0,-13.37190522118258,-1.2266420650336611,-55.0
1772913357.8469598,-0.377943434535447,0.9216658262086251,-8.95995889414313,1.3595522975086665,-0.7630735617290597,9.75318232411626,0.0009987582201755507,-0.00043862719212743346,0.0,-13.37190522118258,-1.2266420650336611,-55.0
1772913357.8656633,-0.377943434535447,0.9216658262086251,-8.95995889414313,1.3566289713552702,-0.7683716529488894,9.755462912857801,0.0015588892482236681,-0.0018760126044304176,0.0,-12.701848107010752,-0.6335107863543765,-55.75
1772913357.8892715,-0.377943434535447,0.9216658262086251,-8.95995889414313,1.3573736946483037,-0.765771944437379,9.75698061918945,0.0,0.0,0.001090830782496456,-12.701848107010752,-0.6335107863543765,-55.75
1772913357.9227104,-0.377943434535447,0.9216658262086251,-8.95995889414313,1.3609320641980887,-0.7653869495598288,9.757990635799272,0.0005601310280481173,-0.0014373854123029843,0.001090830782496456,-12.701848107010752,-0.6335107863543765,-55.75
1772913357.9665458,-0.377943434535447,0.9216658262086251,-8.95995889414313,1.3602373548665028,-0.7637856576732805,9.758662790570485,-0.0015588892482236681,0.0018760126044304176,-0.001090830782496456,-12.509289243721867,-1.1276474923061723,-55.75
1772913358.0015712,-0.377943434535447,0.9216658262086251,-8.95995889414313,1.3597750335667442,-0.7627200158103852,9.762455213769584,-0.0009987582201755507,0.00043862719212743346,-0.001090830782496456,-12.509289243721867,-1.1276474923061723,-55.75
1772913358.0613654,-0.377943434535447,0.9216658262086251,-8.95995889414313,1.3594673639062225,-0.762010843054628,9.764979029044444,0.0,0.0,0.0,-13.179346357893694,-1.720778770985457,-56.0625
1772913358.0802743,-0.377943434535447,0.9216658262086251,-8.95995889414313,1.3592626131840404,-0.7615388965076503,9.766658599916997,-0.003434901852654086,0.00031712335620674974,-0.001090830782496456,-13.179346357893694,-1.720778770985457,-56.0625
1772913358.1075194,-0.377943434535447,0.9216658262086251,-8.95995889414313,1.3560635893482684,-0.7598797392564118,9.767776335570646,0.0019975164403511015,-0.0008772543842548669,0.001090830782496456,-13.179346357893694,-1.720778770985457,-56.0625
1772913358.1264582,-0.377943434535447,0.9216658262086251,-8.95995889414313,1.3525895926247868,-0.7618383531570887,9.768520176162225,0.0019975164403511015,-0.0008772543842548669,0.001090830782496456,-12.768749535856761,0.14674907344770452,-56.5
1772913358.1428914,-0.377943434535447,0.9216658262086251,-8.95995889414313,1.3525895926247868,-0.7618383531570887,9.768520176162225,0.0019975164403511015,-0.0008772543842548669,0.001090830782496456,-12.768749535856761,0.14674907344770452,-56.5
1772913358.16032,-0.377943434535447,0.9216658262086251,-8.95995889414313,1.348560004191234,-0.75873394221525,9.772360305473995,0.003434901852654086,-0.00031712335620674974,0.0,-12.768749535856761,0.14674907344770452,-56.5
1772913358.1757264,-0.377943434535447,0.9216658262086251,-8.95995889414313,1.348560004191234,-0.75873394221525,9.772360305473995,0.003434901852654086,-0.00031712335620674974,0.0,-12.768749535856761,0.14674907344770452,-56.5
1772913358.1915808,-0.377943434535447,0.9216658262086251,-8.95995889414313,1.347596040523319,-0.7610758380255872,9.774915868633924,-0.003995032880702203,0.0017545087685097338,-0.001090830782496456,-12.768749535856761,0.14674907344770452,-56.5
1772913358.210133,-0.377943434535447,0.9216658262086251,-8.95995889414313,1.346954533470501,-0.7626343435266761,9.776616567369345,-0.0014373854123029843,-0.0005601310280481173,0.0,-13.179346357893694,-1.720778770985457,-55.75
1772913358.232306,-0.377943434535447,0.9216658262086251,-8.95995889414313,1.3465276176929541,-0.7636715115280037,9.77105813996508,0.0,0.0,-0.001090830782496456,-13.179346357893694,-1.720778770985457,-55.75
1772913358.2469525,-0.377943434535447,0.9216658262086251,-8.95995889414313,1.3465276176929541,-0.7636715115280037,9.77105813996508,0.0,0.0,-0.001090830782496456,-13.179346357893694,-1.720778770985457,-55.75
1772913358.2655606,-0.377943434535447,0.9216658262086251,-8.95995889414313,1.3431807454945832,-0.7630166531507484,9.767359068619243,-0.0005601310280481173,0.0014373854123029843,0.0,-13.179346357893694,-1.720778770985457,-55.75
1772913358.2853334,-0.377943434535447,0.9216658262086251,-8.95995889414313,1.3422985215297927,-0.7595180876985572,9.764897377959922,0.00043862719212743346,0.0009987582201755507,-0.002181661564992912,-12.919538457188215,-0.19659871117263714,-55.75
1772913358.3103733,-0.377943434535447,0.9216658262086251,-8.95995889414313,1.3422985215297927,-0.7595180876985572,9.764897377959922,0.00043862719212743346,0.0009987582201755507,-0.002181661564992912,-12.919538457188215,-0.19659871117263714,-55.75
1772913358.3328238,-0.377943434535447,0.9216658262086251,-8.95995889414313,1.3403663292400987,-0.7602525959890359,9.763259150325032,0.0009987582201755507,-0.00043862719212743346,0.001090830782496456,-12.919538457188215,-0.19659871117263714,-55.75
1772913358.3464434,-0.377943434535447,0.9216658262086251,-8.95995889414313,1.3434883234688977,-0.7590237206301923,9.758823816426895,-0.0019975164403511015,0.0008772543842548669,0.002181661564992912,-12.919538457188215,-0.19659871117263714,-55.75
1772913358.3662474,-0.377943434535447,0.9216658262086251,-8.95995889414313,1.347283658174365,-0.7626137644199074,9.755872151263612,-0.003434901852654086,0.00031712335620674974,-0.001090830782496456,-12.576190672567874,-0.3473876325040921,-57.0
1772913358.3814914,-0.377943434535447,0.9216658262086251,-8.95995889414313,1.347283658174365,-0.7626137644199074,9.755872151263612,-0.003434901852654086,0.00031712335620674974,-0.001090830782496456,-12.576190672567874,-0.3473876325040921,-57.0
1772913358.4068048,-0.377943434535447,0.9216658262086251,-8.95995889414313,1.3498094110241867,-0.7650028984585459,9.760598074484344,-0.0015588892482236681,0.0018760126044304176,0.0,-12.576190672567874,-0.3473876325040921,-57.0
1772913358.432393,-0.377943434535447,0.9216658262086251,-8.95995889414313,1.3470824247176472,-0.7683105228940459,9.76374312359572,-0.0029962746605266526,0.0013158815763823005,-0.002181661564992912,-12.576190672567874,-0.3473876325040921,-57.0
1772913358.4626968,-0.377943434535447,0.9216658262086251,-8.95995889414313,1.346612727889291,-0.7674489454899102,9.762491006939522,0.0009987582201755507,-0.00043862719212743346,-0.001090830782496456,-0.16965396836829538,-6.137306414952482,-0.0625
1772913358.477416,-0.377943434535447,0.9216658262086251,-8.95995889414313,1.346612727889291,-0.7674489454899102,9.762491006939522,0.0009987582201755507,-0.00043862719212743346,-0.001090830782496456,-0.16965396836829538,-6.137306414952482,-0.0625
1772913358.5241213,-0.377943434535447,0.9216658262086251,-8.95995889414313,1.340174620862127,-0.7641854111594818,9.76165773729188,0.0009987582201755507,-0.00043862719212743346,0.002181661564992912,-0.16965396836829538,-6.137306414952482,-0.0625
1772913358.5610828,-0.377943434535447,0.9216658262086251,-8.95995889414313,1.3450784261060427,-0.7660488118072882,9.75441298223497,0.0015588892482236681,-0.0018760126044304176,-0.001090830782496456,-13.772477636572978,-1.0507216568136304,-55.375
1772913358.5786486,-0.377943434535447,0.9216658262086251,-8.95995889414313,1.3422163246820242,-0.764598719930428,9.746246566966493,0.0,0.0,-0.002181661564992912,-13.772477636572978,-1.0507216568136304,-55.375
1772913358.5953894,-0.377943434535447,0.9216658262086251,-8.95995889414313,1.3403116281561078,-0.7636336999849653,9.740811908830157,-0.0019975164403511015,0.0008772543842548669,0.0,-13.772477636572978,-1.0507216568136304,-55.375
1772913358.6287475,-0.377943434535447,0.9216658262086251,-8.95995889414313,1.3403116281561078,-0.7636336999849653,9.740811908830157,-0.0019975164403511015,0.0008772543842548669,0.0,-13.772477636572978,-1.0507216568136304,-55.375
1772913358.6542604,-0.377943434535447,0.9216658262086251,-8.95995889414313,1.339044073894965,-0.7629914899912389,9.743885427964173,-0.0014373854123029843,-0.0005601310280481173,-0.001090830782496456,-12.701848107010752,-0.6335107863543765,-55.0
1772913358.6763523,-0.377943434535447,0.9216658262086251,-8.95995889414313,1.3487339063420216,-0.7635365881856339,9.749275932321721,-0.0014373854123029843,-0.0005601310280481173,-0.002181661564992912,-12.701848107010752,-0.6335107863543765,-55.0
1772913358.7122655,-0.377943434535447,0.9216658262086251,-8.95995889414313,1.3538372994968038,-0.766962109462233,9.752863252755791,0.0,0.0,0.0,-11.973034987242054,1.0260035059772732,-56.0625
1772913358.7364428,-0.377943434535447,0.9216658262086251,-8.95995889414313,1.3538372994968038,-0.766962109462233,9.752863252755791,0.0,0.0,0.0,-11.973034987242054,1.0260035059772732,-56.0625
1772913358.7649744,-0.377943434535447,0.9216658262086251,-8.95995889414313,1.3480452570805492,-0.7652065093175906,9.758595686138989,-0.0009987582201755507,0.00043862719212743346,0.0,-11.973034987242054,1.0260035059772732,-56.0625
1772913358.7796803,-0.377943434535447,0.9216658262086251,-8.95995889414313,1.3441907175538848,-0.7640381770326695,9.76241055652003,0.0009987582201755507,-0.00043862719212743346,-0.001090830782496456,-13.19598481296255,-0.8260696496432623,-55.75
1772913358.7993126,-0.377943434535447,0.9216658262086251,-8.95995889414313,1.3441907175538848,-0.7640381770326695,9.76241055652003,0.0009987582201755507,-0.00043862719212743346,-0.001090830782496456,-13.19598481296255,-0.8260696496432623,-55.75
1772913358.8255856,-0.377943434535447,0.9216658262086251,-8.95995889414313,1.3416255645569175,-0.7632606649481815,9.761604198436398,-0.0014373854123029843,-0.0005601310280481173,0.0,-13.19598481296255,-0.8260696496432623,-55.75
1772913358.8487957,-0.377943434535447,0.9216658262086251,-8.95995889414313,1.3460440129268225,-0.7654334035337599,9.754377352724713,0.0019975164403511015,-0.0008772543842548669,0.001090830782496456,-13.028557436562238,-1.3774309863651162,-55.25
1772913358.8724728,-0.377943434535447,0.9216658262086251,-8.95995889414313,1.3503295230559054,-0.7638165722740069,9.756258191047381,-0.0014373854123029843,-0.0005601310280481173,-0.001090830782496456,-13.028557436562238,-1.3774309863651162,-55.25
1772913358.9042807,-0.377943434535447,0.9216658262086251,-8.95995889414313,1.3531814821745247,-0.7627405891318298,9.757509867940778,-0.002436143632478535,-0.0001215038359206838,0.0,-13.028557436562238,-1.3774309863651162,-55.25
1772913358.9255152,-0.377943434535447,0.9216658262086251,-8.95995889414313,1.3531814821745247,-0.7627405891318298,9.757509867940778,-0.002436143632478535,-0.0001215038359206838,0.0,-13.028557436562238,-1.3774309863651162,-55.25
1772913358.9497821,-0.377943434535447,0.9216658262086251,-8.95995889414313,1.347608817978532,-0.7623971346951792,9.758342844931185,-0.002436143632478535,-0.0001215038359206838,0.0,-13.045195891631094,-0.4827218650229216,-56.5625
1772913358.9676924,-0.377943434535447,0.9216658262086251,-8.95995889414313,1.3500258012415869,-0.7648587337966518,9.762242293520659,0.0,0.0,0.0,-13.045195891631094,-0.4827218650229216,-56.5625
1772913358.981568,-0.377943434535447,0.9216658262086251,-8.95995889414313,1.351634276603678,-0.7664969005008182,9.75814710958262,0.0,0.0,0.001090830782496456,-13.045195891631094,-0.4827218650229216,-56.5625
1772913359.012891,-0.377943434535447,0.9216658262086251,-8.95995889414313,1.3527046989893023,-0.7675870821429197,9.755421810418056,0.002436143632478535,0.0001215038359206838,0.001090830782496456,-13.445768307021492,-0.3068014568028908,-55.25
1772913359.049644,-0.377943434535447,0.9216658262086251,-8.95995889414313,1.3547621352257468,-0.7652498213302363,9.753608154267626,0.00043862719212743346,0.0009987582201755507,-0.001090830782496456,-13.445768307021492,-0.3068014568028908,-55.25
1772913359.0738895,-0.377943434535447,0.9216658262086251,-8.95995889414313,1.3547621352257468,-0.7652498213302363,9.753608154267626,0.00043862719212743346,0.0009987582201755507,-0.001090830782496456,-13.445768307021492,-0.3068014568028908,-55.25
1772913359.09056,-0.377943434535447,0.9216658262086251,-8.95995889414313,1.353068571540657,-0.7623493182720964,9.7557462980667,0.0015588892482236681,-0.0018760126044304176,-0.002181661564992912,-13.445768307021492,-0.3068014568028908,-55.25
1772913359.1199617,-0.377943434535447,0.9216658262086251,-8.95995889414313,1.3550042883439508,-0.7617641479838596,9.760514320587673,0.0005601310280481173,-0.0014373854123029843,0.001090830782496456,-13.179346357893694,-1.720778770985457,-55.25
1772913359.133497,-0.377943434535447,0.9216658262086251,-8.95995889414313,1.351884639639581,-0.7630924061149804,9.763687386313078,-0.002436143632478535,-0.0001215038359206838,0.0,-13.179346357893694,-1.720778770985457,-55.25
1772913359.1495469,-0.377943434535447,0.9216658262086251,-8.95995889414313,1.3498085482755824,-0.7639763470636258,9.765799026107869,0.0019975164403511015,-0.0008772543842548669,0.0,-13.179346357893694,-1.720778770985457,-55.25
1772913359.1751175,-0.377943434535447,0.9216658262086251,-8.95995889414313,1.3498085482755824,-0.7639763470636258,9.765799026107869,0.0019975164403511015,-0.0008772543842548669,0.0,-13.179346357893694,-1.720778770985457,-55.25
1772913359.2273254,-0.377943434535447,0.9216658262086251,-8.95995889414313,1.3488525650048644,-0.7618933110584979,9.768139492083252,0.0005601310280481173,-0.0014373854123029843,0.001090830782496456,-12.42540175123642,-0.004039847883750433,-55.25
1772913359.2564902,-0.377943434535447,0.9216658262086251,-8.95995889414313,1.3488525650048644,-0.7618933110584979,9.768139492083252,0.0005601310280481173,-0.0014373854123029843,0.001090830782496456,-12.42540175123642,-0.004039847883750433,-55.25
1772913359.2824779,-0.377943434535447,0.9216658262086251,-8.95995889414313,1.3491358185728846,-0.760115598180931,9.768761852764639,0.0015588892482236681,-0.0018760126044304176,0.001090830782496456,-13.37190522118258,-1.2266420650336611,-55.75
1772913359.3079364,-0.377943434535447,0.9216658262086251,-8.95995889414313,1.3493243206582521,-0.7589325501192643,9.769176026845878,0.0019975164403511015,-0.0008772543842548669,-0.002181661564992912,-13.37190522118258,-1.2266420650336611,-55.75
1772913359.3310761,-0.377943434535447,0.9216658262086251,-8.95995889414313,1.348104684594145,-0.761208009367113,9.766106543362996,0.0019975164403511015,-0.0008772543842548669,0.0,-12.768749535856761,0.14674907344770452,-55.0
1772913359.3530483,-0.377943434535447,0.9216658262086251,-8.95995889414313,1.348104684594145,-0.761208009367113,9.766106543362996,0.0019975164403511015,-0.0008772543842548669,0.0,-12.768749535856761,0.14674907344770452,-55.0
1772913359.3747997,-0.377943434535447,0.9216658262086251,-8.95995889414313,1.3486381125139222,-0.7596595375606358,9.764063836393515,0.0009987582201755507,-0.00043862719212743346,0.0,-12.768749535856761,0.14674907344770452,-55.0
1772913359.399916,-0.377943434535447,0.9216658262086251,-8.95995889414313,1.3463029386433276,-0.7647545759057389,9.762704437723857,0.0015588892482236681,-0.0018760126044304176,0.0,-12.358500322390412,-0.7842997076858315,-56.5625
1772913359.4199016,-0.377943434535447,0.9216658262086251,-8.95995889414313,1.3463029386433276,-0.7647545759057389,9.762704437723857,0.0015588892482236681,-0.0018760126044304176,0.0,-12.358500322390412,-0.7842997076858315,-56.5625
1772913359.437483,-0.377943434535447,0.9216658262086251,-8.95995889414313,1.3474390707104744,-0.7620197379743473,9.761799773094678,-0.002557647468399219,0.002314639796557851,0.0,-12.358500322390412,-0.7842997076858315,-56.5625
1772913359.4594228,-0.377943434535447,0.9216658262086251,-8.95995889414313,1.3468500718135208,-0.7632624983985227,9.761197728889725,0.002436143632478535,0.0001215038359206838,-0.001090830782496456,-12.358500322390412,-0.7842997076858315,-56.5625
1772913359.4778707,-0.377943434535447,0.9216658262086251,-8.95995889414313,1.3468500718135208,-0.7632624983985227,9.761197728889725,0.002436143632478535,0.0001215038359206838,-0.001090830782496456,-12.358500322390412,-0.7842997076858315,-56.5625
1772913359.5125809,-0.377943434535447,0.9216658262086251,-8.95995889414313,1.346458099627147,-0.7640895415782679,9.764142186903923,-0.00043862719212743346,-0.0009987582201755507,0.001090830782496456,-13.648351576956914,-1.8561130035042863,-55.375
1772913359.5560582,-0.44349358744224254,1.6664230915726652,-9.451210091809955,1.3492600110331066,-0.7659850116719238,9.766101690820621,-0.002436143632478535,-0.0001215038359206838,0.0,-13.648351576956914,-1.8561130035042863,-55.375
1772913359.5856223,-0.377943434535447,0.9216658262086251,-8.95995889414313,1.3511246517743714,-0.7672464258454634,9.76406060708077,0.0,0.0,0.0,-12.701848107010752,-0.6335107863543765,-55.75
1772913359.60187,-0.377943434535447,0.9216658262086251,-8.95995889414313,1.3511246517743714,-0.7672464258454634,9.76406060708077,0.0,0.0,0.0,-12.701848107010752,-0.6335107863543765,-55.75
1772913359.620554,-0.377943434535447,0.9216658262086251,-8.95995889414313,1.3523655493582811,-0.7680858828870345,9.7627022886523,0.0014373854123029843,0.0005601310280481173,-0.001090830782496456,-12.701848107010752,-0.6335107863543765,-55.75
1772913359.633851,-0.377943434535447,0.9216658262086251,-8.95995889414313,1.3470658238038886,-0.7659543679784243,9.761798342911563,0.0,0.0,0.0,-12.701848107010752,-0.6335107863543765,-55.75
1772913359.650188,-0.377943434535447,0.9216658262086251,-8.95995889414313,1.3470658238038886,-0.7659543679784243,9.761798342911563,0.0,0.0,0.0,-12.701848107010752,-0.6335107863543765,-55.75
1772913359.6666849,-0.377943434535447,0.9216658262086251,-8.95995889414313,1.3435389156492539,-0.7645358686173258,9.764541888826157,-0.00043862719212743346,-0.0009987582201755507,-0.001090830782496456,-12.576190672567874,-0.3473876325040921,-56.0625
1772913359.6918125,-0.377943434535447,0.9216658262086251,-8.95995889414313,1.34119179767049,-0.7635918731381909,9.766367687984904,0.0,0.0,-0.002181661564992912,-12.576190672567874,-0.3473876325040921,-56.0625
1772913359.7330754,-0.377943434535447,0.9216658262086251,-8.95995889414313,1.3396298168746485,-0.762963654691947,9.767582736929537,-0.0008772543842548669,-0.0019975164403511015,0.001090830782496456,-11.946719734097249,-0.6238339882784262,-55.75
1772913359.7700737,-0.377943434535447,0.9216658262086251,-8.95995889414313,1.342998182717073,-0.7608278999124696,9.765046226721886,-0.00043862719212743346,-0.0009987582201755507,-0.002181661564992912,-11.946719734097249,-0.6238339882784262,-55.75
1772913359.7874517,-0.377943434535447,0.9216658262086251,-8.95995889414313,1.3408319459445062,-0.7611242613858334,9.766703319220689,-0.0029962746605266526,0.0013158815763823005,0.0,-11.946719734097249,-0.6238339882784262,-55.75
1772913359.8133037,-0.377943434535447,0.9216658262086251,-8.95995889414313,1.3437981861844015,-0.7596038042146206,9.767806095767705,-0.002436143632478535,-0.0001215038359206838,0.0,-13.445768307021492,-0.3068014568028908,-55.375
1772913359.8381746,-0.377943434535447,0.9216658262086251,-8.95995889414313,1.3437981861844015,-0.7596038042146206,9.767806095767705,-0.002436143632478535,-0.0001215038359206838,0.0,-13.445768307021492,-0.3068014568028908,-55.375
1772913359.868385,-0.377943434535447,0.9216658262086251,-8.95995889414313,1.3413643393153891,-0.7603096393729599,9.768539981240924,0.0014373854123029843,0.0005601310280481173,0.001090830782496456,-13.445768307021492,-0.3068014568028908,-55.375
1772913359.885661,-0.377943434535447,0.9216658262086251,-8.95995889414313,1.3413643393153891,-0.7603096393729599,9.768539981240924,0.0014373854123029843,0.0005601310280481173,0.001090830782496456,-13.445768307021492,-0.3068014568028908,-55.375
1772913359.9196725,-0.377943434535447,0.9216658262086251,-8.95995889414313,1.3410897235081254,-0.7577166002687643,9.765683262117994,-0.0008772543842548669,-0.0019975164403511015,-0.002181661564992912,-12.852637028342208,-0.9768585709747173,-55.75
1772913359.9372482,-0.377943434535447,0.9216658262086251,-8.95995889414313,1.339561887659838,-0.7590537262284419,9.763782147453327,0.0014373854123029843,0.0005601310280481173,0.001090830782496456,-12.852637028342208,-0.9768585709747173,-55.75
1772913359.9580948,-0.377943434535447,0.9216658262086251,-8.95995889414313,1.3385451299698472,-0.7599435686179318,9.762516976880834,0.0,0.0,-0.001090830782496456,-12.852637028342208,-0.9768585709747173,-55.75
1772913359.974895,-0.377943434535447,0.9216658262086251,-8.95995889414313,1.3385451299698472,-0.7599435686179318,9.762516976880834,0.0,0.0,-0.001090830782496456,-12.852637028342208,-0.9768585709747173,-55.75
1772913360.0329633,-0.377943434535447,0.9216658262086251,-8.95995889414313,1.3438642743214315,-0.7601072927643214,9.761114707097285,-0.0019975164403511015,0.0008772543842548669,0.0,-13.045195891631094,-0.4827218650229216,-55.0
1772913360.0687191,-0.377943434535447,0.9216658262086251,-8.95995889414313,1.3438642743214315,-0.7601072927643214,9.761114707097285,-0.0019975164403511015,0.0008772543842548669,0.0,-13.045195891631094,-0.4827218650229216,-55.0
1772913360.092141,-0.377943434535447,0.9216658262086251,-8.95995889414313,1.3458161668459179,-0.7589270229572882,9.76074182512115,-0.0014373854123029843,-0.0005601310280481173,0.0,-13.028557436562238,-1.3774309863651162,-53.75
1772913360.129321,-0.377943434535447,0.9216658262086251,-8.95995889414313,1.3457700474206824,-0.7612043311025604,9.760493676331395,0.0019975164403511015,-0.0008772543842548669,0.0,-13.028557436562238,-1.3774309863651162,-53.75
1772913360.142612,-0.377943434535447,0.9216658262086251,-8.95995889414313,1.3457700474206824,-0.7612043311025604,9.760493676331395,0.0019975164403511015,-0.0008772543842548669,0.0,-13.028557436562238,-1.3774309863651162,-53.75
1772913360.1641157,-0.377943434535447,0.9216658262086251,-8.95995889414313,1.3426765909410008,-0.7613747721378269,9.767018759498455,-0.003434901852654086,0.00031712335620674974,0.0,-13.445768307021492,-0.3068014568028908,-55.0
1772913360.1880786,-0.377943434535447,0.9216658262086251,-8.95995889414313,1.3426765909410008,-0.7613747721378269,9.767018759498455,-0.003434901852654086,0.00031712335620674974,0.0,-13.445768307021492,-0.3068014568028908,-55.0
1772913360.2175987,-0.377943434535447,0.9216658262086251,-8.95995889414313,1.3406179302099457,-0.7614881987428458,9.77136112945618,-0.004433660072829636,0.0007557505483341831,0.0,-13.445768307021492,-0.3068014568028908,-55.0
1772913360.2510524,-0.377943434535447,0.9216658262086251,-8.95995889414313,1.3392479144901757,-0.7615636828814276,9.770905816448275,-0.0014373854123029843,-0.0005601310280481173,-0.002181661564992912,-12.919538457188215,-0.19659871117263714,-57.0
1772913360.2757585,-0.377943434535447,0.9216658262086251,-8.95995889414313,1.3413989488501223,-0.7629589988286539,9.763912587313056,0.0014373854123029843,0.0005601310280481173,0.002181661564992912,-12.919538457188215,-0.19659871117263714,-57.0
1772913360.3056638,-0.377943434535447,0.9216658262086251,-8.95995889414313,1.3413989488501223,-0.7629589988286539,9.763912587313056,0.0014373854123029843,0.0005601310280481173,0.002181661564992912,-12.919538457188215,-0.19659871117263714,-57.0
1772913360.325117,-0.377943434535447,0.9216658262086251,-8.95995889414313,1.3428304381880387,-0.7638875660048325,9.759258671443055,-0.002436143632478535,-0.0001215038359206838,-0.1407171709420428,-12.358500322390412,-0.7842997076858315,-55.375
1772913360.3467095,-0.377943434535447,0.9216658262086251,-8.95995889414313,1.3437830783516382,-0.7645055170878045,9.756161542419216,-0.0014373854123029843,-0.0005601310280481173,0.0,-12.358500322390412,-0.7842997076858315,-55.375
1772913360.3691545,-0.377943434535447,0.9216658262086251,-8.95995889414313,1.3437830783516382,-0.7645055170878045,9.756161542419216,-0.0014373854123029843,-0.0005601310280481173,0.0,-12.358500322390412,-0.7842997076858315,-55.375
1772913360.411211,-0.377943434535447,0.9216658262086251,-8.95995889414313,1.345762131835039,-0.7618539921131813,9.75744554935837,-0.0029962746605266526,0.0013158815763823005,-0.002181661564992912,-11.54614731870685,-0.7997543964984569,-55.25
1772913360.4499135,-0.377943434535447,0.9216658262086251,-8.95995889414313,1.3470791698207663,-0.7600894318620441,9.75495492992576,0.0014373854123029843,0.0005601310280481173,0.0,-11.54614731870685,-0.7997543964984569,-55.25
1772913360.4843087,-0.377943434535447,0.9216658262086251,-8.95995889414313,1.3510184084053647,-0.7602602188225551,9.756642562222718,-0.0009987582201755507,0.00043862719212743346,0.0,-13.445768307021492,-0.3068014568028908,-55.75
1772913360.5116527,-0.377943434535447,0.9216658262086251,-8.95995889414313,1.3522948455830233,-0.7634366401543349,9.751075439249616,-0.0029962746605266526,0.0013158815763823005,0.0,-13.445768307021492,-0.3068014568028908,-55.75
1772913360.5347357,-0.377943434535447,0.9216658262086251,-8.95995889414313,1.3531443002660177,-0.7655505130676832,9.760751027929134,-0.0018760126044304176,-0.001558889248223668,-0.001090830782496456,-12.701848107010752,-0.6335107863543765,-55.25
1772913360.568083,-0.377943434535447,0.9216658262086251,-8.95995889414313,1.3531443002660177,-0.7655505130676832,9.760751027929134,-0.0018760126044304176,-0.001558889248223668,-0.001090830782496456,-12.701848107010752,-0.6335107863543765,-55.25
1772913360.5934608,-0.377943434535447,0.9216658262086251,-8.95995889414313,1.350646838351145,-0.7656121897817957,9.763844912404625,-0.0009987582201755507,0.00043862719212743346,0.0,-12.701848107010752,-0.6335107863543765,-55.25
1772913360.6227295,-0.377943434535447,0.9216658262086251,-8.95995889414313,1.3503298874414875,-0.7625904704286883,9.76924896966943,0.0005601310280481173,-0.0014373854123029843,0.002181661564992912,-13.045195891631094,-0.4827218650229216,-55.75
1772913360.644727,-0.377943434535447,0.9216658262086251,-8.95995889414313,1.3503298874414875,-0.7625904704286883,9.76924896966943,0.0005601310280481173,-0.0014373854123029843,0.002181661564992912,-13.045195891631094,-0.4827218650229216,-55.75
1772913360.6645277,-0.377943434535447,0.9216658262086251,-8.95995889414313,1.3501189601516843,-0.7605795499540123,9.769500197704565,0.0014373854123029843,0.0005601310280481173,0.001090830782496456,-13.045195891631094,-0.4827218650229216,-55.75
1772913360.6865861,-0.377943434535447,0.9216658262086251,-8.95995889414313,1.3501189601516843,-0.7605795499540123,9.769500197704565,0.0014373854123029843,0.0005601310280481173,0.001090830782496456,-13.045195891631094,-0.4827218650229216,-55.75
1772913360.7279913,-0.377943434535447,0.9216658262086251,-8.95995889414313,1.3499785903965325,-0.7592413048415689,9.766322275448225,0.0019975164403511015,-0.0008772543842548669,-0.002181661564992912,-12.919538457188215,-0.19659871117263714,-55.75
1772913360.7453604,-0.377943434535447,0.9216658262086251,-8.95995889414313,1.3485400937962988,-0.7614134821857905,9.764207403686349,0.0005601310280481173,-0.0014373854123029843,0.001090830782496456,-12.919538457188215,-0.19659871117263714,-55.75
1772913360.7682312,-0.377943434535447,0.9216658262086251,-8.95995889414313,1.3502729545703294,-0.7567335129088089,9.762799980153487,0.003434901852654086,-0.00031712335620674974,0.0,-12.919538457188215,-0.19659871117263714,-55.75
1772913360.7856393,-0.377943434535447,0.9216658262086251,-8.95995889414313,1.3470183074445352,-0.7553367280548218,9.761863355514318,0.0009987582201755507,-0.00043862719212743346,-0.001090830782496456,-13.19598481296255,-0.8260696496432623,-55.75
1772913360.8383677,-0.377943434535447,0.9216658262086251,-8.95995889414313,1.3448523761391096,-0.7544071833376026,9.761240042279734,0.0005601310280481173,-0.0014373854123029843,-0.002181661564992912,-13.19598481296255,-0.8260696496432623,-55.75
1772913360.852549,-0.377943434535447,0.9216658262086251,-8.95995889414313,1.3448523761391096,-0.7544071833376026,9.761240042279734,0.0005601310280481173,-0.0014373854123029843,-0.002181661564992912,-13.19598481296255,-0.8260696496432623,-55.75
1772913360.8803358,-0.377943434535447,0.9216658262086251,-8.95995889414313,1.342065890954174,-0.7568513462293632,9.760825234284983,-0.002436143632478535,-0.0001215038359206838,-0.002181661564992912,-13.19598481296255,-0.8260696496432623,-55.75
1772913360.9098258,-0.377943434535447,0.9216658262086251,-8.95995889414313,1.3402115161906785,-0.7584779093307416,9.763894295905505,0.0019975164403511015,-0.0008772543842548669,-0.001090830782496456,-12.919538457188215,-0.19659871117263714,-55.25
1772913360.9486787,-0.377943434535447,0.9216658262086251,-8.95995889414313,1.3451029795350458,-0.7622505330972346,9.765936722130297,-0.0008772543842548669,-0.0019975164403511015,-0.001090830782496456,-12.919538457188215,-0.19659871117263714,-55.25
1772913360.9636643,-0.377943434535447,0.9216658262086251,-8.95995889414313,1.3422326647147462,-0.7620710078784406,9.763950822260181,0.0015588892482236681,-0.0018760126044304176,0.0,-12.919538457188215,-0.19659871117263714,-55.0
1772913360.99559,-0.377943434535447,0.9216658262086251,-8.95995889414313,1.3464480313001044,-0.7646417000431877,9.762629228080574,0.0,0.0,-0.002181661564992912,-12.919538457188215,-0.19659871117263714,-55.0
1772913361.037218,-0.377943434535447,0.9216658262086251,-8.95995889414313,1.3505983927701433,-0.7632897024449385,9.76174972191722,-0.0015588892482236681,0.0018760126044304176,-0.001090830782496456,-13.320110872578613,-0.020678302952606357,-56.5
1772913361.0705466,-0.377943434535447,0.9216658262086251,-8.95995889414313,1.3533604119658789,-0.7623899631461065,9.764509532097554,-0.0009987582201755507,0.00043862719212743346,-0.001090830782496456,-13.320110872578613,-0.020678302952606357,-56.5
1772913361.1025503,-0.377943434535447,0.9216658262086251,-8.95995889414313,1.3533604119658789,-0.7623899631461065,9.764509532097554,-0.0009987582201755507,0.00043862719212743346,-0.001090830782496456,-13.320110872578613,-0.020678302952606357,-56.5
1772913361.1172915,-0.377943434535447,0.9216658262086251,-8.95995889414313,1.3521357403694896,-0.7604461145972672,9.766346154943466,0.00043862719212743346,0.0009987582201755507,0.001090830782496456,-12.685209651941898,-1.5282199076965712,-55.375
1772913361.135283,-0.377943434535447,0.9216658262086251,-8.95995889414313,1.3513207351025707,-0.7591525051022256,9.767568406931,0.0,0.0,-0.001090830782496456,-12.685209651941898,-1.5282199076965712,-55.375
1772913361.1519532,-0.377943434535447,0.9216658262086251,-8.95995889414313,1.3507783582016415,-0.7582916224338405,9.765036690267936,0.003995032880702203,-0.0017545087685097338,0.001090830782496456,-12.685209651941898,-1.5282199076965712,-55.375
1772913361.182453,-0.377943434535447,0.9216658262086251,-8.95995889414313,1.349072330336607,-0.7607814791520948,9.763351861109793,-0.0005601310280481173,0.0014373854123029843,0.0,-13.37190522118258,-1.2266420650336611,-54.0625
1772913361.2213657,-0.377943434535447,0.9216658262086251,-8.95995889414313,1.3479369878500065,-0.7624384509845711,9.765575737833144,0.00043862719212743346,0.0009987582201755507,-0.001090830782496456,-13.37190522118258,-1.2266420650336611,-54.0625
1772913361.239632,-0.377943434535447,0.9216658262086251,-8.95995889414313,1.3471814301077805,-0.7635411472294958,9.767055702950204,0.0028747708246059686,0.0011202620560962346,0.001090830782496456,-13.37190522118258,-1.2266420650336611,-54.0625
1772913361.2558813,-0.377943434535447,0.9216658262086251,-8.95995889414313,1.3471814301077805,-0.7635411472294958,9.767055702950204,0.0028747708246059686,0.0011202620560962346,0.001090830782496456,-13.37190522118258,-1.2266420650336611,-54.0625
1772913361.2804487,-0.377943434535447,0.9216658262086251,-8.95995889414313,1.346678614870462,-0.7642749792625692,9.768040603203314,0.0019975164403511015,-0.0008772543842548669,0.001090830782496456,-13.19598481296255,-0.8260696496432623,-55.375
1772913361.2950282,-0.377943434535447,0.9216658262086251,-8.95995889414313,1.346343996946841,-0.7647633362831385,9.765350931612382,0.0018760126044304176,0.001558889248223668,-0.001090830782496456,-13.19598481296255,-0.8260696496432623,-55.375
1772913361.3400693,-0.377943434535447,0.9216658262086251,-8.95995889414313,1.346343996946841,-0.7647633362831385,9.765350931612382,0.0018760126044304176,0.001558889248223668,-0.001090830782496456,-13.19598481296255,-0.8260696496432623,-55.375
1772913361.381185,-0.377943434535447,0.9216658262086251,-8.95995889414313,1.346121312456598,-0.765088332425022,9.763560985214218,0.0029962746605266526,-0.0013158815763823005,0.0,-13.045195891631094,-0.4827218650229216,-55.25
1772913361.427534,-0.377943434535447,0.9216658262086251,-8.95995889414313,1.3459731184158903,-0.7653046137270008,9.76236979588125,-0.00012150383592068386,0.002436143632478535,-0.001090830782496456,-13.045195891631094,-0.4827218650229216,-55.25
1772913361.446632,-0.377943434535447,0.9216658262086251,-8.95995889414313,1.3459731184158903,-0.7653046137270008,9.76236979588125,-0.00012150383592068386,0.002436143632478535,-0.001090830782496456,-13.045195891631094,-0.4827218650229216,-55.25
1772913361.473927,-0.377943434535447,0.9216658262086251,-8.95995889414313,1.3489372614546105,-0.7667936286136603,9.761577072686617,0.0008772543842548669,0.0019975164403511015,0.0,-13.596557228352948,-0.6501492414232315,-55.0
1772913361.504272,-0.377943434535447,0.9216658262086251,-8.95995889414313,1.3509098655352312,-0.7677845513873459,9.761049524255887,0.0014373854123029843,0.0005601310280481173,0.002181661564992912,-13.596557228352948,-0.6501492414232315,-55.0
1772913361.5264196,-0.377943434535447,0.9216658262086251,-8.95995889414313,1.3509098655352312,-0.7677845513873459,9.761049524255887,0.0014373854123029843,0.0005601310280481173,0.002181661564992912,-13.596557228352948,-0.6501492414232315,-55.0
1772913361.5563512,-0.377943434535447,0.9216658262086251,-8.95995889414313,1.353567693611666,-0.765381234906526,9.760698446668338,0.0005601310280481173,-0.0014373854123029843,0.001090830782496456,-13.445768307021492,-0.3068014568028908,-56.0625
1772913361.5934312,-0.377943434535447,0.9216658262086251,-8.95995889414313,1.3509286018930602,-0.7654995370565065,9.760464808455618,-0.00043862719212743346,-0.0009987582201755507,0.0,-13.445768307021492,-0.3068014568028908,-56.0625
1772913361.638338,-0.377943434535447,0.9216658262086251,-8.95995889414313,1.3522350803522893,-0.76692334791201,9.760309324834964,-0.00043862719212743346,-0.0009987582201755507,-0.002181661564992912,-13.045195891631094,-0.4827218650229216,-55.375
1772913361.6544862,-0.377943434535447,0.9216658262086251,-8.95995889414313,1.3522350803522893,-0.76692334791201,9.760309324834964,-0.00043862719212743346,-0.0009987582201755507,-0.002181661564992912,-13.045195891631094,-0.4827218650229216,-55.375
1772913361.6761122,-0.377943434535447,0.9216658262086251,-8.95995889414313,1.3531045271725854,-0.7678708781313381,9.760205852222283,-0.00043862719212743346,-0.0009987582201755507,0.0,-13.045195891631094,-0.4827218650229216,-55.375
1772913361.710009,-0.377943434535447,0.9216658262086251,-8.95995889414313,1.3531045271725854,-0.7678708781313381,9.760205852222283,-0.00043862719212743346,-0.0009987582201755507,0.0,-13.045195891631094,-0.4827218650229216,-55.375
1772913361.7346783,-0.377943434535447,0.9216658262086251,-8.95995889414313,1.3536831343191353,-0.768501448907695,9.76013699235441,-0.0009987582201755507,0.00043862719212743346,-0.001090830782496456,-12.576190672567874,-0.3473876325040921,-55.75
1772913361.7478628,-0.377943434535447,0.9216658262086251,-8.95995889414313,1.354068190911699,-0.7689210867154234,9.760091166881555,0.0014373854123029843,0.0005601310280481173,-0.002181661564992912,-12.576190672567874,-0.3473876325040921,-55.75
1772913361.761599,-0.377943434535447,0.9216658262086251,-8.95995889414313,1.3556695238688992,-0.76613758647143,9.763405782248594,-0.0018760126044304176,-0.001558889248223668,0.0,-12.576190672567874,-0.3473876325040921,-55.75
1772913361.7831435,-0.377943434535447,0.9216658262086251,-8.95995889414313,1.3556695238688992,-0.76613758647143,9.763405782248594,-0.0018760126044304176,-0.001558889248223668,0.0,-12.576190672567874,-0.3473876325040921,-55.75
1772913361.797999,-0.377943434535447,0.9216658262086251,-8.95995889414313,1.3567351930638545,-0.7642851981527875,9.765611621748677,-0.00043862719212743346,-0.0009987582201755507,-0.001090830782496456,-13.028557436562238,-1.3774309863651162,-55.75
1772913361.8229973,-0.377943434535447,0.9216658262086251,-8.95995889414313,1.3587894661050057,-0.7599896899018891,9.763734471587822,0.0005601310280481173,-0.0014373854123029843,0.0,-13.028557436562238,-1.3774309863651162,-55.75
1772913361.8450437,-0.377943434535447,0.9216658262086251,-8.95995889414313,1.3601565618661584,-0.7571310771448875,9.762485249124914,0.002557647468399219,-0.002314639796557851,0.001090830782496456,-13.028557436562238,-1.3774309863651162,-55.75
1772913361.8607967,-0.377943434535447,0.9216658262086251,-8.95995889414313,1.3601565618661584,-0.7571310771448875,9.762485249124914,0.002557647468399219,-0.002314639796557851,0.001090830782496456,-13.028557436562238,-1.3774309863651162,-55.75
1772913361.8744128,-0.377943434535447,0.9216658262086251,-8.95995889414313,1.356658502210157,-0.7569463847090617,9.76165390553058,-0.0019975164403511015,0.0008772543842548669,-0.001090830782496456,-13.045195891631094,-0.4827218650229216,-56.0625
1772913361.8988066,-0.377943434535447,0.9216658262086251,-8.95995889414313,1.3543305825849745,-0.7568234739561693,9.757755543947946,-0.002436143632478535,-0.0001215038359206838,-0.001090830782496456,-13.045195891631094,-0.4827218650229216,-56.0625
1772913361.9240105,-0.377943434535447,0.9216658262086251,-8.95995889414313,1.3514362959827688,-0.7598044427404979,9.755161227862255,0.0,0.0,0.0,-13.045195891631094,-0.4827218650229216,-56.0625
