timestamp,yaw,pitch,roll,ax,ay,az,gx,gy,gz,mx,my,mz
1772911874.9699707,1.9474002072562044,0.5639487973121682,-9.212830578473705,-0.09490774298412925,-1.5783433361547208,9.753148040268558,-0.001090830782496456,0.002181661564992912,-0.001090830782496456,2.0,54.875,-37.75
1772911874.9850316,1.9474002072562044,0.5639487973121682,-9.212830578473705,-0.09661115984017611,-1.5788975087171144,9.75878520904745,-0.001090830782496456,0.001090830782496456,0.0,2.0,54.875,-37.75
1772911874.9961948,1.9474002072562044,0.5639487973121682,-9.212830578473705,-0.10443498814410097,-1.5792663043668742,9.76588179360582,0.001090830782496456,0.0,0.001090830782496456,2.0,55.5625,-37.0
1772911875.006926,1.9474002072562044,0.5639487973121682,-9.212830578473705,-0.10443498814410097,-1.5792663043668742,9.76588179360582,0.001090830782496456,0.0,0.001090830782496456,2.0,55.5625,-37.0
1772911875.019275,1.9474002072562044,0.5639487973121682,-9.212830578473705,-0.1029514350678355,-1.579511733752072,9.770604491355371,0.0,0.001090830782496456,0.0,2.0,55.5625,-37.0
1772911875.030395,1.9474002072562044,0.5639487973121682,-9.212830578473705,-0.1029514350678355,-1.579511733752072,9.770604491355371,0.0,0.001090830782496456,0.0,2.0,55.5625,-37.0
1772911875.042238,1.9474002072562044,0.5639487973121682,-9.212830578473705,-0.10196414706795455,-1.5729848408516567,9.770402282244389,0.0,0.002181661564992912,0.001090830782496456,2.0,55.5625,-37.0
1772911875.0563514,1.9474002072562044,0.5639487973121682,-9.212830578473705,-0.10196414706795455,-1.5729848408516567,9.770402282244389,0.0,0.002181661564992912,0.001090830782496456,2.0,55.5625,-37.0
1772911875.069518,1.9474002072562044,0.5639487973121682,-9.212830578473705,-0.10196414706795455,-1.5729848408516567,9.770402282244389,0.0,0.002181661564992912,0.001090830782496456,2.0,55.5625,-37.0
1772911875.0865285,1.9474002072562044,0.5639487973121682,-9.212830578473705,-0.10130711793276337,-1.5753314899512398,9.770267714339854,0.001090830782496456,0.001090830782496456,0.0,2.25,54.5,-37.375
1772911875.1196914,2.0037594454634,0.5614761495829278,-9.212750237455847,-0.10086987238278998,-1.5768931587132244,9.770178160902606,0.0,-0.002181661564992912,-0.002181661564992912,2.25,54.5,-37.375
1772911875.1319916,2.0037594454634,0.5614761495829278,-9.212750237455847,-0.10086987238278998,-1.5768931587132244,9.770178160902606,0.0,-0.002181661564992912,-0.002181661564992912,2.25,54.5,-37.375
1772911875.146882,2.0037594454634,0.5614761495829278,-9.212750237455847,-0.10392400206095491,-1.5779324318293422,9.770118564090497,0.0,-0.003272492347489368,0.0,2.0,54.5,-38.1875
1772911875.1606357,2.0037594454634,0.5614761495829278,-9.212750237455847,-0.10392400206095491,-1.5779324318293422,9.770118564090497,0.0,-0.003272492347489368,0.0,2.0,54.5,-38.1875
1772911875.1752079,2.0037594454634,0.5614761495829278,-9.212750237455847,-0.10595649124490973,-1.578624056478677,9.773424014785098,0.0,0.002181661564992912,0.0,2.0,54.5,-38.1875
1772911875.1999247,2.0037594454634,0.5614761495829278,-9.212750237455847,-0.10730909009243982,-1.5757392132495365,9.772278643590731,-0.001090830782496456,0.001090830782496456,0.0,3.0625,54.875,-37.0
1772911875.2535346,2.0037594454634,0.5614761495829278,-9.212750237455847,-0.10730909009243982,-1.5757392132495365,9.772278643590731,-0.001090830782496456,0.001090830782496456,0.0,3.0625,54.875,-37.0
1772911875.2750082,2.0037594454634,0.5614761495829278,-9.212750237455847,-0.10486411780863256,-1.5738193823063538,9.771516411855515,0.0,0.001090830782496456,0.001090830782496456,3.0625,54.875,-37.0
1772911875.305522,2.0037594454634,0.5614761495829278,-9.212750237455847,-0.09989190435856943,-1.5725417562595825,9.771009155150415,0.001090830782496456,0.002181661564992912,0.001090830782496456,1.5625,54.875,-37.75
1772911875.3213427,2.0037594454634,0.5614761495829278,-9.212750237455847,-0.09989190435856943,-1.5725417562595825,9.771009155150415,0.001090830782496456,0.002181661564992912,0.001090830782496456,1.5625,54.875,-37.75
1772911875.3360274,2.0037594454634,0.5614761495829278,-9.212750237455847,-0.096582951850816,-1.5716915103974742,9.770671581479599,0.0,0.003272492347489368,0.001090830782496456,1.5625,54.875,-37.75
1772911875.3527787,2.0037594454634,0.5614761495829278,-9.212750237455847,-0.096582951850816,-1.5716915103974742,9.770671581479599,0.0,0.003272492347489368,0.001090830782496456,1.5625,54.875,-37.75
1772911875.3752306,2.0037594454634,0.5614761495829278,-9.212750237455847,-0.09772599262764695,-1.5744707929814292,9.770446929972616,0.001090830782496456,-0.001090830782496456,0.0,2.6875,56.0,-37.375
1772911875.4091024,2.0037594454634,0.5614761495829278,-9.212750237455847,-0.09772599262764695,-1.5744707929814292,9.770446929972616,0.001090830782496456,-0.001090830782496456,0.0,2.6875,56.0,-37.375
1772911875.4366453,2.0037594454634,0.5614761495829278,-9.212750237455847,-0.09848667349602583,-1.5729752627871112,9.770297426904241,0.001090830782496456,0.0,0.0,2.6875,54.875,-37.75
1772911875.45342,2.0037594454634,0.5614761495829278,-9.212750237455847,-0.09848667349602583,-1.5729752627871112,9.770297426904241,0.001090830782496456,0.0,0.0,2.6875,54.875,-37.75
1772911875.4770842,2.0037594454634,0.5614761495829278,-9.212750237455847,-0.0989928981165699,-1.5719800041489596,9.766852822574977,-0.001090830782496456,0.0,0.001090830782496456,2.6875,54.875,-37.75
1772911875.5019317,2.0037594454634,0.5614761495829278,-9.212750237455847,-0.09932978494664245,-1.571317670643037,9.767905588579923,-0.001090830782496456,0.0,-0.001090830782496456,2.0,54.875,-37.375
1772911875.542549,2.0037594454634,0.5614761495829278,-9.212750237455847,-0.10289909107610264,-1.5708768950935956,9.765261080888727,-0.001090830782496456,-0.002181661564992912,0.0,2.0,54.875,-37.375
1772911875.563754,2.0037594454634,0.5614761495829278,-9.212750237455847,-0.10527442443349641,-1.5705835638892278,9.763501190561323,-0.002181661564992912,-0.001090830782496456,0.002181661564992912,2.0,54.875,-37.375
1772911875.577085,2.0037594454634,0.5614761495829278,-9.212750237455847,-0.10527442443349641,-1.5705835638892278,9.763501190561323,-0.002181661564992912,-0.001090830782496456,0.002181661564992912,2.0,54.875,-37.375
1772911875.5943744,2.0037594454634,0.5614761495829278,-9.212750237455847,-0.10685518224862978,-1.5737334669567646,9.7623300032077,-0.001090830782496456,0.0,-0.001090830782496456,2.6875,55.5625,-38.1875
1772911875.6127667,2.0037594454634,0.5614761495829278,-9.212750237455847,-0.10456204720905983,-1.5758296922614876,9.761550591106882,0.0,-0.001090830782496456,0.0,2.6875,55.5625,-38.1875
1772911875.6261165,2.0037594454634,0.5614761495829278,-9.212750237455847,-0.10456204720905983,-1.5758296922614876,9.761550591106882,0.0,-0.001090830782496456,0.0,2.6875,55.5625,-38.1875
1772911875.6497269,2.0037594454634,0.5614761495829278,-9.212750237455847,-0.10303599145622286,-1.57722470678541,9.761031901060392,0.0,-0.001090830782496456,0.0,2.6875,55.5625,-38.1875
1772911875.6628025,2.0037594454634,0.5614761495829278,-9.212750237455847,-0.10202041839986958,-1.5748079616604276,9.757341606921281,-0.001090830782496456,-0.001090830782496456,0.0,2.0,55.1875,-37.0
1772911875.6764765,2.0037594454634,0.5614761495829278,-9.212750237455847,-0.10202041839986958,-1.5748079616604276,9.757341606921281,-0.001090830782496456,-0.001090830782496456,0.0,2.0,55.1875,-37.0
1772911875.6885788,2.0037594454634,0.5614761495829278,-9.212750237455847,-0.09799945416824148,-1.5731996447765637,9.75823086910231,0.0,-0.001090830782496456,0.001090830782496456,2.0,55.1875,-37.0
1772911875.7156346,2.0037594454634,0.5614761495829278,-9.212750237455847,-0.09197843568188716,-1.572129327856429,9.758822663150074,-0.002181661564992912,0.0,-0.001090830782496456,2.0,55.1875,-37.0
1772911875.7300634,2.0037594454634,0.5614761495829278,-9.212750237455847,-0.09197843568188716,-1.572129327856429,9.758822663150074,-0.002181661564992912,0.0,-0.001090830782496456,2.0,55.1875,-37.0
1772911875.7448392,2.0037594454634,0.5614761495829278,-9.212750237455847,-0.08797151513840186,-1.5747621556096223,9.75921649547809,0.0,-0.002181661564992912,0.001090830782496456,2.6875,55.1875,-37.75
1772911875.760008,2.0037594454634,0.5614761495829278,-9.212750237455847,-0.08530495427694769,-1.5765142730687594,9.759478586492987,0.001090830782496456,-0.001090830782496456,0.001090830782496456,2.6875,55.1875,-37.75
1772911875.7764251,2.0037594454634,0.5614761495829278,-9.212750237455847,-0.08530495427694769,-1.5765142730687594,9.759478586492987,0.001090830782496456,-0.001090830782496456,0.001090830782496456,2.6875,55.1875,-37.75
1772911875.7908947,2.0037594454634,0.5614761495829278,-9.212750237455847,-0.08353038781108652,-1.5776802876653806,9.762998116842972,0.001090830782496456,0.002181661564992912,0.0,2.6875,55.1875,-37.75
1772911875.8121002,2.0037594454634,0.5614761495829278,-9.212750237455847,-0.0823494336512622,-1.5784562573541954,9.761995213267838,-0.001090830782496456,0.001090830782496456,0.001090830782496456,2.6875,55.1875,-37.75
1772911875.8251529,2.0037594454634,0.5614761495829278,-9.212750237455847,-0.0823494336512622,-1.5784562573541954,9.761995213267838,-0.001090830782496456,0.001090830782496456,0.001090830782496456,2.6875,55.1875,-37.75
1772911875.8376935,2.0037594454634,0.5614761495829278,-9.212750237455847,-0.08490863355734085,-1.5789726565139524,9.761327792141753,-0.001090830782496456,0.0,0.0,2.6875,55.1875,-37.75
1772911875.8518374,2.0037594454634,0.5614761495829278,-9.212750237455847,-0.08995686421401945,-1.5759712026788946,9.760883630837926,-0.002181661564992912,0.002181661564992912,-0.001090830782496456,2.6875,55.1875,-37.75
1772911875.8722024,2.0037594454634,0.5614761495829278,-9.212750237455847,-0.08995686421401945,-1.5759712026788946,9.760883630837926,-0.002181661564992912,0.002181661564992912,-0.001090830782496456,2.6875,55.1875,-37.75
1772911875.8868017,2.0037594454634,0.5614761495829278,-9.212750237455847,-0.09331640532360763,-1.5739737686800999,9.760588046451836,-0.001090830782496456,0.001090830782496456,-0.001090830782496456,2.25,54.5,-36.5625
1772911875.9048145,2.0037594454634,0.5614761495829278,-9.212750237455847,-0.09889725411082478,-1.5759896103740212,9.757046226637469,-0.001090830782496456,-0.001090830782496456,0.0,2.25,54.5,-36.5625
1772911875.9189653,2.0037594454634,0.5614761495829278,-9.212750237455847,-0.09889725411082478,-1.5759896103740212,9.757046226637469,-0.001090830782496456,-0.001090830782496456,0.0,2.25,54.5,-36.5625
1772911875.934736,2.0037594454634,0.5614761495829278,-9.212750237455847,-0.102611246636552,-1.5773311305028985,9.758034296823046,0.0,0.001090830782496456,0.0,2.25,54.5,-36.5625
1772911875.948049,2.0037594454634,0.5614761495829278,-9.212750237455847,-0.10508286717440854,-1.5782238971629048,9.7620369582014,-0.001090830782496456,0.001090830782496456,-0.001090830782496456,3.5,54.875,-38.1875
1772911875.9624763,2.0037594454634,0.5614761495829278,-9.212750237455847,-0.10508286717440854,-1.5782238971629048,9.7620369582014,-0.001090830782496456,0.001090830782496456,-0.001090830782496456,3.5,54.875,-38.1875
1772911875.9806864,2.0037594454634,0.5614761495829278,-9.212750237455847,-0.1033825913252222,-1.578818023402282,9.764700684636036,-0.001090830782496456,-0.001090830782496456,0.001090830782496456,3.5,54.875,-38.1875
1772911875.9946463,2.0037594454634,0.5614761495829278,-9.212750237455847,-0.1033825913252222,-1.578818023402282,9.764700684636036,-0.001090830782496456,-0.001090830782496456,0.001090830782496456,3.5,54.875,-38.1875
1772911876.0386758,2.0037594454634,0.5614761495829278,-9.212750237455847,-0.10225107674091442,-1.575868296070443,9.763128253115195,0.0,0.0,-0.001090830782496456,3.5,54.875,-38.1875
1772911876.055647,2.0037594454634,0.5614761495829278,-9.212750237455847,-0.10149806642490371,-1.5739052854817175,9.762081817503285,-0.001090830782496456,0.001090830782496456,0.0,2.25,54.1875,-38.1875
1772911876.0755494,2.0037594454634,0.5614761495829278,-9.212750237455847,-0.10099694647127497,-1.5725989238631857,9.76138542629301,-0.001090830782496456,0.0,0.0,2.25,54.1875,-38.1875
1772911876.0913424,2.0037594454634,0.5614761495829278,-9.212750237455847,-0.10099694647127497,-1.5725989238631857,9.76138542629301,-0.001090830782496456,0.0,0.0,2.25,54.1875,-38.1875
1772911876.1201534,2.0037594454634,0.5614761495829278,-9.212750237455847,-0.1006634567400117,-1.5750746665063877,9.760921985721772,0.0,-0.002181661564992912,0.0,2.25,54.1875,-38.1875
1772911876.1385748,2.0037594454634,0.5614761495829278,-9.212750237455847,-0.1004415230491804,-1.5767222455795813,9.767303794613223,0.0,-0.002181661564992912,0.0,3.5,53.75,-39.0
1772911876.156069,2.0037594454634,0.5614761495829278,-9.212750237455847,-0.10029382865709394,-1.5778186910481273,9.774895928848327,0.0,0.001090830782496456,0.0,3.5,53.75,-39.0
1772911876.1690958,2.0037594454634,0.5614761495829278,-9.212750237455847,-0.10019553968901486,-1.5785483632593464,9.779948409372093,-0.001090830782496456,0.001090830782496456,0.001090830782496456,3.5,53.75,-39.0
1772911876.1951997,2.0037594454634,0.5614761495829278,-9.212750237455847,-0.10019553968901486,-1.5785483632593464,9.779948409372093,-0.001090830782496456,0.001090830782496456,0.001090830782496456,3.5,53.75,-39.0
1772911876.2183921,2.0037594454634,0.5614761495829278,-9.212750237455847,-0.10013012947871794,-1.5756888402576206,9.776620555306113,-0.001090830782496456,0.003272492347489368,-0.002181661564992912,2.25,55.1875,-37.75
1772911876.2394006,2.0037594454634,0.5614761495829278,-9.212750237455847,-0.10013012947871794,-1.5756888402576206,9.776620555306113,-0.001090830782496456,0.003272492347489368,-0.002181661564992912,2.25,55.1875,-37.75
1772911876.261089,2.0037594454634,0.5614761495829278,-9.212750237455847,-0.10008659971444527,-1.5771309713502564,9.77106079389245,-0.001090830782496456,-0.002181661564992912,-0.001090830782496456,2.25,55.1875,-37.75
1772911876.2742438,2.0037594454634,0.5614761495829278,-9.212750237455847,-0.10008659971444527,-1.5771309713502564,9.77106079389245,-0.001090830782496456,-0.002181661564992912,-0.001090830782496456,2.25,55.1875,-37.75
1772911876.2976313,2.0037594454634,0.5614761495829278,-9.212750237455847,-0.09671251943526174,-1.5747455817754261,9.767360834778263,0.0,-0.001090830782496456,0.0,1.5625,55.1875,-38.1875
1772911876.3225946,2.0037594454634,0.5614761495829278,-9.212750237455847,-0.09446710670041145,-1.5765032433672437,9.764898553319021,0.001090830782496456,0.0,0.0,1.5625,55.1875,-38.1875
1772911876.3384788,2.0037594454634,0.5614761495829278,-9.212750237455847,-0.09297280960827232,-1.5776729475222318,9.76995015592802,0.002181661564992912,-0.002181661564992912,0.003272492347489368,3.5,54.1875,-39.375
1772911876.3544447,2.0037594454634,0.5614761495829278,-9.212750237455847,-0.09297280960827232,-1.5776729475222318,9.76995015592802,0.002181661564992912,-0.002181661564992912,0.003272492347489368,3.5,54.1875,-39.375
1772911876.3714156,2.0037594454634,0.5614761495829278,-9.212750237455847,-0.091978371585846,-1.5784513725709246,9.773311941034212,0.0,-0.002181661564992912,0.0,3.5,54.1875,-39.375
1772911876.3840492,2.0037594454634,0.5614761495829278,-9.212750237455847,-0.09466169589784124,-1.5789694057452521,9.772204059761462,-0.001090830782496456,-0.001090830782496456,0.0,3.5,54.1875,-39.375
1772911876.4011893,2.0037594454634,0.5614761495829278,-9.212750237455847,-0.09466169589784124,-1.5789694057452521,9.772204059761462,-0.001090830782496456,-0.001090830782496456,0.0,3.5,54.1875,-39.375
1772911876.417716,2.0037594454634,0.5614761495829278,-9.212750237455847,-0.09644741825277747,-1.575969039328638,9.761431442028334,0.001090830782496456,0.001090830782496456,-0.001090830782496456,2.6875,54.875,-37.75
1772911876.4491036,2.0037594454634,0.5614761495829278,-9.212750237455847,-0.10098090823948118,-1.5773174407019899,9.7609526086796,0.001090830782496456,-0.002181661564992912,0.0,2.6875,54.875,-37.75
1772911876.469579,2.0037594454634,0.5614761495829278,-9.212750237455847,-0.10098090823948118,-1.5773174407019899,9.7609526086796,0.001090830782496456,-0.002181661564992912,0.0,2.6875,54.875,-37.75
1772911876.4919832,0.049254444534588174,-0.6976002500975074,-9.22018353172054,-0.10065278347591172,-1.5782147867533252,9.757288838727618,0.0,-0.001090830782496456,0.0,2.6875,55.1875,-37.375
1772911876.5081506,2.0037594454634,0.5614761495829278,-9.212750237455847,-0.10043442011115003,-1.5788119605264765,9.754850640751567,-0.001090830782496456,0.0,0.002181661564992912,2.6875,55.1875,-37.375
1772911876.5227704,2.0037594454634,0.5614761495829278,-9.212750237455847,-0.10043442011115003,-1.5788119605264765,9.754850640751567,-0.001090830782496456,0.0,0.002181661564992912,2.6875,55.1875,-37.375
1772911876.5375714,2.0037594454634,0.5614761495829278,-9.212750237455847,-0.10028910173117973,-1.5792093730016405,9.75322804723496,0.001090830782496456,0.0,-0.001090830782496456,2.6875,55.1875,-37.375
1772911876.5509593,2.0037594454634,0.5614761495829278,-9.212750237455847,-0.10028910173117973,-1.5792093730016405,9.75322804723496,0.001090830782496456,0.0,-0.001090830782496456,2.6875,55.1875,-37.375
1772911876.5686464,2.0037594454634,0.5614761495829278,-9.212750237455847,-0.10019239397262217,-1.5761287348571547,9.752148229375216,0.0,-0.001090830782496456,-0.002181661564992912,3.0625,55.5625,-37.375
1772911876.5843515,2.0037594454634,0.5614761495829278,-9.212750237455847,-0.10012803603959856,-1.5740786045849822,9.751429622651912,0.0,0.003272492347489368,-0.001090830782496456,3.0625,55.5625,-37.375
1772911876.5989614,2.0037594454634,0.5614761495829278,-9.212750237455847,-0.10012803603959856,-1.5740786045849822,9.751429622651912,0.0,0.003272492347489368,-0.001090830782496456,3.0625,55.5625,-37.375
1772911876.6203587,2.0037594454634,0.5614761495829278,-9.212750237455847,-0.10008520655409657,-1.5760593774976266,9.754296509612235,-0.002181661564992912,-0.001090830782496456,0.0,3.0625,55.5625,-37.375
1772911876.6488113,2.0037594454634,0.5614761495829278,-9.212750237455847,-0.10005670400993169,-1.5773775597443083,9.759549502566424,-0.001090830782496456,-0.002181661564992912,-0.001090830782496456,2.25,54.875,-37.75
1772911876.6612349,2.0037594454634,0.5614761495829278,-9.212750237455847,-0.10005670400993169,-1.5773775597443083,9.759549502566424,-0.001090830782496456,-0.002181661564992912,-0.001090830782496456,2.25,54.875,-37.75
1772911876.673155,2.0037594454634,0.5614761495829278,-9.212750237455847,-0.10003773588518425,-1.5782547953044144,9.76304531069766,0.0,0.003272492347489368,0.001090830782496456,2.25,54.875,-37.75
1772911876.691251,2.0037594454634,0.5614761495829278,-9.212750237455847,-0.10002511281005266,-1.5788385857703016,9.768716843665581,0.001090830782496456,0.0,-0.001090830782496456,2.25,54.875,-37.75
1772911876.7166164,2.0037594454634,0.5614761495829278,-9.212750237455847,-0.10002511281005266,-1.5788385857703016,9.768716843665581,0.001090830782496456,0.0,-0.001090830782496456,2.25,54.875,-37.75
1772911876.7361968,2.0037594454634,0.5614761495829278,-9.212750237455847,-0.10001671229456158,-1.5792270918039828,9.7624558503786,0.0,0.0,0.0,3.0625,54.5,-37.75
1772911876.7512383,2.0037594454634,0.5614761495829278,-9.212750237455847,-0.09666601013802278,-1.5794856382295008,9.764979452700631,-0.001090830782496456,0.001090830782496456,-0.001090830782496456,3.0625,54.5,-37.75
1772911876.7665422,2.0037594454634,0.5614761495829278,-9.212750237455847,-0.09666601013802278,-1.5794856382295008,9.764979452700631,-0.001090830782496456,0.001090830782496456,-0.001090830782496456,3.0625,54.5,-37.75
1772911876.7786381,2.0037594454634,0.5614761495829278,-9.212750237455847,-0.0977812669899612,-1.576312586280211,9.766658881855458,-0.002181661564992912,-0.001090830782496456,0.0,3.0625,54.5,-37.75
1772911876.7913277,2.0037594454634,0.5614761495829278,-9.212750237455847,-0.0977812669899612,-1.576312586280211,9.766658881855458,-0.002181661564992912,-0.001090830782496456,0.0,3.0625,54.5,-37.75
1772911876.8043973,2.0037594454634,0.5614761495829278,-9.212750237455847,-0.09852345796669087,-1.5742009556532712,9.767776523197542,0.0,0.001090830782496456,-0.001090830782496456,2.6875,55.1875,-39.375
1772911876.8165963,2.0037594454634,0.5614761495829278,-9.212750237455847,-0.09852345796669087,-1.5742009556532712,9.767776523197542,0.0,0.001090830782496456,-0.001090830782496456,2.6875,55.1875,-39.375
1772911876.8335702,2.0037594454634,0.5614761495829278,-9.212750237455847,-0.09901737777088802,-1.5761408007668218,9.765175189318509,0.0,0.0,0.001090830782496456,2.6875,55.1875,-39.375
1772911876.8461995,2.0037594454634,0.5614761495829278,-9.212750237455847,-0.0993460758831355,-1.5774317460204001,9.763444030680814,-0.001090830782496456,0.003272492347489368,-0.002181661564992912,2.6875,55.1875,-39.375
1772911876.859522,2.0037594454634,0.5614761495829278,-9.212750237455847,-0.0993460758831355,-1.5774317460204001,9.763444030680814,-0.001090830782496456,0.003272492347489368,-0.002181661564992912,2.6875,55.1875,-39.375
1772911876.875172,2.0037594454634,0.5614761495829278,-9.212750237455847,-0.0962197090977183,-1.578290855665853,9.765637075653057,0.0,0.002181661564992912,-0.001090830782496456,2.6875,55.1875,-37.75
1772911876.887923,2.0037594454634,0.5614761495829278,-9.212750237455847,-0.0962197090977183,-1.578290855665853,9.765637075653057,0.0,0.002181661564992912,-0.001090830782496456,2.6875,55.1875,-37.75
1772911876.904158,2.0037594454634,0.5614761495829278,-9.212750237455847,-0.09748425863314786,-1.5788625835380183,9.767096522584168,-0.001090830782496456,0.001090830782496456,0.0,2.6875,55.1875,-37.75
1772911876.9180913,2.0037594454634,0.5614761495829278,-9.212750237455847,-0.09748425863314786,-1.5788625835380183,9.767096522584168,-0.001090830782496456,0.001090830782496456,0.0,2.6875,55.1875,-37.75
1772911876.9337797,2.0037594454634,0.5614761495829278,-9.212750237455847,-0.09498069051571295,-1.5792430620503257,9.764722656506413,-0.001090830782496456,0.002181661564992912,0.001090830782496456,2.6875,55.1875,-37.75
1772911876.955796,2.0037594454634,0.5614761495829278,-9.212750237455847,-0.09331459390024835,-1.5761511545427234,9.763142875149487,0.0,0.0,0.003272492347489368,3.75,54.875,-38.1875
1772911876.9673302,2.0037594454634,0.5614761495829278,-9.212750237455847,-0.09331459390024835,-1.5761511545427234,9.763142875149487,0.0,0.0,0.003272492347489368,3.75,54.875,-38.1875
1772911876.9815416,2.0037594454634,0.5614761495829278,-9.212750237455847,-0.09220582521417534,-1.5740935246352838,9.762091548303768,0.0,0.0,0.0,3.75,54.875,-38.1875
1772911877.0005786,2.0037594454634,0.5614761495829278,-9.212750237455847,-0.0948130637466709,-1.5727241949171151,9.761391902032033,0.0,0.001090830782496456,0.0,3.75,54.875,-38.1875
1772911877.0157125,2.0037594454634,0.5614761495829278,-9.212750237455847,-0.0948130637466709,-1.5727241949171151,9.761391902032033,0.0,0.001090830782496456,0.0,3.75,54.875,-38.1875
1772911877.0308208,2.0037594454634,0.5614761495829278,-9.212750237455847,-0.09654815186528395,-1.5751580329934083,9.760926295253753,0.001090830782496456,0.0,-0.001090830782496456,2.6875,54.875,-37.75
1772911877.0429132,2.0037594454634,0.5614761495829278,-9.212750237455847,-0.09770283362601667,-1.5767777250454287,9.760616439143977,0.0,-0.001090830782496456,0.002181661564992912,2.6875,54.875,-37.75
1772911877.05649,2.0037594454634,0.5614761495829278,-9.212750237455847,-0.09770283362601667,-1.5767777250454287,9.760616439143977,0.0,-0.001090830782496456,0.002181661564992912,2.6875,54.875,-37.75
1772911877.0689964,2.0037594454634,0.5614761495829278,-9.212750237455847,-0.09847126143914388,-1.5778556120129026,9.76041023336424,-0.001090830782496456,-0.001090830782496456,0.0,2.6875,54.875,-37.75
1772911877.0830557,2.0037594454634,0.5614761495829278,-9.212750237455847,-0.09847126143914388,-1.5778556120129026,9.76041023336424,-0.001090830782496456,-0.001090830782496456,0.0,2.6875,54.875,-37.75
1772911877.1022189,2.0037594454634,0.5614761495829278,-9.212750237455847,-0.09898264156487892,-1.57857293374897,9.763618117428614,-0.001090830782496456,-0.001090830782496456,-0.002181661564992912,2.0,54.875,-37.75
1772911877.1271753,2.0037594454634,0.5614761495829278,-9.212750237455847,-0.09597784761874589,-1.5757051916439948,9.765752928439042,-0.001090830782496456,0.001090830782496456,-0.001090830782496456,2.0,54.875,-37.75
1772911877.1563952,2.0037594454634,0.5614761495829278,-9.212750237455847,-0.09597784761874589,-1.5757051916439948,9.765752928439042,-0.001090830782496456,0.001090830782496456,-0.001090830782496456,2.0,54.875,-37.75
1772911877.1861076,6.620274514829448e-05,0.561494703828832,-9.213053371860358,-0.148948641796817,-1.5695484654533085,9.767173621319081,0.0010520228014454943,-0.0011283047537444992,-0.001090830782496456,5.003374165606791,55.4214449419982,-38.1875
1772911877.6751263,6.620274514829448e-05,0.561494703828832,-9.213053371860358,-0.1519306267834377,-1.5756865782814433,9.751716445994141,7.628195229900495e-05,0.0021803275551899935,0.001090830782496456,4.615491563242147,55.05978614315207,-39.375
1772911877.899455,6.620274514829448e-05,0.561494703828832,-9.213053371860358,-0.15451492924392868,-1.5746894347829432,9.755907907502113,0.0,0.0,-0.002181661564992912,4.154220592643892,54.38800374409465,-38.5625
1772911877.9377203,6.620274514829448e-05,0.561494703828832,-9.213053371860358,-0.15462166716999207,-1.5716300150000702,9.753931646447006,0.0010901637775949968,-3.8140976149502475e-05,-0.001090830782496456,3.904373458906964,54.39674501193415,-37.75
1772911878.018053,6.620274514829448e-05,0.561494703828832,-9.213053371860358,-0.15480966213699346,-1.5729370715989408,9.752616466791114,0.0,0.0,-0.002181661564992912,3.904373458906964,54.39674501193415,-37.75
1772911878.0578825,6.620274514829448e-05,0.561494703828832,-9.213053371860358,-0.15480966213699346,-1.5729370715989408,9.752616466791114,0.0,0.0,-0.002181661564992912,3.904373458906964,54.39674501193415,-37.75
1772911878.1932535,6.620274514829448e-05,0.561494703828832,-9.213053371860358,-0.15155800067233255,-1.5711596621362074,9.75450388043661,0.0010138818252959918,-0.0022184685313394958,0.0,3.467140974867341,54.41204223065328,-37.75
1772911878.231292,6.620274514829448e-05,0.561494703828832,-9.213053371860358,-0.15253690216710433,-1.565937924445397,9.756342393826243,-0.0010901637775949968,3.8140976149502475e-05,-0.001090830782496456,4.6286034650014,55.434556843757456,-39.0
1772911878.2618434,6.620274514829448e-05,0.561494703828832,-9.213053371860358,-0.15318835017682877,-1.5624629163427948,9.757565903949503,-0.0010138818252959918,0.0022184685313394958,-0.002181661564992912,4.6286034650014,55.434556843757456,-39.0
1772911878.290085,6.620274514829448e-05,0.561494703828832,-9.213053371860358,-0.15385580568924317,-1.566836469845726,9.758380136269029,0.0,0.0,0.001090830782496456,5.403456261328528,54.344297404897134,-37.75
1772911878.3462203,6.620274514829448e-05,0.561494703828832,-9.213053371860358,-0.15385580568924317,-1.566836469845726,9.758380136269029,0.0,0.0,0.001090830782496456,5.403456261328528,54.344297404897134,-37.75
1772911878.3949447,6.620274514829448e-05,0.561494703828832,-9.213053371860358,-0.150956923588374,-1.5698639829156795,9.762267110489422,-3.8140976149502475e-05,-0.0010901637775949968,-0.001090830782496456,5.403456261328528,54.344297404897134,-37.75
1772911878.4438818,6.620274514829448e-05,0.561494703828832,-9.213053371860358,-0.14902774993288043,-1.571878759044197,9.764853848412745,-7.628195229900495e-05,-0.0021803275551899935,0.0,4.167332494403145,54.762774444700035,-37.75
1772911878.4793715,6.620274514829448e-05,0.561494703828832,-9.213053371860358,-0.14774390641543125,-1.573219570051201,9.763230181897642,-0.0011283047537444992,-0.0010520228014454943,0.002181661564992912,4.167332494403145,54.762774444700035,-37.75
1772911878.5347853,6.620274514829448e-05,0.561494703828832,-9.213053371860358,-0.15023258918445495,-1.573994902728975,9.755459426554745,0.0011664457298940017,0.002142186579040491,-0.001090830782496456,3.94152384722485,55.45859533031609,-37.75
1772911878.558349,6.620274514829448e-05,0.561494703828832,-9.213053371860358,-0.14854571347841777,-1.574627840034547,9.750288075679073,-0.0011283047537444992,-0.0010520228014454943,0.001090830782496456,3.94152384722485,55.45859533031609,-37.75
1772911878.6200228,6.620274514829448e-05,0.561494703828832,-9.213053371860358,-0.1507661828281007,-1.5749320906714852,9.750191711146407,-0.0010520228014454943,0.0011283047537444992,0.001090830782496456,4.979335679048159,54.734365324221656,-37.75
1772911878.650629,6.620274514829448e-05,0.561494703828832,-9.213053371860358,-0.15200995623695293,-1.5684484334948368,9.756817805041019,-3.8140976149502475e-05,-0.0010901637775949968,0.002181661564992912,4.979335679048159,54.734365324221656,-37.75
1772911878.69997,6.620274514829448e-05,0.561494703828832,-9.213053371860358,-0.15283767354668476,-1.5641336320709733,9.754537173094926,-3.8140976149502475e-05,-0.0010901637775949968,0.002181661564992912,5.403456261328528,54.344297404897134,-37.75
1772911878.73078,6.620274514829448e-05,0.561494703828832,-9.213053371860358,-0.15350547223965003,-1.5646052462112967,9.756364549718448,3.8140976149502475e-05,0.0010901637775949968,0.003272492347489368,5.403456261328528,54.344297404897134,-37.75
1772911878.7546837,6.620274514829448e-05,0.561494703828832,-9.213053371860358,-0.15406684687956518,-1.568262166441821,9.757580648448268,-7.628195229900495e-05,-0.0021803275551899935,0.001090830782496456,4.979335679048159,54.734365324221656,-38.5625
1772911878.7820065,6.620274514829448e-05,0.561494703828832,-9.213053371860358,-0.15406684687956518,-1.568262166441821,9.757580648448268,-7.628195229900495e-05,-0.0021803275551899935,0.001090830782496456,4.979335679048159,54.734365324221656,-38.5625
1772911878.8031702,6.620274514829448e-05,0.561494703828832,-9.213053371860358,-0.15444043543146307,-1.5706958060047596,9.75838994856825,-0.0011283047537444992,-0.0010520228014454943,0.002181661564992912,4.979335679048159,54.734365324221656,-38.5625
1772911878.830312,6.620274514829448e-05,0.561494703828832,-9.213053371860358,-0.15468905443949357,-1.57231536594836,9.758928528757624,7.628195229900495e-05,0.0021803275551899935,0.0,4.643900683720529,55.87178932779708,-37.75
1772911878.8444636,6.620274514829448e-05,0.561494703828832,-9.213053371860358,-0.15468905443949357,-1.57231536594836,9.758928528757624,7.628195229900495e-05,0.0021803275551899935,0.0,4.643900683720529,55.87178932779708,-37.75
1772911878.8630087,6.620274514829448e-05,0.561494703828832,-9.213053371860358,-0.15139447925412028,-1.5701670607802884,9.759286947857316,0.002218468531339496,0.0010138818252959918,0.0,4.643900683720529,55.87178932779708,-37.75
1772911878.8790307,6.620274514829448e-05,0.561494703828832,-9.213053371860358,-0.1492019762710706,-1.5687373876890782,9.759525471764357,0.0010901637775949968,-3.8140976149502475e-05,0.002181661564992912,4.643900683720529,55.87178932779708,-37.75
1772911878.900044,6.620274514829448e-05,0.561494703828832,-9.213053371860358,-0.1492019762710706,-1.5687373876890782,9.759525471764357,0.0010901637775949968,-3.8140976149502475e-05,0.002181661564992912,4.643900683720529,55.87178932779708,-37.75
1772911878.919892,6.620274514829448e-05,0.561494703828832,-9.213053371860358,-0.14774289002771412,-1.5677859562173724,9.763029318467327,-0.0012045867060435042,-0.003232350356635488,0.001090830782496456,5.677341881624088,55.022635754834184,-36.5625
1772911878.9539578,6.620274514829448e-05,0.561494703828832,-9.213053371860358,-0.14774289002771412,-1.5677859562173724,9.763029318467327,-0.0012045867060435042,-0.003232350356635488,0.001090830782496456,5.677341881624088,55.022635754834184,-36.5625
1772911878.979948,6.620274514829448e-05,0.561494703828832,-9.213053371860358,-0.15011495072023606,-1.5670358271315914,9.762015977600301,-7.628195229900495e-05,-0.0021803275551899935,0.0,5.677341881624088,55.022635754834184,-36.5625
1772911879.0121622,6.620274514829448e-05,0.561494703828832,-9.213053371860358,-0.1518104926830022,-1.5698796908929094,9.761341610573055,0.0010520228014454943,-0.0011283047537444992,0.0,4.191370980961778,55.44985406247659,-37.75
1772911879.028168,6.620274514829448e-05,0.561494703828832,-9.213053371860358,-0.15293885691877832,-1.5717722504580267,9.760892826849595,-7.628195229900495e-05,-0.0021803275551899935,0.002181661564992912,4.191370980961778,55.44985406247659,-37.75
1772911879.0413492,6.620274514829448e-05,0.561494703828832,-9.213053371860358,-0.15293885691877832,-1.5717722504580267,9.760892826849595,-7.628195229900495e-05,-0.0021803275551899935,0.002181661564992912,4.191370980961778,55.44985406247659,-37.75
1772911879.0572872,6.620274514829448e-05,0.561494703828832,-9.213053371860358,-0.1502297423550716,-1.5698056234884692,9.760594166294876,0.0,0.0,0.001090830782496456,4.191370980961778,55.44985406247659,-37.75
1772911879.0749555,6.620274514829448e-05,0.561494703828832,-9.213053371860358,-0.1502297423550716,-1.5698056234884692,9.760594166294876,0.0,0.0,0.001090830782496456,4.191370980961778,55.44985406247659,-37.75
1772911879.1076236,6.620274514829448e-05,0.561494703828832,-9.213053371860358,-0.14842685687571738,-1.5684968552088914,9.753705187617328,-3.8140976149502475e-05,-0.0010901637775949968,0.0,4.990262263847537,55.046674241392815,-38.5625
1772911879.1453352,6.620274514829448e-05,0.561494703828832,-9.213053371860358,-0.15068708508671885,-1.5708519887575996,9.752465760969674,0.00011442292844850743,0.0032704913327849905,0.0,4.990262263847537,55.046674241392815,-38.5625
1772911879.165345,6.620274514829448e-05,0.561494703828832,-9.213053371860358,-0.15068708508671885,-1.5708519887575996,9.752465760969674,0.00011442292844850743,0.0032704913327849905,0.0,4.990262263847537,55.046674241392815,-38.5625
1772911879.1992962,6.620274514829448e-05,0.561494703828832,-9.213053371860358,-0.15219124171273685,-1.5724193038256993,9.744950712966325,-3.8140976149502475e-05,-0.0010901637775949968,-0.001090830782496456,3.904373458906964,54.39674501193415,-37.375
1772911879.2162225,6.620274514829448e-05,0.561494703828832,-9.213053371860358,-0.14984917485640703,-1.57357929656501,9.746639755883322,7.628195229900495e-05,0.0021803275551899935,0.001090830782496456,3.904373458906964,54.39674501193415,-37.375
1772911879.2312598,6.620274514829448e-05,0.561494703828832,-9.213053371860358,-0.1481735934565736,-1.5710081924866388,9.744418683369418,-0.002065904626741486,0.0033467732850839954,0.0,3.904373458906964,54.39674501193415,-37.375
1772911879.2510002,6.620274514829448e-05,0.561494703828832,-9.213053371860358,-0.1481735934565736,-1.5710081924866388,9.744418683369418,-0.002065904626741486,0.0033467732850839954,0.0,3.904373458906964,54.39674501193415,-37.375
1772911879.2708614,6.620274514829448e-05,0.561494703828832,-9.213053371860358,-0.15051854111041646,-1.5725232556624649,9.746285696129739,0.0,0.0,0.001090830782496456,3.4911794614259732,55.09912184842983,-38.5625
1772911879.2847397,6.620274514829448e-05,0.561494703828832,-9.213053371860358,-0.1520790775792672,-1.5735315132816126,9.750873283973153,3.8140976149502475e-05,0.0010901637775949968,0.001090830782496456,3.4911794614259732,55.09912184842983,-38.5625
1772911879.3165226,6.620274514829448e-05,0.561494703828832,-9.213053371860358,-0.1520790775792672,-1.5735315132816126,9.750873283973153,3.8140976149502475e-05,0.0010901637775949968,0.001090830782496456,3.4911794614259732,55.09912184842983,-38.5625
1772911879.3399956,6.620274514829448e-05,0.561494703828832,-9.213053371860358,-0.14977453087853843,-1.5743194595337264,9.753926272436232,-0.0010520228014454943,0.0011283047537444992,-0.001090830782496456,4.191370980961778,55.44985406247659,-37.75
1772911879.3590946,6.620274514829448e-05,0.561494703828832,-9.213053371860358,-0.14812391872312994,-1.5715007626741577,9.755958002154294,-0.0010901637775949968,3.8140976149502475e-05,-0.001090830782496456,4.191370980961778,55.44985406247659,-37.75
1772911879.385232,6.620274514829448e-05,0.561494703828832,-9.213053371860358,-0.15036852106066584,-1.5695079893314747,9.757310095585757,0.00011442292844850743,0.0032704913327849905,-0.002181661564992912,4.191370980961778,55.44985406247659,-37.75
1772911879.4364822,6.620274514829448e-05,0.561494703828832,-9.213053371860358,-0.151862278842445,-1.568181820932656,9.751519675245884,-0.0010901637775949968,3.8140976149502475e-05,0.001090830782496456,5.003374165606791,55.4214449419982,-37.75
1772911879.4640005,6.620274514829448e-05,0.561494703828832,-9.213053371860358,-0.151862278842445,-1.568181820932656,9.751519675245884,-0.0010901637775949968,3.8140976149502475e-05,0.001090830782496456,5.003374165606791,55.4214449419982,-37.75
1772911879.4835148,6.620274514829448e-05,0.561494703828832,-9.213053371860358,-0.15297332002939817,-1.5706423369659284,9.744321103485612,0.0011283047537444992,0.0010520228014454943,0.001090830782496456,5.003374165606791,55.4214449419982,-37.75
1772911879.528367,6.620274514829448e-05,0.561494703828832,-9.213053371860358,-0.15371270552817226,-1.572279782900306,9.739530534392467,7.628195229900495e-05,0.0021803275551899935,0.0,5.4274947478871605,55.03137702267368,-37.75
1772911879.5485258,6.620274514829448e-05,0.561494703828832,-9.213053371860358,-0.15420475831812921,-1.5733694848781647,9.736342464175141,-0.0011283047537444992,-0.0010520228014454943,0.0,5.4274947478871605,55.03137702267368,-37.75
1772911879.574166,6.620274514829448e-05,0.561494703828832,-9.213053371860358,-0.15453221395325573,-1.574094669371661,9.740911062473229,-0.002142186579040491,0.0011664457298940017,0.0,5.4274947478871605,55.03137702267368,-37.75
1772911879.594835,6.620274514829448e-05,0.561494703828832,-9.213053371860358,-0.15453221395325573,-1.574094669371661,9.740911062473229,-0.002142186579040491,0.0011664457298940017,0.0,5.4274947478871605,55.03137702267368,-37.75
1772911879.6404326,6.620274514829448e-05,0.561494703828832,-9.213053371860358,-0.1547501320205133,-1.5745772715512412,9.753986748727977,0.0011664457298940017,0.002142186579040491,0.002181661564992912,4.955297192489527,54.0472857064451,-37.5
1772911879.6579764,6.620274514829448e-05,0.561494703828832,-9.213053371860358,-0.1548951540599689,-1.5748984379107323,9.762688471865525,3.8140976149502475e-05,0.0010901637775949968,-0.001090830782496456,4.955297192489527,54.0472857064451,-37.5
1772911879.6804929,6.620274514829448e-05,0.561494703828832,-9.213053371860358,-0.15164859831880995,-1.575229132604857,9.761789147994309,-3.8140976149502475e-05,-0.0010901637775949968,0.0,4.955297192489527,54.0472857064451,-37.5
1772911879.70959,6.620274514829448e-05,0.561494703828832,-9.213053371860358,-0.15164859831880995,-1.575229132604857,9.761789147994309,-3.8140976149502475e-05,-0.0010901637775949968,0.0,4.955297192489527,54.0472857064451,-37.5
1772911879.7481925,6.620274514829448e-05,0.561494703828832,-9.213053371860358,-0.14948805173947255,-1.5754492062296956,9.757845546296801,-0.0010901637775949968,3.8140976149502475e-05,0.001090830782496456,4.167332494403145,54.762774444700035,-37.75
1772911879.7793574,6.620274514829448e-05,0.561494703828832,-9.213053371860358,-0.14805023212581017,-1.5755956627686418,9.755221123420027,3.8140976149502475e-05,0.0010901637775949968,0.0,4.167332494403145,54.762774444700035,-37.75
1772911879.8382282,6.620274514829448e-05,0.561494703828832,-9.213053371860358,-0.15043644552282973,-1.5755761658897371,9.756819711019578,7.628195229900495e-05,0.0021803275551899935,0.001090830782496456,4.591453076683514,54.37270652537552,-37.375
1772911879.8859804,6.620274514829448e-05,0.561494703828832,-9.213053371860358,-0.14856441552483474,-1.5723370867157531,9.757883553209684,-0.0010901637775949968,3.8140976149502475e-05,0.001090830782496456,4.591453076683514,54.37270652537552,-37.375
1772911879.9170163,6.620274514829448e-05,0.561494703828832,-9.213053371860358,-0.14731860047311435,-1.5701815157083516,9.758591528303304,0.0010901637775949968,-3.8140976149502475e-05,-0.001090830782496456,4.6045649784427685,54.74747722598091,-37.0
1772911879.9394164,6.620274514829448e-05,0.561494703828832,-9.213053371860358,-0.14648952447286043,-1.5687470072822323,9.759062677819509,-0.0010520228014454943,0.0011283047537444992,-0.002181661564992912,4.6045649784427685,54.74747722598091,-37.0
1772911879.9666529,6.620274514829448e-05,0.561494703828832,-9.213053371860358,-0.14648952447286043,-1.5687470072822323,9.759062677819509,-0.0010520228014454943,0.0011283047537444992,-0.002181661564992912,4.6045649784427685,54.74747722598091,-37.0
1772911879.9866195,6.620274514829448e-05,0.561494703828832,-9.213053371860358,-0.1459377836560772,-1.5677923579491586,9.756031110852138,-0.0010138818252959918,0.0022184685313394958,0.0,3.480252876626595,54.786812931258666,-37.375
1772911880.0245852,6.620274514829448e-05,0.561494703828832,-9.213053371860358,-0.14568756837540367,-1.5705001157705443,9.754013636900176,0.0,0.0,0.0,3.480252876626595,54.786812931258666,-37.375
1772911880.0450745,6.620274514829448e-05,0.561494703828832,-9.213053371860358,-0.14552105290120326,-1.5723020983530398,9.756016142229125,-7.628195229900495e-05,-0.0021803275551899935,0.001090830782496456,3.917485360666218,54.77151571253954,-37.375
1772911880.0768223,6.620274514829448e-05,0.561494703828832,-9.213053371860358,-0.1454102387132226,-1.573501297632226,9.75734878715609,0.0,0.0,0.0,3.917485360666218,54.77151571253954,-37.375
1772911880.1087184,6.620274514829448e-05,0.561494703828832,-9.213053371860358,-0.1454102387132226,-1.573501297632226,9.75734878715609,0.0,0.0,0.0,3.917485360666218,54.77151571253954,-37.375
1772911880.1634376,6.620274514829448e-05,0.561494703828832,-9.213053371860358,-0.14973696277406212,-1.5746747732938482,9.758825843099308,-0.0010520228014454943,0.0011283047537444992,0.0,5.6664152968247095,54.710326837663025,-37.75
1772911880.186229,6.620274514829448e-05,0.561494703828832,-9.213053371860358,-0.14973696277406212,-1.5746747732938482,9.758825843099308,-0.0010520228014454943,0.0011283047537444992,0.0,5.6664152968247095,54.710326837663025,-37.75
1772911880.218366,6.620274514829448e-05,0.561494703828832,-9.213053371860358,-0.1482158796388111,-1.5750802863008184,9.759218611698781,3.8140976149502475e-05,0.0010901637775949968,0.002181661564992912,4.154220592643892,54.38800374409465,-37.375
1772911880.2337465,6.620274514829448e-05,0.561494703828832,-9.213053371860358,-0.14720361580391353,-1.57535015067708,9.759479994814217,-3.8140976149502475e-05,-0.0010901637775949968,0.001090830782496456,4.154220592643892,54.38800374409465,-37.375
1772911880.2499747,6.620274514829448e-05,0.561494703828832,-9.213053371860358,-0.14720361580391353,-1.57535015067708,9.759479994814217,-3.8140976149502475e-05,-0.0010901637775949968,0.001090830782496456,4.154220592643892,54.38800374409465,-37.375
1772911880.2721696,6.620274514829448e-05,0.561494703828832,-9.213053371860358,-0.14987303181793146,-1.5754127803353524,9.756308830650381,-3.8140976149502475e-05,-0.0010901637775949968,-0.002181661564992912,4.154220592643892,54.38800374409465,-37.375
1772911880.2949445,6.620274514829448e-05,0.561494703828832,-9.213053371860358,-0.1516494983559297,-1.5754544596733135,9.754198456323573,0.0011664457298940017,0.002142186579040491,0.0,4.990262263847537,55.046674241392815,-38.1875
1772911880.3549626,6.620274514829448e-05,0.561494703828832,-9.213053371860358,-0.15283171699253603,-1.575482196807138,9.752794025783508,-0.0011283047537444992,-0.0010520228014454943,-0.001090830782496456,4.990262263847537,55.046674241392815,-38.1875
1772911880.3818476,6.620274514829448e-05,0.561494703828832,-9.213053371860358,-0.15361847028895007,-1.5755006555598543,9.75520450465493,-3.8140976149502475e-05,-0.0010901637775949968,0.001090830782496456,5.440606649646414,55.406147723279076,-37.75
1772911880.405577,6.620274514829448e-05,0.561494703828832,-9.213053371860358,-0.15361847028895007,-1.5755006555598543,9.75520450465493,-3.8140976149502475e-05,-0.0010901637775949968,0.001090830782496456,5.440606649646414,55.406147723279076,-37.75
1772911880.4301305,6.620274514829448e-05,0.561494703828832,-9.213053371860358,-0.15414204581910343,-1.5755129396535892,9.760153763124368,-3.8140976149502475e-05,-0.0010901637775949968,0.0,5.440606649646414,55.406147723279076,-37.75
1772911880.4499888,6.620274514829448e-05,0.561494703828832,-9.213053371860358,-0.1544904794856986,-1.5755211145807473,9.763447439348939,0.0010901637775949968,-3.8140976149502475e-05,-0.001090830782496456,4.191370980961778,55.44985406247659,-37.75
1772911880.4838045,6.620274514829448e-05,0.561494703828832,-9.213053371860358,-0.1547223581985586,-1.575526554903451,9.765639344083617,-7.628195229900495e-05,-0.0021803275551899935,0.0,4.191370980961778,55.44985406247659,-37.75
1772911880.497843,6.620274514829448e-05,0.561494703828832,-9.213053371860358,-0.15487667089171198,-1.575530175377438,9.763752920492045,0.0010901637775949968,-3.8140976149502475e-05,-0.002181661564992912,4.191370980961778,55.44985406247659,-37.75
1772911880.530508,6.620274514829448e-05,0.561494703828832,-9.213053371860358,-0.15487667089171198,-1.575530175377438,9.763752920492045,0.0010901637775949968,-3.8140976149502475e-05,-0.002181661564992912,4.191370980961778,55.44985406247659,-37.75
1772911880.5515802,6.620274514829448e-05,0.561494703828832,-9.213053371860358,-0.15497936426521983,-1.575532584762433,9.759152414957269,0.0,0.0,0.0,4.990262263847537,55.046674241392815,-37.5
1772911880.566105,6.620274514829448e-05,0.561494703828832,-9.213053371860358,-0.14836157298130045,-1.5757681123203264,9.759435941622208,7.628195229900495e-05,0.0021803275551899935,0.0,4.990262263847537,55.046674241392815,-37.5
1772911880.5802398,6.620274514829448e-05,0.561494703828832,-9.213053371860358,-0.14836157298130045,-1.5757681123203264,9.759435941622208,7.628195229900495e-05,0.0021803275551899935,0.0,4.990262263847537,55.046674241392815,-37.5
1772911880.6177204,6.620274514829448e-05,0.561494703828832,-9.213053371860358,-0.14395750680742456,-1.5759248532790893,9.756279513743205,-0.0010520228014454943,0.0011283047537444992,0.0,4.990262263847537,55.046674241392815,-37.5
1772911880.6359944,6.620274514829448e-05,0.561494703828832,-9.213053371860358,-0.14090968789580588,-1.5726860963478204,9.7474887228347,-0.0010520228014454943,0.0011283047537444992,-0.001090830782496456,3.917485360666218,54.77151571253954,-38.1875
1772911880.658175,6.620274514829448e-05,0.561494703828832,-9.213053371860358,-0.13888139845649172,-1.5705307397893464,9.741638549684659,0.0011283047537444992,0.0010520228014454943,-0.001090830782496456,3.917485360666218,54.77151571253954,-38.1875
1772911880.6719058,6.620274514829448e-05,0.561494703828832,-9.213053371860358,-0.13888139845649172,-1.5705307397893464,9.741638549684659,0.0011283047537444992,0.0010520228014454943,-0.001090830782496456,3.917485360666218,54.77151571253954,-38.1875
1772911880.691981,6.620274514829448e-05,0.561494703828832,-9.213053371860358,-0.1408746607805201,-1.5689794120070455,9.74778065992598,-0.0011664457298940017,-0.002142186579040491,0.0,3.917485360666218,54.77151571253954,-38.1875
1772911880.7094622,6.620274514829448e-05,0.561494703828832,-9.213053371860358,-0.14554422087937624,-1.567830058627844,9.751868165679712,0.0,0.0,0.0,-67.00390116276172,-1992.0002423469282,-37.5
1772911880.7354238,6.620274514829448e-05,0.561494703828832,-9.213053371860358,-0.14542565674389343,-1.5705252051510654,9.75124324339107,-0.0010138818252959918,0.0022184685313394958,-0.002181661564992912,-67.00390116276172,-1992.0002423469282,-37.5
1772911880.7635431,6.620274514829448e-05,0.561494703828832,-9.213053371860358,-0.14542565674389343,-1.5705252051510654,9.75124324339107,-0.0010138818252959918,0.0022184685313394958,-0.002181661564992912,-67.00390116276172,-1992.0002423469282,-37.5
1772911880.781075,6.620274514829448e-05,0.561494703828832,-9.213053371860358,-0.14868981992459218,-1.5722018329859628,9.747482252881499,-0.0011283047537444992,-0.0010520228014454943,0.0,3.904373458906964,54.39674501193415,-38.1875
1772911880.8049746,6.620274514829448e-05,0.561494703828832,-9.213053371860358,-0.14751901776984094,-1.5734345721504739,9.748324467417715,0.0,0.0,0.001090830782496456,3.904373458906964,54.39674501193415,-38.1875
1772911880.8315225,6.620274514829448e-05,0.561494703828832,-9.213053371860358,-0.14662289994502406,-1.570911880005443,9.745539840076095,0.0011283047537444992,0.0010520228014454943,0.001090830782496456,4.591453076683514,54.37270652537552,-38.1875
1772911880.8602955,6.620274514829448e-05,0.561494703828832,-9.213053371860358,-0.14662289994502406,-1.570911880005443,9.745539840076095,0.0011283047537444992,0.0010520228014454943,0.001090830782496456,4.591453076683514,54.37270652537552,-38.1875
1772911880.876749,6.620274514829448e-05,0.561494703828832,-9.213053371860358,-0.14602654354290046,-1.5692330565632424,9.747031813393892,0.0010138818252959918,-0.0022184685313394958,0.0,4.591453076683514,54.37270652537552,-38.1875
1772911880.9003851,6.620274514829448e-05,0.561494703828832,-9.213053371860358,-0.14602654354290046,-1.5692330565632424,9.747031813393892,0.0010138818252959918,-0.0022184685313394958,0.0,4.591453076683514,54.37270652537552,-38.1875
1772911880.9217918,6.620274514829448e-05,0.561494703828832,-9.213053371860358,-0.1523158075958534,-1.567881894177051,9.748024704970453,-0.0010520228014454943,0.0011283047537444992,0.0,4.591453076683514,54.37270652537552,-38.1875
1772911880.9598925,6.620274514829448e-05,0.561494703828832,-9.213053371860358,-0.15650124256741074,-1.5669827107025132,9.748685463223328,0.0011283047537444992,0.0010520228014454943,0.0,4.6045649784427685,54.74747722598091,-38.1875
1772911880.9828138,6.620274514829448e-05,0.561494703828832,-9.213053371860358,-0.14925740392136702,-1.5667352003533868,9.755815413874101,-0.0010520228014454943,0.0011283047537444992,0.001090830782496456,4.6045649784427685,54.74747722598091,-38.1875
1772911881.0017993,6.620274514829448e-05,0.561494703828832,-9.213053371860358,-0.14925740392136702,-1.5667352003533868,9.755815413874101,-0.0010520228014454943,0.0011283047537444992,0.001090830782496456,4.6045649784427685,54.74747722598091,-38.1875
1772911881.0604198,6.620274514829448e-05,0.561494703828832,-9.213053371860358,-0.14810952401186392,-1.5717947841602888,9.75814674982148,0.0010901637775949968,-3.8140976149502475e-05,-0.001090830782496456,5.003374165606791,55.4214449419982,-38.1875
1772911881.084398,6.620274514829448e-05,0.561494703828832,-9.213053371860358,-0.14810952401186392,-1.5717947841602888,9.75814674982148,0.0010901637775949968,-3.8140976149502475e-05,-0.001090830782496456,5.003374165606791,55.4214449419982,-38.1875
1772911881.1160824,6.620274514829448e-05,0.561494703828832,-9.213053371860358,-0.15539376908788885,-1.5737629132999174,9.759179241119467,0.0021040456028909886,-0.0022566095074889984,0.001090830782496456,4.591453076683514,54.37270652537552,-39.0
1772911881.1582496,6.620274514829448e-05,0.561494703828832,-9.213053371860358,-0.15539376908788885,-1.5737629132999174,9.759179241119467,0.0021040456028909886,-0.0022566095074889984,0.001090830782496456,4.591453076683514,54.37270652537552,-39.0
1772911881.179226,6.620274514829448e-05,0.561494703828832,-9.213053371860358,-0.15866655362682452,-1.574239529521907,9.759453794133483,-0.002371032435937506,-0.005374536935675979,-0.001090830782496456,4.9662237772889055,54.35959462361626,-38.1875
1772911881.2053668,6.620274514829448e-05,0.561494703828832,-9.213053371860358,-0.15866655362682452,-1.574239529521907,9.759453794133483,-0.002371032435937506,-0.005374536935675979,-0.001090830782496456,4.9662237772889055,54.35959462361626,-38.1875
1772911881.2437782,6.620274514829448e-05,0.561494703828832,-9.213053371860358,-0.16084455517808746,-1.5745567122934891,9.759636506097353,-7.628195229900495e-05,-0.0021803275551899935,0.0,4.9662237772889055,54.35959462361626,-38.1875
1772911881.2618093,6.620274514829448e-05,0.561494703828832,-9.213053371860358,-0.16217702881103452,-1.5714247275963988,9.7631032105756,-0.0011664457298940017,-0.002142186579040491,-0.001090830782496456,4.9662237772889055,54.35959462361626,-38.5625
1772911881.2821567,6.620274514829448e-05,0.561494703828832,-9.213053371860358,-0.163063775129055,-1.569340426767047,9.762065151972928,7.628195229900495e-05,0.0021803275551899935,0.001090830782496456,4.9662237772889055,54.35959462361626,-38.5625
1772911881.295727,6.620274514829448e-05,0.561494703828832,-9.213053371860358,-0.16377085696763918,-1.5712964141366934,9.764719447276043,-3.8140976149502475e-05,-0.0010901637775949968,0.0,4.9662237772889055,54.35959462361626,-38.5625
1772911881.315233,6.620274514829448e-05,0.561494703828832,-9.213053371860358,-0.16377085696763918,-1.5712964141366934,9.764719447276043,-3.8140976149502475e-05,-0.0010901637775949968,0.0,4.9662237772889055,54.35959462361626,-38.5625
1772911881.3385417,6.620274514829448e-05,0.561494703828832,-9.213053371860358,-0.16424141203259526,-1.5725981018813824,9.766485851149845,0.0009757408491464893,-0.0033086323089344927,0.0,4.990262263847537,55.046674241392815,-38.1875
1772911881.3556507,6.620274514829448e-05,0.561494703828832,-9.213053371860358,-0.16424141203259526,-1.5725981018813824,9.766485851149845,0.0009757408491464893,-0.0033086323089344927,0.0,4.990262263847537,55.046674241392815,-38.1875
1772911881.3726132,6.620274514829448e-05,0.561494703828832,-9.213053371860358,-0.16121149488346467,-1.573581322604215,9.767661373195837,-0.0011664457298940017,-0.002142186579040491,0.0,4.990262263847537,55.046674241392815,-38.1875
1772911881.3987317,6.620274514829448e-05,0.561494703828832,-9.213053371860358,-0.15919511886711055,-1.574235645011965,9.768443669986002,0.0,0.0,0.0,4.990262263847537,55.046674241392815,-38.1875
1772911881.4232407,6.620274514829448e-05,0.561494703828832,-9.213053371860358,-0.15785324315262286,-1.5746710892650624,9.768964279761029,-0.0010520228014454943,0.0011283047537444992,0.0,4.979335679048159,54.734365324221656,-37.75
1772911881.439646,6.620274514829448e-05,0.561494703828832,-9.213053371860358,-0.15785324315262286,-1.5746710892650624,9.768964279761029,-0.0010520228014454943,0.0011283047537444992,0.0,4.979335679048159,54.734365324221656,-37.75
1772911881.4580564,6.620274514829448e-05,0.561494703828832,-9.213053371860358,-0.1569602398543652,-1.5749608725512678,9.765965628043398,-0.0010901637775949968,3.8140976149502475e-05,0.0,4.979335679048159,54.734365324221656,-37.75
1772911881.4777792,6.620274514829448e-05,0.561494703828832,-9.213053371860358,-0.15970902242328952,-1.5750367580215991,9.76731517052977,-0.0016878355666503312,-0.1418357140157981,-0.002181661564992912,4.979335679048159,54.734365324221656,-37.75
1772911881.4939053,6.620274514829448e-05,0.561494703828832,-9.213053371860358,-0.15970902242328952,-1.5750367580215991,9.76731517052977,-0.0016878355666503312,-0.1418357140157981,-0.002181661564992912,4.979335679048159,54.734365324221656,-37.75
1772911881.5279565,6.620274514829448e-05,0.561494703828832,-9.213053371860358,-0.16153830651699544,-1.5750872589544083,9.764868164271753,-0.0011664457298940017,-0.002142186579040491,0.0,4.178259079202523,55.075083361871194,-37.75
1772911881.5583835,6.620274514829448e-05,0.561494703828832,-9.213053371860358,-0.15941260835850013,-1.5752378288306073,9.763239708941894,-0.0010520228014454943,0.0011283047537444992,0.001090830782496456,4.178259079202523,55.075083361871194,-37.75
1772911881.5842357,6.620274514829448e-05,0.561494703828832,-9.213053371860358,-0.1579979799796258,-1.5753380314012422,9.75881087840359,-0.002142186579040491,0.0011664457298940017,-0.001090830782496456,4.178259079202523,55.075083361871194,-37.75
1772911881.6085691,6.620274514829448e-05,0.561494703828832,-9.213053371860358,-0.1579979799796258,-1.5753380314012422,9.75881087840359,-0.002142186579040491,0.0011664457298940017,-0.001090830782496456,4.178259079202523,55.075083361871194,-37.75
1772911881.638111,6.620274514829448e-05,0.561494703828832,-9.213053371860358,-0.15705656059591935,-1.5754047150926636,9.759208652860949,0.00011442292844850743,0.0032704913327849905,-0.002181661564992912,5.6664152968247095,54.710326837663025,-37.75
1772911881.6788464,6.620274514829448e-05,0.561494703828832,-9.213053371860358,-0.15643005651240627,-1.575449092344399,9.756128255611568,0.0001525639045980099,0.004360655110379987,0.0,5.6664152968247095,54.710326837663025,-37.75
1772911881.7181017,6.620274514829448e-05,0.561494703828832,-9.213053371860358,-0.1560131250433375,-1.5754786249097021,9.760768509067036,-3.8140976149502475e-05,-0.0010901637775949968,0.0,4.580526491884137,54.060397608204354,-38.1875
1772911881.7439938,6.620274514829448e-05,0.561494703828832,-9.213053371860358,-0.15573566180810192,-1.5754982785020113,9.760511434199303,0.0010520228014454943,-0.0011283047537444992,-0.001090830782496456,4.580526491884137,54.060397608204354,-38.1875
1772911881.7638743,6.620274514829448e-05,0.561494703828832,-9.213053371860358,-0.15555101312452008,-1.575511357748148,9.763685465453861,-3.8140976149502475e-05,-0.0010901637775949968,-0.001090830782496456,4.580526491884137,54.060397608204354,-38.1875
1772911881.7828553,6.620274514829448e-05,0.561494703828832,-9.213053371860358,-0.15555101312452008,-1.575511357748148,9.763685465453861,-3.8140976149502475e-05,-0.0010901637775949968,-0.001090830782496456,4.580526491884137,54.060397608204354,-38.1875
1772911881.8098793,6.620274514829448e-05,0.561494703828832,-9.213053371860358,-0.1553463551320022,-1.5755258543164747,9.761632201920285,-3.8140976149502475e-05,-0.0010901637775949968,0.0,4.167332494403145,54.762774444700035,-38.5625
1772911881.8516803,6.620274514829448e-05,0.561494703828832,-9.213053371860358,-0.1553463551320022,-1.5755258543164747,9.761632201920285,-3.8140976149502475e-05,-0.0010901637775949968,0.0,4.167332494403145,54.762774444700035,-38.5625
1772911881.8834062,6.620274514829448e-05,0.561494703828832,-9.213053371860358,-0.15529193388041623,-1.5755297091446312,9.76108621214506,-7.628195229900495e-05,-0.0021803275551899935,0.0,4.990262263847537,55.046674241392815,-37.5
1772911881.8979475,6.620274514829448e-05,0.561494703828832,-9.213053371860358,-0.15529193388041623,-1.5755297091446312,9.76108621214506,-7.628195229900495e-05,-0.0021803275551899935,0.0,4.990262263847537,55.046674241392815,-37.5
1772911881.9250133,6.620274514829448e-05,0.561494703828832,-9.213053371860358,-0.15191265085699662,-1.5756492365592554,9.760722862048752,0.00011442292844850743,0.0032704913327849905,-0.002181661564992912,4.990262263847537,55.046674241392815,-37.5
1772911881.9488301,6.620274514829448e-05,0.561494703828832,-9.213053371860358,-0.14966377575397566,-1.5757287807184788,9.760481056618547,-3.8140976149502475e-05,-0.0010901637775949968,-0.001090830782496456,4.6045649784427685,54.74747722598091,-37.5
1772911881.9665027,6.620274514829448e-05,0.561494703828832,-9.213053371860358,-0.14966377575397566,-1.5757287807184788,9.760481056618547,-3.8140976149502475e-05,-0.0010901637775949968,-0.001090830782496456,4.6045649784427685,54.74747722598091,-37.5
1772911881.9815986,6.620274514829448e-05,0.561494703828832,-9.213053371860358,-0.15139327871336358,-1.5723216881099142,9.760320137805888,3.8140976149502475e-05,0.0010901637775949968,0.001090830782496456,4.6045649784427685,54.74747722598091,-37.5
1772911881.9953163,6.620274514829448e-05,0.561494703828832,-9.213053371860358,-0.15139327871336358,-1.5723216881099142,9.760320137805888,3.8140976149502475e-05,0.0010901637775949968,0.001090830782496456,4.6045649784427685,54.74747722598091,-37.5
1772911882.0296793,6.620274514829448e-05,0.561494703828832,-9.213053371860358,-0.1525442436130223,-1.5700543060386327,9.760213048133645,0.0001525639045980099,0.004360655110379987,-0.002181661564992912,4.6045649784427685,54.74747722598091,-37.5
1772911882.0687897,6.620274514829448e-05,0.561494703828832,-9.213053371860358,-0.1533101978966248,-1.5685453885985123,9.760141781153036,-3.8140976149502475e-05,-0.0010901637775949968,0.001090830782496456,4.591453076683514,54.37270652537552,-38.1875
1772911882.0944078,6.620274514829448e-05,0.561494703828832,-9.213053371860358,-0.15393689398563923,-1.5708842871862387,9.760094353773546,0.00011442292844850743,0.0032704913327849905,-0.001090830782496456,4.591453076683514,54.37270652537552,-38.1875
1772911882.128882,6.620274514829448e-05,0.561494703828832,-9.213053371860358,-0.15435395323222428,-1.5724407980691615,9.760062791382294,-0.0010901637775949968,3.8140976149502475e-05,-0.001090830782496456,4.979335679048159,54.734365324221656,-37.5
1772911882.152764,6.620274514829448e-05,0.561494703828832,-9.213053371860358,-0.15128843521355528,-1.5735936007439277,9.760041786963491,3.8140976149502475e-05,0.0010901637775949968,-0.001090830782496456,4.979335679048159,54.734365324221656,-37.5
1772911882.1745272,6.620274514829448e-05,0.561494703828832,-9.213053371860358,-0.15259143350462542,-1.5742438159767882,9.760027808757412,-0.0010901637775949968,3.8140976149502475e-05,-0.001090830782496456,4.979335679048159,54.734365324221656,-37.5
1772911882.1966882,6.620274514829448e-05,0.561494703828832,-9.213053371860358,-0.15259143350462542,-1.5742438159767882,9.760027808757412,-0.0010901637775949968,3.8140976149502475e-05,-0.001090830782496456,4.979335679048159,54.734365324221656,-37.5
1772911882.2136536,6.620274514829448e-05,0.561494703828832,-9.213053371860358,-0.15345856431188798,-1.5746765269508765,9.760018506417413,-3.8140976149502475e-05,-0.0010901637775949968,0.0,4.6045649784427685,54.74747722598091,-45.75
1772911882.228308,6.620274514829448e-05,0.561494703828832,-9.213053371860358,-0.1540356301776354,-1.5749644912704341,9.756667204106739,-3.8140976149502475e-05,-0.0010901637775949968,0.001090830782496456,4.6045649784427685,54.74747722598091,-45.75
1772911882.248193,6.620274514829448e-05,0.561494703828832,-9.213053371860358,-0.15107659477662788,-1.5752730903778744,9.754436949855485,3.8140976149502475e-05,0.0010901637775949968,-0.003272492347489368,4.6045649784427685,54.74747722598091,-45.75
1772911882.2702675,6.620274514829448e-05,0.561494703828832,-9.213053371860358,-0.15107659477662788,-1.5752730903778744,9.754436949855485,3.8140976149502475e-05,0.0010901637775949968,-0.003272492347489368,4.6045649784427685,54.74747722598091,-45.75
1772911882.297302,6.620274514829448e-05,0.561494703828832,-9.213053371860358,-0.14910738977184865,-1.575478459636598,9.752952740564847,7.628195229900495e-05,0.0021803275551899935,-0.003272492347489368,4.6045649784427685,54.74747722598091,-38.1875
1772911882.3245323,6.620274514829448e-05,0.561494703828832,-9.213053371860358,-0.14779690583862928,-1.5756151305841537,9.755310127568952,3.8140976149502475e-05,0.0010901637775949968,0.0,4.6045649784427685,54.74747722598091,-38.1875
1772911882.3591232,6.620274514829448e-05,0.561494703828832,-9.213053371860358,-0.14779690583862928,-1.5756151305841537,9.755310127568952,3.8140976149502475e-05,0.0010901637775949968,0.0,4.6045649784427685,54.74747722598091,-38.1875
1772911882.3780653,6.620274514829448e-05,0.561494703828832,-9.213053371860358,-0.14358172713172218,-1.5758230456425844,9.756878942286445,0.0010520228014454943,-0.0011283047537444992,-0.001090830782496456,5.440606649646414,55.406147723279076,-38.5625
1772911882.395068,6.620274514829448e-05,0.561494703828832,-9.213053371860358,-0.14358172713172218,-1.5758230456425844,9.756878942286445,0.0010520228014454943,-0.0011283047537444992,-0.001090830782496456,5.440606649646414,55.406147723279076,-38.5625
1772911882.4134266,6.620274514829448e-05,0.561494703828832,-9.213053371860358,-0.14077657278890693,-1.5759614107914064,9.761268082663447,-0.0010138818252959918,0.0022184685313394958,-0.002181661564992912,5.440606649646414,55.406147723279076,-38.5625
1772911882.4577394,6.620274514829448e-05,0.561494703828832,-9.213053371860358,-0.1422528401978049,-1.5759365291827607,9.764189006554432,3.8140976149502475e-05,0.0010901637775949968,-0.002181661564992912,3.154832057696182,54.422968815452656,-37.75
1772911882.483346,6.620274514829448e-05,0.561494703828832,-9.213053371860358,-0.14323527966743904,-1.5759199707501528,9.762787737067704,-3.8140976149502475e-05,-0.0010901637775949968,-0.001090830782496456,3.154832057696182,54.422968815452656,-37.75
1772911882.5019581,6.620274514829448e-05,0.561494703828832,-9.213053371860358,-0.14323527966743904,-1.5759199707501528,9.762787737067704,-3.8140976149502475e-05,-0.0010901637775949968,-0.001090830782496456,3.154832057696182,54.422968815452656,-37.75
1772911882.5432098,6.620274514829448e-05,0.561494703828832,-9.213053371860358,-0.1476672467036157,-1.5757846559065105,9.759008485644566,-7.628195229900495e-05,-0.0021803275551899935,0.002181661564992912,4.591453076683514,54.37270652537552,-38.1875
1772911882.5686247,6.620274514829448e-05,0.561494703828832,-9.213053371860358,-0.1476672467036157,-1.5757846559065105,9.759008485644566,-7.628195229900495e-05,-0.0021803275551899935,0.002181661564992912,4.591453076683514,54.37270652537552,-38.1875
1772911882.5980062,6.620274514829448e-05,0.561494703828832,-9.213053371860358,-0.15018157300258678,-1.5757019387117972,9.7593401582724,0.0,0.0,0.0,4.591453076683514,54.37270652537552,-38.1875
1772911882.6321006,6.620274514829448e-05,0.561494703828832,-9.213053371860358,-0.15185482906768694,-1.5756468913427268,9.759560882701196,-0.0001525639045980099,-0.004360655110379987,0.001090830782496456,4.167332494403145,54.762774444700035,-37.0
1772911882.665777,6.620274514829448e-05,0.561494703828832,-9.213053371860358,-0.15296836228751615,-1.57561025793353,9.759707772342908,-3.8140976149502475e-05,-0.0010901637775949968,-0.001090830782496456,4.167332494403145,54.762774444700035,-37.0
1772911882.6910198,6.620274514829448e-05,0.561494703828832,-9.213053371860358,-0.15296836228751615,-1.57561025793353,9.759707772342908,-3.8140976149502475e-05,-0.0010901637775949968,-0.001090830782496456,4.167332494403145,54.762774444700035,-37.0
1772911882.727924,6.620274514829448e-05,0.561494703828832,-9.213053371860358,-0.1535924441367844,-1.572242812520517,9.759805525758603,0.0010520228014454943,-0.0011283047537444992,0.001090830782496456,4.979335679048159,54.734365324221656,-37.0
1772911882.7678156,6.620274514829448e-05,0.561494703828832,-9.213053371860358,-0.15400776363602142,-1.570001815214987,9.75987057956477,-3.8140976149502475e-05,-0.0010901637775949968,0.002181661564992912,4.979335679048159,54.734365324221656,-37.0
1772911882.7968917,6.620274514829448e-05,0.561494703828832,-9.213053371860358,-0.15428415412334084,-1.568510456541737,9.749878537024118,-3.8140976149502475e-05,-0.0010901637775949968,0.001090830782496456,4.178259079202523,55.075083361871194,-37.75
1772911882.816715,6.620274514829448e-05,0.561494703828832,-9.213053371860358,-0.15428415412334084,-1.568510456541737,9.749878537024118,-3.8140976149502475e-05,-0.0010901637775949968,0.001090830782496456,4.178259079202523,55.075083361871194,-37.75
1772911882.8371239,6.620274514829448e-05,0.561494703828832,-9.213053371860358,-0.1545850509747148,-1.5708610402926713,9.743228944331742,0.0011283047537444992,0.0010520228014454943,0.0,4.178259079202523,55.075083361871194,-37.75
1772911882.8678706,6.620274514829448e-05,0.561494703828832,-9.213053371860358,-0.15478529446806613,-1.5724253275211773,9.742148826383103,-0.0021803275551899935,7.628195229900495e-05,-0.001090830782496456,5.6664152968247095,54.710326837663025,-37.75
1772911882.894874,6.620274514829448e-05,0.561494703828832,-9.213053371860358,-0.15837858263398633,-1.576692447416382,9.74812024336863,0.0022566095074889984,0.0021040456028909886,0.0,5.6664152968247095,54.710326837663025,-37.75
1772911882.924079,6.620274514829448e-05,0.561494703828832,-9.213053371860358,-0.15837858263398633,-1.576692447416382,9.74812024336863,0.0022566095074889984,0.0021040456028909886,0.0,5.6664152968247095,54.710326837663025,-37.75
1772911882.9398565,6.620274514829448e-05,0.561494703828832,-9.213053371860358,-0.15730984741078607,-1.5763060638209208,9.7520941546674,0.0010520228014454943,-0.0011283047537444992,0.0,4.979335679048159,54.734365324221656,-37.75
1772911882.962123,6.620274514829448e-05,0.561494703828832,-9.213053371860358,-0.15325554976988662,-1.576165891923876,9.754738748245234,0.0,0.0,0.0,4.979335679048159,54.734365324221656,-37.75
1772911882.9846756,6.620274514829448e-05,0.561494703828832,-9.213053371860358,-0.15325554976988662,-1.576165891923876,9.754738748245234,0.0,0.0,0.0,4.979335679048159,54.734365324221656,-37.75
1772911883.0281553,6.620274514829448e-05,0.561494703828832,-9.213053371860358,-0.1505574599793402,-1.5760726090922152,9.756498695729237,-0.0010901637775949968,3.8140976149502475e-05,-0.001090830782496456,3.917485360666218,54.77151571253954,-37.375
1772911883.055041,6.620274514829448e-05,0.561494703828832,-9.213053371860358,-0.14876191136336933,-1.5760105304097825,9.757669921119938,-0.0021803275551899935,7.628195229900495e-05,0.001090830782496456,3.917485360666218,54.77151571253954,-37.375
1772911883.0704699,6.620274514829448e-05,0.561494703828832,-9.213053371860358,-0.14876191136336933,-1.5760105304097825,9.757669921119938,-0.0021803275551899935,7.628195229900495e-05,0.001090830782496456,3.917485360666218,54.77151571253954,-37.375
1772911883.0956392,6.620274514829448e-05,0.561494703828832,-9.213053371860358,-0.14756699381703298,-1.575969217740088,9.761794470241325,-0.002142186579040491,0.0011664457298940017,0.0,3.917485360666218,54.77151571253954,-37.375
1772911883.1342816,6.620274514829448e-05,0.561494703828832,-9.213053371860358,-0.14677178953804976,-1.5759417246198988,9.764539311607376,-3.8140976149502475e-05,-0.0010901637775949968,0.001090830782496456,4.191370980961778,55.44985406247659,-37.75
1772911883.1677678,6.620274514829448e-05,0.561494703828832,-9.213053371860358,-0.1428995236849859,-1.5760403903250781,9.766365972874594,-3.8140976149502475e-05,-0.0010901637775949968,0.001090830782496456,4.191370980961778,55.44985406247659,-37.75
1772911883.187782,6.620274514829448e-05,0.561494703828832,-9.213053371860358,-0.1428995236849859,-1.5760403903250781,9.766365972874594,-3.8140976149502475e-05,-0.0010901637775949968,0.001090830782496456,4.191370980961778,55.44985406247659,-37.75
1772911883.2127712,6.620274514829448e-05,0.561494703828832,-9.213053371860358,-0.14032257401581574,-1.576106051249707,9.770926707250105,-0.0010138818252959918,0.0022184685313394958,0.001090830782496456,4.580526491884137,54.060397608204354,-38.5625
1772911883.238972,6.620274514829448e-05,0.561494703828832,-9.213053371860358,-0.14032257401581574,-1.576106051249707,9.770926707250105,-0.0010138818252959918,0.0022184685313394958,0.001090830782496456,4.580526491884137,54.060397608204354,-38.5625
1772911883.2559419,6.620274514829448e-05,0.561494703828832,-9.213053371860358,-0.13860764279739696,-1.576149747861567,9.767271601615628,3.8140976149502475e-05,0.0010901637775949968,-0.001090830782496456,4.580526491884137,54.060397608204354,-38.5625
1772911883.2706447,6.620274514829448e-05,0.561494703828832,-9.213053371860358,-0.1408094415169906,-1.5760618653990897,9.764839169646088,-0.0021040456028909886,0.0022566095074889984,0.001090830782496456,4.580526491884137,54.060397608204354,-38.5625
1772911883.2897394,6.620274514829448e-05,0.561494703828832,-9.213053371860358,-0.1408094415169906,-1.5760618653990897,9.764839169646088,-0.0021040456028909886,0.0022566095074889984,0.001090830782496456,4.580526491884137,54.060397608204354,-38.5625
1772911883.3361406,6.620274514829448e-05,0.561494703828832,-9.213053371860358,-0.14227471396917685,-1.5760033806020224,9.759875301635086,-0.002142186579040491,0.0011664457298940017,0.001090830782496456,4.591453076683514,54.37270652537552,-38.5625
1772911883.3617918,6.620274514829448e-05,0.561494703828832,-9.213053371860358,-0.14227471396917685,-1.5760033806020224,9.759875301635086,-0.002142186579040491,0.0011664457298940017,0.001090830782496456,4.591453076683514,54.37270652537552,-38.5625
1772911883.3882747,6.620274514829448e-05,0.561494703828832,-9.213053371860358,-0.143249836417941,-1.575964459622892,9.756571902923802,-0.002218468531339496,-0.0010138818252959918,0.0,4.591453076683514,54.37270652537552,-38.5625
1772911883.4265018,6.620274514829448e-05,0.561494703828832,-9.213053371860358,-0.14389876951476208,-1.5759385581460565,9.757718639690143,0.0,0.0,0.001090830782496456,4.591453076683514,54.37270652537552,-38.5625
1772911883.468244,6.620274514829448e-05,0.561494703828832,-9.213053371860358,-0.15101675981846754,-1.5756873968634675,9.758481780198254,-0.0012045867060435042,-0.003232350356635488,0.002181661564992912,4.591453076683514,54.37270652537552,-38.5625
1772911883.4933345,6.620274514829448e-05,0.561494703828832,-9.213053371860358,-0.15101675981846754,-1.5756873968634675,9.758481780198254,-0.0012045867060435042,-0.003232350356635488,0.002181661564992912,4.591453076683514,54.37270652537552,-38.5625
1772911883.5169652,6.620274514829448e-05,0.561494703828832,-9.213053371860358,-0.1557537028524219,-1.5755202518355595,9.748954306559607,0.0011283047537444992,0.0010520228014454943,0.002181661564992912,3.8934468741075863,54.08443609476299,-38.5625
1772911883.5384943,6.620274514829448e-05,0.561494703828832,-9.213053371860358,-0.15890608552639768,-1.5754090186866192,9.742613879281942,-0.00011442292844850743,-0.0032704913327849905,0.001090830782496456,3.8934468741075863,54.08443609476299,-38.5625
1772911883.55752,6.620274514829448e-05,0.561494703828832,-9.213053371860358,-0.16100396098150674,-1.575334994268555,9.741739507463187,3.8140976149502475e-05,0.0010901637775949968,0.001090830782496456,3.8934468741075863,54.08443609476299,-38.5625
1772911883.5860085,6.620274514829448e-05,0.561494703828832,-9.213053371860358,-0.16100396098150674,-1.575334994268555,9.741739507463187,3.8140976149502475e-05,0.0010901637775949968,0.001090830782496456,3.8934468741075863,54.08443609476299,-38.5625
1772911883.6002707,6.620274514829448e-05,0.561494703828832,-9.213053371860358,-0.1589400453041162,-1.5720596276263727,9.74115762278518,-0.002218468531339496,-0.0010138818252959918,0.001090830782496456,5.6664152968247095,54.710326837663025,-38.1875
1772911883.620329,6.620274514829448e-05,0.561494703828832,-9.213053371860358,-0.1589400453041162,-1.5720596276263727,9.74115762278518,-0.002218468531339496,-0.0010138818252959918,0.001090830782496456,5.6664152968247095,54.710326837663025,-38.1875
1772911883.6344972,-0.02781738670589765,0.5592505159021841,-9.21322874486536,-0.15744957040671465,-1.5665368414258292,9.740770385032043,0.005412677911825481,-0.001280868658342509,-0.018544123302439753,5.6664152968247095,54.710326837663025,-38.1875
1772911883.6509373,-0.05570119798549747,0.5570062236343005,-9.213403027064862,-0.15645767601218943,-1.5628614889029313,9.753893129462337,0.007745569371613485,0.003003504499738473,-0.020725784867432664,5.6664152968247095,54.710326837663025,-38.1875
1772911883.669587,-0.05570119798549747,0.5570062236343005,-9.213403027064862,-0.15645767601218943,-1.5628614889029313,9.753893129462337,0.007745569371613485,0.003003504499738473,-0.020725784867432664,5.6664152968247095,54.710326837663025,-38.1875
1772911883.6877563,-0.04171570115037396,0.5580117555146833,-9.206345035387091,-0.11614863419003485,-1.5751913928435415,9.762626169290037,0.008454323387713457,-0.007936274252360997,0.008726646259971648,4.178259079202523,55.075083361871194,-37.75
1772911883.7173865,-0.013831727780336579,0.5602543109725899,-9.20617026323368,-0.08932341713889184,-1.5833968061819657,9.775128133155564,0.004284373158080982,-0.0023328914597880034,0.15707963267948966,4.178259079202523,55.075083361871194,-37.75
1772911883.7425191,-0.013831727780336579,0.5602543109725899,-9.20617026323368,-0.08932341713889184,-1.5833968061819657,9.775128133155564,0.004284373158080982,-0.0023328914597880034,0.15707963267948966,4.178259079202523,55.075083361871194,-37.75
1772911883.7613356,-0.020802700299063743,0.5596936818925334,-9.206214058458524,-0.11158833030963726,-1.5874538722636509,9.773412715330027,-0.006540982665569981,0.00022884585689701486,-0.009817477042468103,4.6045649784427685,54.74747722598091,-39.0
1772911883.7839375,-0.020802700299063743,0.5596936818925334,-9.206214058458524,-0.12734107786576715,-1.6168983347279295,9.758890677100327,0.00011442292844850743,0.0032704913327849905,0.002181661564992912,4.6045649784427685,54.74747722598091,-39.0
1772911883.8141763,-0.020802700299063743,0.5596936818925334,-9.206214058458524,-0.12734107786576715,-1.6168983347279295,9.758890677100327,0.00011442292844850743,0.0032704913327849905,0.002181661564992912,4.6045649784427685,54.74747722598091,-39.0
1772911883.8334656,-0.03530535215787045,0.5655430791862637,-9.206184421373734,-0.13782435539465135,-1.6364932955817098,9.749226422880259,0.002561737316685018,0.010825355823650962,-0.019634954084936207,4.615491563242147,55.05978614315207,-38.1875
1772911883.8505735,-0.03530535215787045,0.5655430791862637,-9.206184421373734,-0.13782435539465135,-1.6364932955817098,9.749226422880259,0.002561737316685018,0.010825355823650962,-0.019634954084936207,4.615491563242147,55.05978614315207,-38.1875
1772911883.8820252,-0.03481812579832607,0.5584117434593776,-9.198770186503214,-0.15008344722650616,-1.6091828035397793,9.742794969653596,0.00034326878534552226,0.00981147399835497,-0.003272492347489368,4.615491563242147,55.05978614315207,-38.1875
1772911883.9042993,-0.03481812579832607,0.5584117434593776,-9.198770186503214,-0.15824173589757687,-1.5910079761640603,9.75524046791189,-0.0010138818252959918,0.0022184685313394958,0.0,4.979335679048159,54.734365324221656,-37.0
1772911883.9238222,-0.03481812579832607,0.5584117434593776,-9.198770186503214,-0.16390491001321247,-1.5855989641484727,9.746797249440862,-0.006502841689420479,0.0013190096344920116,0.003272492347489368,4.979335679048159,54.734365324221656,-37.0
1772911883.9393392,-0.03481812579832607,0.5584117434593776,-9.198770186503214,-0.16779065119491493,-1.5853423933631368,9.757903940401919,-3.8140976149502475e-05,-0.0010901637775949968,-0.009817477042468103,4.979335679048159,54.734365324221656,-37.0
1772911883.9648647,-0.03481812579832607,0.5584117434593776,-9.198770186503214,-0.16779065119491493,-1.5853423933631368,9.757903940401919,-3.8140976149502475e-05,-0.0010901637775949968,-0.009817477042468103,4.979335679048159,54.734365324221656,-37.0
1772911883.9859998,-0.048759461570538065,0.5572914182237502,-9.19885725967076,-0.1703765685447648,-1.5851716483715792,9.748569760630039,0.005374536935675978,-0.0023710324359375056,-0.01090830782496456,4.9662237772889055,54.35959462361626,-38.1875
1772911884.019524,-0.04811319190586208,0.5500885122945868,-9.185032014652412,-0.16470956266039002,-1.565233545895652,9.769118861920028,-3.8140976149502475e-05,-0.0010901637775949968,-0.00545415391248228,4.9662237772889055,54.35959462361626,-38.1875
1772911884.0485787,-0.04811319190586208,0.5500885122945868,-9.185032014652412,-0.16093823354894224,-1.5519649614211204,9.776103835865374,0.00011442292844850743,0.0032704913327849905,0.001090830782496456,4.615491563242147,55.05978614315207,-37.75
1772911884.0715292,-0.04811319190586208,0.5500885122945868,-9.185032014652412,-0.16093823354894224,-1.5519649614211204,9.776103835865374,0.00011442292844850743,0.0032704913327849905,0.001090830782496456,4.615491563242147,55.05978614315207,-37.75
1772911884.0987387,-0.04811319190586208,0.5500885122945868,-9.185032014652412,-0.16333960039931433,-1.566033041814426,9.780500619294884,0.0021040456028909886,-0.0022566095074889984,-0.002181661564992912,4.615491563242147,55.05978614315207,-37.75
1772911884.1245065,-0.04811319190586208,0.5500885122945868,-9.185032014652412,-0.16333960039931433,-1.566033041814426,9.780500619294884,0.0021040456028909886,-0.0022566095074889984,-0.002181661564992912,4.615491563242147,55.05978614315207,-37.75
1772911884.1394258,-0.04811319190586208,0.5500885122945868,-9.185032014652412,-0.1576191692356387,-1.5793585094009717,9.760262486304546,0.005374536935675978,-0.0023710324359375056,0.0,4.615491563242147,55.05978614315207,-38.1875
1772911884.1530814,-0.04811319190586208,0.5500885122945868,-9.185032014652412,-0.1535783620585218,-1.5815403266477628,9.76686490511815,0.004246232181931479,-0.0034230552373830003,-0.001090830782496456,4.615491563242147,55.05978614315207,-38.1875
1772911884.1713436,-0.04811319190586208,0.5500885122945868,-9.185032014652412,-0.1535783620585218,-1.5815403266477628,9.76686490511815,0.004246232181931479,-0.0034230552373830003,-0.001090830782496456,4.615491563242147,55.05978614315207,-38.1875
1772911884.1883132,-0.04811319190586208,0.5500885122945868,-9.185032014652412,-0.15065532588183042,-1.576306169076178,9.757878294255475,-0.0031179274281869806,0.004475078038828495,0.008726646259971648,4.615491563242147,55.05978614315207,-38.1875
1772911884.2269986,-0.04811319190586208,0.5500885122945868,-9.185032014652412,-0.15065532588183042,-1.576306169076178,9.757878294255475,-0.0031179274281869806,0.004475078038828495,0.008726646259971648,4.615491563242147,55.05978614315207,-38.1875
1772911884.2505262,-0.027200820102358903,0.551766506753407,-9.184902649181721,-0.1446652392529999,-1.5528814600207201,9.771968475357303,0.00026698683304651733,0.007631146443164977,0.00545415391248228,5.677341881624088,55.022635754834184,-37.75
1772911884.2707875,-0.020230057193252347,0.552325825339003,-9.184859391429972,-0.14138067593244685,-1.557350975545945,9.761274663239016,-0.003461196213532503,-0.0053363959595264755,0.006544984694978736,5.677341881624088,55.022635754834184,-37.75
1772911884.295683,-0.04815621864434958,0.5502047920440829,-9.192002791929436,-0.13942875987268905,-1.5670115207770507,9.774228720975922,0.005298254983376973,-0.004551359991127499,-0.018544123302439753,5.677341881624088,55.022635754834184,-37.75
1772911884.3142016,-0.04815621864434958,0.5502047920440829,-9.192002791929436,-0.13942875987268905,-1.5670115207770507,9.774228720975922,0.005298254983376973,-0.004551359991127499,-0.018544123302439753,5.677341881624088,55.022635754834184,-37.75
1772911884.3516405,-0.0347745280576629,0.5582946959308817,-9.19179949837428,-0.1381297815392513,-1.5734405057129905,9.789539725108165,0.008492464363862959,-0.006846110474766001,0.017453292519943295,5.403456261328528,54.344297404897134,-43.75
1772911884.3728385,-0.014422159181343402,0.5669442181568031,-9.191550133931777,-0.13679747769069947,-1.5643466582177337,9.79972902732305,0.005374536935675978,-0.0023710324359375056,0.016362461737446838,5.403456261328528,54.344297404897134,-43.75
1772911884.3916829,-0.02139285312949163,0.5663845140881092,-9.191594315985718,-0.09913711518973954,-1.5595813870595892,9.803164782417772,-0.003156068404336483,0.0033849142612334977,-0.014180800172453928,5.403456261328528,54.344297404897134,-43.75
1772911884.4162595,-0.02139285312949163,0.5663845140881092,-9.191594315985718,-0.09913711518973954,-1.5595813870595892,9.803164782417772,-0.003156068404336483,0.0033849142612334977,-0.014180800172453928,5.403456261328528,54.344297404897134,-43.75
1772911884.4374862,-0.028363560981828576,0.5658248034434438,-9.191638430032187,-0.07407456463916491,-1.5564101523354108,9.802106127346091,-0.002218468531339496,-0.0010138818252959918,0.0,3.917485360666218,54.77151571253954,-38.1875
1772911884.4563262,-0.0347745280576629,0.5582946959308817,-9.19179949837428,-0.057395717214791385,-1.554299731051483,9.80140160422184,-0.0055271008402739885,-0.001989622674442481,0.002181661564992912,3.917485360666218,54.77151571253954,-38.1875
1772911884.472454,-0.0673890273188524,0.5276140741027155,-9.19247694767895,-0.15327425179806362,-1.5491524830364778,9.80093275195269,-0.006442484267862048,-0.028153553336722405,-0.025089107997418487,3.917485360666218,54.77151571253954,-38.1875
1772911884.4867005,-0.0673890273188524,0.5276140741027155,-9.19247694767895,-0.15327425179806362,-1.5491524830364778,9.80093275195269,-0.006442484267862048,-0.028153553336722405,-0.025089107997418487,3.917485360666218,54.77151571253954,-38.1875
1772911884.5192797,-0.09583206338362409,0.5323452530720104,-9.192529163586428,-0.21719730759936975,-1.5490701132694338,9.680196714541495,-0.0019514816982929787,0.0066172646178689854,-0.039269908169872414,3.904373458906964,54.39674501193415,-37.0625
1772911884.5445895,-0.08701982578945418,0.5964266793290364,-9.20536112226293,-0.20606323614254132,-1.641266442079082,9.599848230354254,-0.007348235079377885,0.0395510238026159,0.016362461737446838,3.904373458906964,54.39674501193415,-37.0625
1772911884.5889888,-0.05415299381860206,0.7115966534671165,-9.217737739662951,-0.1986536359637496,-1.702622069001428,9.670146344849842,-0.04009128938337729,0.03960508930950598,0.003272492347489368,4.167332494403145,54.762774444700035,-37.375
1772911884.6124814,-0.05415299381860206,0.7115966534671165,-9.217737739662951,-0.1986536359637496,-1.702622069001428,9.670146344849842,-0.04009128938337729,0.03960508930950598,0.003272492347489368,4.167332494403145,54.762774444700035,-37.375
1772911884.6486099,-0.07649332220925457,0.7635729553877146,-8.676726608406373,-0.2946482625440331,-1.8537259071202146,9.910945433789786,0.29070824338710965,0.010567612118537281,0.0,4.167332494403145,54.762774444700035,-37.375
1772911884.6635542,-0.40132163937499254,0.8544916326974699,-7.940989372975533,-0.5582775624083499,-2.114653337834792,10.087920096113843,0.46269676603014487,0.09077869924536913,-0.2650718801466388,4.178259079202523,55.075083361871194,-36.5625
1772911884.6772585,-0.40132163937499254,0.8544916326974699,-7.940989372975533,-0.5582775624083499,-2.114653337834792,10.087920096113843,0.46269676603014487,0.09077869924536913,-0.2650718801466388,4.178259079202523,55.075083361871194,-36.5625
1772911884.7059581,-1.1049729354983078,1.1065781895745581,-7.060218766082445,-0.7924915648927079,-2.246075515512142,10.229110538905225,0.5483112879408694,0.19802466757125112,-0.4079707126536745,4.178259079202523,55.075083361871194,-36.5625
1772911884.7466922,-2.2183877365921814,1.7258382726675365,-5.8744004932257115,-0.9483583672042102,-2.3335355066745014,10.32641631308962,0.5446245865718436,0.34223141402298674,-0.46687557490848314,4.154220592643892,54.38800374409465,-37.5
1772911884.7681794,-3.3298095829483327,2.5665780094284583,-5.1106176125733835,-0.9398934023658235,-2.3421098414813537,10.401207553954574,0.43051658324045516,0.38770058104344385,-0.433059820651093,4.154220592643892,54.38800374409465,-37.5
1772911884.7832165,-3.8708897324623392,3.0318296760166326,-5.180190646766264,-0.9328565179911671,-2.307699170052746,10.467705847813894,0.32859737825802743,0.3759853989390176,-0.433059820651093,4.154220592643892,54.38800374409465,-37.5
1772911884.8094866,-3.8708897324623392,3.0318296760166326,-5.180190646766264,-0.9328565179911671,-2.307699170052746,10.467705847813894,0.32859737825802743,0.3759853989390176,-0.433059820651093,4.154220592643892,54.38800374409465,-37.5
1772911884.856241,-6.086937494776957,3.9553527246594156,-5.415813944545224,-0.947211483358187,-2.2654373509901546,10.680691331359867,0.05101219239147171,0.14775051653223545,-0.47778388273344774,3.812590146592188,51.77335010769641,-37.0
1772911884.8767872,-6.086937494776957,3.9553527246594156,-5.415813944545224,-0.947211483358187,-2.2654373509901546,10.680691331359867,0.05101219239147171,0.14775051653223545,-0.47778388273344774,3.812590146592188,51.77335010769641,-37.0
1772911884.898367,-6.536697207382598,3.962212483680303,-5.432605070476744,-0.8109921526637127,-2.174082357193155,10.560036051833816,0.004224015736522552,0.02713967151142641,-0.3916082509162277,3.812590146592188,51.77335010769641,-37.0
1772911884.917223,-6.536697207382598,3.962212483680303,-5.432605070476744,-0.8109921526637127,-2.174082357193155,10.560036051833816,0.004224015736522552,0.02713967151142641,-0.3916082509162277,3.812590146592188,51.77335010769641,-37.0
1772911884.9590492,-7.4808301980333125,3.523172774618648,-5.796134103055157,-0.7098426626127372,-2.1002652503783823,10.419529300385266,-0.045278462139709624,-0.10865718444341357,-0.34579335805137656,2.2370212505749767,49.63963529453531,-37.0
1772911884.9998517,-7.904783341228012,2.97168650627089,-6.166992042936322,-0.6405404517153542,-1.9943086634812195,10.309298068322914,-0.06554685551769662,-0.34480317344388334,-0.25743606466916363,2.2370212505749767,49.63963529453531,-37.0
1772911885.048003,-8.391718038083651,1.7629003776335932,-6.883963205064078,-0.6512527314226104,-1.9218073833314893,10.235940414748963,-0.04889890366064788,-0.4305224856669841,-0.17671458676442586,1.4341198339250183,46.35319925907966,-32.6875
1772911885.0680192,-8.505163575864538,1.237321059259141,-7.248729789685435,-0.7027771922095464,-1.8987826146874143,10.213882609412739,-0.09422809060584371,-0.41583859933756506,-0.09926560120717749,1.4341198339250183,46.35319925907966,-32.6875
1772911885.0997412,-8.511155329363985,0.823053660281632,-7.6185519323923145,-0.7370661452973126,-1.883459888358301,10.199203386363312,-0.10368037128811258,-0.37403096602746017,-0.050178215994836975,1.4341198339250183,46.35319925907966,-32.6875
1772911885.1377206,-8.313865418724047,0.36084627599462016,-7.962553155096207,-0.722760445163319,-1.8645201690521176,10.182744303986945,-0.12102115263052073,-0.2457189845258555,0.06435901616729091,-0.6351392869330289,39.04608300567669,-28.25
1772911885.174956,-8.313865418724047,0.36084627599462016,-7.962553155096207,-0.722760445163319,-1.8645201690521176,10.182744303986945,-0.12102115263052073,-0.2457189845258555,0.06435901616729091,-0.6351392869330289,39.04608300567669,-28.25
1772911885.1953871,-7.339625680656146,-0.03688226593215994,-8.309693811827158,-0.6560571484176029,-1.8438751537414346,9.977774489500945,-0.09165337997168259,-0.15506061063546384,0.36106498900632694,-0.6351392869330289,39.04608300567669,-28.25
1772911885.2262578,-7.339625680656146,-0.03688226593215994,-8.309693811827158,-0.6560571484176029,-1.8438751537414346,9.977774489500945,-0.09165337997168259,-0.15506061063546384,0.36106498900632694,-0.6351392869330289,39.04608300567669,-28.25
1772911885.2468975,-6.336493479852351,-0.6057054638582656,-8.3906752643845,-0.6104972288625068,-1.7967054637879636,9.590485989574411,-0.03272751926139822,-0.34267691139558343,0.40906154343617096,-0.5785124540673178,31.727127759072186,-28.0
1772911885.26027,-5.557133427646152,-1.0786790448390648,-8.518678233323937,-0.5734914787594101,-1.7655484861829847,9.332749819169319,-0.09517198239350906,-0.3492241859758218,0.4112432050011639,-0.5785124540673178,31.727127759072186,-28.0
1772911885.2805178,-4.9441074119465185,-1.2883914510224694,-8.630185781365169,-0.47185707874403676,-1.744160926944281,9.392041984671438,-0.10248836841140578,-0.24636738112039702,0.5421428989007386,-0.5785124540673178,31.727127759072186,-28.0
1772911885.3045526,-4.231347226277297,-1.419204194486052,-8.746745514201677,-0.2844254057134687,-1.4629991241191016,9.43819048189085,-0.09750153315189318,-0.1974244340570707,0.6392268385429232,-2.221826175840673,27.6570976594499,-29.875
1772911885.336794,-4.231347226277297,-1.419204194486052,-8.746745514201677,-0.2844254057134687,-1.4629991241191016,9.43819048189085,-0.09750153315189318,-0.1974244340570707,0.6392268385429232,-2.221826175840673,27.6570976594499,-29.875
1772911885.3791156,-2.158377773526204,-1.3242605580298927,-9.065457510768994,-0.14774229535416103,-1.1256850262825233,9.465556679570557,-0.08900572808662635,-0.048186419455004646,0.6032294227205401,-2.221826175840673,27.6570976594499,-29.875
1772911885.40412,-0.8106699449193865,-0.6526215352355201,-8.716228585753434,-0.05678121226042805,-0.9012062622176464,9.483768578425945,0.21661229627353493,0.2325511046263443,0.657770961845363,-3.5043935071700534,21.38560792091037,-34.6875
1772911885.4198968,0.03304622746964744,0.15157568910610908,-8.118699345775761,-0.0496004314958542,-0.9373923955021167,9.425641047820257,0.3901042415171413,0.38693146960578545,0.5781403147231217,-3.5043935071700534,21.38560792091037,-34.6875
1772911885.4428785,0.03304622746964744,0.15157568910610908,-8.118699345775761,-0.0496004314958542,-0.9373923955021167,9.425641047820257,0.3901042415171413,0.38693146960578545,0.5781403147231217,-3.5043935071700534,21.38560792091037,-34.6875
1772911885.4878109,0.4307607042205614,0.6981229308307474,-7.763627799813439,-0.059129663821640234,-0.9877505450064639,9.373577378699958,0.3051636733477711,0.423739683827041,0.38942658935123475,-3.5043935071700534,21.38560792091037,-34.6875
1772911885.516481,0.9650252583569288,2.1160211317318223,-6.989141882062752,-0.06453556492957545,-0.9945188006569031,9.295443136294537,0.21939029561778026,0.3743486776659929,0.16907877128695067,-4.615233207071419,18.235022037122555,-43.0
1772911885.5429358,1.3735386701454115,2.9095000745590065,-6.665623968794886,0.11213922909359356,-0.8212363809395523,9.243445670790408,0.14000533664876136,0.3203681705376677,0.2378011105842274,-4.615233207071419,18.235022037122555,-43.0
1772911885.5766747,1.3735386701454115,2.9095000745590065,-6.665623968794886,0.11213922909359356,-0.8212363809395523,9.243445670790408,0.14000533664876136,0.3203681705376677,0.2378011105842274,-4.615233207071419,18.235022037122555,-43.0
1772911885.602112,1.8621252243888404,3.4887807880758666,-6.565394196278158,0.2490516616297995,-0.5358903338781714,9.362717076883849,0.025108956647569944,0.21851266367820232,0.24107360293171676,-2.804753895880857,16.358070808733565,-48.0
1772911885.6252844,2.1445799598444277,3.742758441847736,-6.723972455442232,0.3401653560705616,-0.34599572708302395,9.44209086529013,-0.15628741378691627,0.11898375636385652,0.16798794050445423,-2.804753895880857,16.358070808733565,-48.0
1772911885.675887,2.6646186389957185,3.9944180205615263,-7.119548377535159,0.30034271746380803,-0.3165230761581717,9.498258346518515,-0.2190210801974825,0.1353680620892626,0.20943951023931956,-1.2663353881815316,17.42993530351272,-54.375
1772911885.698767,2.9667840062834023,3.886114576561127,-7.0931715887812,0.2656345568380955,-0.3401352938090582,9.535637177844128,-0.2681388076108158,0.16655696898720465,0.2879793265790644,-1.2663353881815316,17.42993530351272,-54.375
1772911885.7241127,3.5747278317373055,4.230814197542678,-7.5915911950543125,0.22547044600652974,-0.36529334940747765,9.684281505713237,-0.3437415180263656,0.15828705856557035,0.47778388273344774,-1.2663353881815316,17.42993530351272,-54.375
1772911885.7370968,3.5747278317373055,4.230814197542678,-7.5915911950543125,0.22547044600652974,-0.36529334940747765,9.684281505713237,-0.3437415180263656,0.15828705856557035,0.47778388273344774,-1.2663353881815316,17.42993530351272,-54.375
1772911885.7507496,4.15409575211257,4.295449659421939,-7.786768080653959,0.1783323949715115,-0.39136318082229204,9.783202645444188,-0.3640669281245072,0.10769775761314704,0.5857761302005968,-0.6023818485614518,18.532394235730138,-56.6875
1772911885.764711,4.850092463053345,4.435434493600743,-8.120809956935135,0.14696254857423902,-0.4087123624097526,9.7453350959867,-0.3474030517367178,0.05363133591645067,0.6370451769779303,-0.6023818485614518,18.532394235730138,-56.6875
1772911885.77939,4.850092463053345,4.435434493600743,-8.120809956935135,0.14696254857423902,-0.4087123624097526,9.7453350959867,-0.3474030517367178,0.05363133591645067,0.6370451769779303,-0.6023818485614518,18.532394235730138,-56.6875
1772911885.7985091,6.041217697846543,4.423999834087582,-8.49638065753588,0.18589127859116342,-0.24160386249152685,9.536153520928421,-0.3091965947154068,-0.07104466902161456,0.7003133623627247,-0.6023818485614518,18.532394235730138,-56.6875
1772911885.829569,7.340816844373343,4.303423050064219,-8.631888088406548,0.26129096919239936,-0.055141966860331876,9.206274152121232,-0.10050503765163166,-0.18967886468545722,0.7973973020049093,1.7598788369844272,21.70173556375467,-58.875
1772911885.859304,8.939314101141983,4.276132443028958,-8.507333560386062,0.3114686210177899,0.06894634176637557,8.786036414734886,0.03428756909398455,-0.14309436622873167,1.0221084431991792,1.7598788369844272,21.70173556375467,-58.875
1772911885.881238,10.90892816122512,4.374498412525072,-8.268643845893946,0.2893350382611152,-0.0005008932236390381,8.506372894867386,0.04870446859035711,-0.10539632572670081,1.1802789066611654,1.7598788369844272,21.70173556375467,-58.875
1772911885.9056773,13.091660339173071,4.503312107233847,-8.081826114344516,0.1465843369403003,-0.16608310843114207,8.510931313758984,0.004830930653510722,-0.11150183312388569,1.3100877697782436,0.7133257373216151,22.17611843611218,-59.75
1772911885.9222314,13.091660339173071,4.503312107233847,-8.081826114344516,0.1465843369403003,-0.16608310843114207,8.510931313758984,0.004830930653510722,-0.11150183312388569,1.3100877697782436,0.7133257373216151,22.17611843611218,-59.75
1772911885.9565647,16.01766308649,4.657881782442647,-7.873028139371588,-0.13050805245883587,-0.401196125932569,8.82240224208354,0.016304683071703224,-0.09553078622145575,1.3122694313432366,0.7133257373216151,22.17611843611218,-59.75
1772911885.9766862,16.01766308649,4.657881782442647,-7.873028139371588,-0.13050805245883587,-0.401196125932569,8.82240224208354,0.016304683071703224,-0.09553078622145575,1.3122694313432366,0.7133257373216151,22.17611843611218,-59.75
1772911886.02249,19.16349008586775,4.944347973840808,-7.408185678289577,-0.13522391971124337,-0.4058798173630397,8.8918460111255,0.09951632348500908,-0.05696513588405857,1.4409874636778184,-0.6961590697450486,24.7894991639527,-62.0625
1772911886.047044,23.91968351803653,5.31983609474138,-6.4893773209396794,-0.10434680345615344,-0.39345105094315413,8.938060063685196,0.15012784088284128,-0.10785327273100954,1.8576848225914646,-0.6961590697450486,24.7894991639527,-62.0625
1772911886.065775,26.06332737354933,5.415809916599286,-6.1491853069647995,-0.08379842750837979,-0.38517984572913827,9.420405079906997,0.1205249304524378,-0.14283701201175739,1.9351338081487128,-0.6961590697450486,24.7894991639527,-62.0625
1772911886.078806,26.06332737354933,5.415809916599286,-6.1491853069647995,-0.08379842750837979,-0.38517984572913827,9.420405079906997,0.1205249304524378,-0.14283701201175739,1.9351338081487128,-0.6961590697450486,24.7894991639527,-62.0625
1772911886.0936148,29.310566384114267,5.541977999784745,-5.678070855852297,-0.17721879615434208,-0.3792757311175393,10.085946805909625,0.0979747599082884,-0.13222457751426286,1.9460421159736774,0.054294739867894945,26.576852396986794,-64.375
1772911886.120206,31.414193829806013,5.607235637823779,-5.425827567923446,-0.256104339356406,-0.3747617984490672,10.57903406558595,0.029904697538195642,-0.11237907557532424,1.8489581763314928,0.054294739867894945,26.576852396986794,-64.375
1772911886.1395216,33.358317005062744,5.715397440537532,-5.199641485207644,-0.2898981005237529,-0.3155105101268216,10.907178128754943,0.025232622703951286,-0.058732204616272383,1.7235126363444004,0.054294739867894945,26.576852396986794,-64.375
1772911886.1550286,33.358317005062744,5.715397440537532,-5.199641485207644,-0.2898981005237529,-0.3155105101268216,10.907178128754943,0.025232622703951286,-0.058732204616272383,1.7235126363444004,0.054294739867894945,26.576852396986794,-64.375
1772911886.1858566,37.106134186579716,6.105400670214891,-4.678144612713134,-0.11715420985807969,-0.14902362605622738,10.583646240598801,0.0713724027643589,0.04334585618542171,1.6875152205220174,-0.5694106860722623,28.41228260313815,-66.0
1772911886.2054276,39.779946155862326,6.685695413663869,-4.106755638729946,-0.002195080295770738,-0.03822846448760011,10.308127372387137,0.1953970598946181,0.2813192713396637,1.5947946040098187,-0.5694106860722623,28.41228260313815,-66.0
1772911886.2279317,39.779946155862326,6.685695413663869,-4.106755638729946,-0.002195080295770738,-0.03822846448760011,10.308127372387137,0.1953970598946181,0.2813192713396637,1.5947946040098187,-0.5694106860722623,28.41228260313815,-66.0
1772911886.2445824,42.18365966631337,7.525593799479497,-3.4257067738498446,-0.0034979903269266063,-0.1793386274131757,10.124772643339695,0.27413696297049933,0.47285111932570595,1.373355955163038,-0.5694106860722623,28.41228260313815,-66.0
1772911886.2657948,44.182942349336074,8.608903128920815,-2.69796870336766,-0.0075230382759694375,-0.3635086543235299,10.15662725790184,0.2716548483075172,0.6202902161340771,1.1464631524037752,-0.14127997002769488,31.71183054035306,-66.375
1772911886.2847135,45.293356969000264,9.408845361075114,-2.2685623708723686,-0.008846951617209338,-0.5430208388909598,10.177826148053589,0.25206374937228837,0.6842825347575768,0.9817477042468103,-0.14127997002769488,31.71183054035306,-66.375
1772911886.3143597,45.293356969000264,9.408845361075114,-2.2685623708723686,-0.008846951617209338,-0.5430208388909598,10.177826148053589,0.25206374937228837,0.6842825347575768,0.9817477042468103,-0.14127997002769488,31.71183054035306,-66.375
1772911886.3386,47.09912691166474,11.03658112917413,-1.470906076804612,0.08170440932593337,-0.6322115054317147,10.104960868252155,0.23955389868339097,0.7010926831352958,0.7930339788749234,3.1757505028662196,31.783394091782345,-68.0
1772911886.356452,48.216917031685824,12.094678400779436,-0.9753347580545971,0.23510333630602917,-0.7082141007905314,9.959461598990545,0.1578423401692524,0.5806121855736759,0.6337726846304409,3.1757505028662196,31.783394091782345,-68.0
1772911886.3724387,48.882576725974474,12.672925160755351,-0.7339452484143015,0.35724700636347606,-0.7594947514144862,9.86263346063028,0.0824207020183779,0.48392458623839835,0.5770494839406252,3.1757505028662196,31.783394091782345,-68.0
1772911886.3865142,48.882576725974474,12.672925160755351,-0.7339452484143015,0.35724700636347606,-0.7594947514144862,9.86263346063028,0.0824207020183779,0.48392458623839835,0.5770494839406252,3.1757505028662196,31.783394091782345,-68.0
1772911886.4065695,49.760160741397,13.299114084202106,-0.5623904198398947,0.43818136814387004,-0.8036506504275694,9.875132985461045,-0.0012423381940536197,0.3700613532946474,0.5181446216858165,5.812257308863211,32.06638148007296,-67.1875
1772911886.429362,49.760160741397,13.299114084202106,-0.5623904198398947,0.43818136814387004,-0.8036506504275694,9.875132985461045,-0.0012423381940536197,0.3700613532946474,0.5181446216858165,5.812257308863211,32.06638148007296,-67.1875
1772911886.4478307,50.80772194434108,13.56742035156243,-0.6395339173523201,0.4149178330400382,-0.8370319129443141,9.900176838143675,-0.16641994012520783,0.07895282440203767,0.4526947747360292,5.812257308863211,32.06638148007296,-67.1875
1772911886.4779403,51.53459757542674,12.47823061443274,-1.0724232405785288,0.38940701143390966,-0.8588958840474314,9.990435699906827,-0.2534712353002767,-0.19415060202288184,0.4636030825609938,8.321655231031864,32.291277718849095,-68.25
1772911886.501072,52.58752694589474,10.461023300537336,-1.7792626141542653,0.32046129091906134,-0.8281148577178583,10.050501964152655,-0.30039605132908326,-0.2874692116276665,0.4886921905584123,8.321655231031864,32.291277718849095,-68.25
1772911886.5430472,53.46095799768897,10.042397481302002,-2.2038067934150405,0.207717358322305,-0.8052911871511824,10.07709494519484,-0.35963038054996754,-0.2646583461651389,0.5061454830783556,7.634575613255312,32.315316205407726,-67.5
1772911886.5604405,53.46095799768897,10.042397481302002,-2.2038067934150405,0.207717358322305,-0.8052911871511824,10.07709494519484,-0.35963038054996754,-0.2646583461651389,0.5061454830783556,7.634575613255312,32.315316205407726,-67.5
1772911886.5871422,54.38385479551211,9.742537680600593,-2.6432422235816975,0.03873078832716973,-0.7968565502640943,9.930881803356701,-0.36040578390229433,-0.16203038716661117,0.5552328682906961,7.634575613255312,32.315316205407726,-67.5
1772911886.624432,55.67196959651146,9.489845977093815,-3.2415613541706016,-0.12457565304441504,-0.8095473603240868,9.539208760527128,-0.37549958835328573,-0.12548286786373375,0.5650503453331642,8.068349871777345,33.98867245637273,-68.25
1772911886.6492198,56.55789302734126,8.991586072718555,-3.8957174217927144,-0.25712357782181255,-0.8305464833202035,9.275209614091297,-0.3407287703986943,-0.1299738704333028,0.5214171140333059,8.068349871777345,33.98867245637273,-68.25
1772911886.6638155,57.130777886533494,8.869542889123322,-4.1406029654281,-0.40508891974555133,-0.926109467126606,9.099521131201948,-0.2994551107546824,-0.1357838826373639,0.5006913291658733,8.068349871777345,33.98867245637273,-68.25
1772911886.6878679,57.997693781701635,8.670268187395644,-4.457860194024873,-0.5341136467885456,-1.0020251718690265,9.099681318164212,-0.28149444117781003,-0.1527847358958304,0.5017821599483697,5.934635058616246,35.56424135238994,-69.0625
1772911886.7368696,59.634649137704194,8.365458626971193,-4.59260492476081,-0.619978161335019,-1.0525462253411197,9.099787920798192,-0.09593775312976358,-0.15272771917567582,0.5945027764605685,5.934635058616246,35.56424135238994,-69.0625
1772911886.766516,59.634649137704194,8.365458626971193,-4.59260492476081,-0.619978161335019,-1.0525462253411197,9.099787920798192,-0.09593775312976358,-0.15272771917567582,0.5945027764605685,5.934635058616246,35.56424135238994,-69.0625
1772911886.7993968,62.411298677549404,7.876044670036421,-4.64793190147567,-0.6797922887100563,-1.054032351452218,9.083192336798929,-0.10594622392353442,-0.09561965200309147,0.7581273938350369,3.675996678586683,37.14418088232691,-70.5625
1772911886.8356717,63.358268745198856,7.819163377460092,-4.668244489911358,-0.7341088499169857,-1.0999438772013945,9.262760496674195,-0.13968094360742087,-0.12390984471367132,0.8497571795647392,3.675996678586683,37.14418088232691,-70.5625
1772911886.8540509,63.358268745198856,7.819163377460092,-4.668244489911358,-0.7341088499169857,-1.0999438772013945,9.262760496674195,-0.13968094360742087,-0.12390984471367132,0.8497571795647392,3.675996678586683,37.14418088232691,-70.5625
1772911886.8753574,64.84647859804824,7.64885014077514,-4.751383356722019,-0.805324046502253,-1.1761307920644557,9.382261101163406,-0.14713730970057892,-0.1498449295190542,0.8846637646046258,4.033284843513068,36.6313747130938,-72.1875
1772911886.9081495,66.80772877423088,7.280101980906685,-4.80706852034974,-0.8527169643038773,-1.2268323328422202,9.461787418541757,-0.09698348401654072,-0.21381503169714516,0.8650288105196896,4.033284843513068,36.6313747130938,-72.1875
1772911886.9555705,68.71264083802421,6.853910953437322,-4.603366570739367,-0.8649679247151735,-1.1876109938591202,9.447809060243488,-0.004907602093949114,-0.2650623618601822,0.8268497331323136,0.8246078102107741,37.8693232968235,-73.75
1772911886.9710882,69.6414760479441,6.587488135785694,-4.498068458609188,-0.8065615287286032,-1.0768121867195501,9.438506618944484,0.0006194987463248727,-0.26307273918573976,0.806123948264881,0.8246078102107741,37.8693232968235,-73.75
1772911886.999539,71.00234325874423,6.298663511855589,-4.287591865730238,-0.7676927246417338,-1.0030768182719396,9.45573173012631,0.046841852673699835,-0.22102996810406947,0.7941248096574199,0.8246078102107741,37.8693232968235,-73.75
1772911887.036008,73.16108279807317,5.901300503960415,-3.755581609354445,-0.7414750835062727,-0.9439775553828472,9.487265519444632,0.12069971080244477,-0.16903908365018677,0.7592182246175333,-1.678234161078251,37.83181240835007,-76.5625
1772911887.085855,74.94056177082258,5.669227758432448,-3.4903890328039893,-0.619758837183838,-0.7944922643924999,9.575153138126856,0.021799934850496062,-0.1568469445998221,0.8028514559173916,-1.678234161078251,37.83181240835007,-76.5625
1772911887.1035166,74.94056177082258,5.669227758432448,-3.4903890328039893,-0.619758837183838,-0.7944922643924999,9.575153138126856,0.021799934850496062,-0.1568469445998221,0.8028514559173916,-1.678234161078251,37.83181240835007,-76.5625
1772911887.1221297,75.83878634033063,5.518615252809179,-3.3817807582746653,-0.5253857697621606,-0.6954793213767259,9.904595414883717,0.012163241202148033,-0.182705747452906,0.7886706557449377,-1.678234161078251,37.83181240835007,-76.5625
1772911887.1397085,77.04445577043064,5.237558171970491,-3.2480545051572935,-0.46258154760927256,-0.6295873138467731,10.123835569954046,0.0073830353541235174,-0.19454498510185295,0.6424993308904126,-4.93935880141756,37.5706781896582,-80.875
1772911887.1569924,77.04445577043064,5.237558171970491,-3.2480545051572935,-0.46258154760927256,-0.6295873138467731,10.123835569954046,0.0073830353541235174,-0.19454498510185295,0.6424993308904126,-4.93935880141756,37.5706781896582,-80.875
1772911887.1747475,77.04445577043064,5.237558171970491,-3.2480545051572935,-0.46258154760927256,-0.6295873138467731,10.123835569954046,0.0073830353541235174,-0.19454498510185295,0.6424993308904126,-4.93935880141756,37.5706781896582,-80.875
1772911887.2016904,78.13972746495976,4.9172282970754635,-3.1174599370046536,-0.42055211519656205,-0.5790507863207139,10.25301188554375,0.0017574361161415957,-0.16815220858267602,0.44724062082354693,-4.93935880141756,37.5706781896582,-80.875
1772911887.2231538,79.13398258603291,4.710127134873276,-3.016599691212615,-0.3477185908414763,-0.5068230032252616,10.201827700574608,0.014985673437211215,-0.10203362791087624,0.44178646691106466,-6.715785449652273,38.63344091644231,-81.1875
1772911887.2445261,79.91041668715404,4.553272691232173,-2.9619743504656,-0.2856425046941923,-0.45253793611380055,10.167765197242455,-0.017201190755286228,-0.11727999626646561,0.4603305902135044,-6.715785449652273,38.63344091644231,-81.1875
1772911887.2615795,80.39828313281822,4.4140798458207,-2.9074091819093053,-0.22920486660163142,-0.3667336843070287,10.30231723202201,0.03055938604740554,-0.1560619086314231,0.42215151282612845,-6.715785449652273,38.63344091644231,-81.1875
1772911887.281539,80.39828313281822,4.4140798458207,-2.9074091819093053,-0.22920486660163142,-0.3667336843070287,10.30231723202201,0.03055938604740554,-0.1560619086314231,0.42215151282612845,-6.715785449652273,38.63344091644231,-81.1875
1772911887.316644,81.27971413485271,4.076846986285972,-2.658626826524183,-0.19164624890075851,-0.30963191322591815,10.391860108123094,0.05917063109792198,-0.1494224275681452,0.3981532356112064,-11.796130669021649,39.999410792402514,-84.0
1772911887.3485358,81.99530787936901,3.9146785332491425,-2.4451737921162593,-0.16019919994034312,-0.2785513791559396,10.401273216299108,0.07021854086380161,-0.08322756494404643,0.30652344988150415,-11.796130669021649,39.999410792402514,-84.0
1772911887.3652167,82.44627782770293,3.6770256775947847,-2.3135029152470112,-0.13962242635238162,-0.2678968297899265,10.364051082443785,0.04487778714607015,-0.08998146893577284,0.26616271092913524,-13.975737138340136,40.26328223630086,-85.0625
1772911887.4361434,82.90062259158296,3.391721135900314,-2.2361093942161556,-0.16029517282773417,-0.2863812558178051,10.339280168161547,0.010030687239179764,-0.08767079392139376,0.18653206380689397,-13.975737138340136,40.26328223630086,-85.0625
1772911887.462612,83.28882312297743,3.0875855310313995,-2.2165841949369645,-0.14620045185551236,-0.3014691822789177,10.328538711837268,-0.005565241816423491,-0.003079786452037478,0.08399397025222712,-17.645685142240684,40.829448420973144,-85.5625
1772911887.5105155,83.4157211144799,3.0437910058719613,-2.1321073063501648,-0.12754815993750943,-0.29998066527125183,10.258780183197654,0.021110446066540535,0.04182984975551382,0.044724062082354694,-19.28407632184768,42.262611214442884,-86.0
1772911887.5489943,83.426411947656,3.050320955515651,-2.0974293432528426,-0.11525223009537848,-0.302333140118889,10.212356661641815,0.034688244087624026,0.05554428715045476,0.00545415391248228,-19.28407632184768,42.262611214442884,-86.0
1772911887.5655043,83.41703222235856,3.0509291571941253,-2.0779012493904494,-0.12126042578046249,-0.32683230159183835,10.168081879801841,0.03554956200832201,0.048965163508735275,-0.01090830782496456,-19.28407632184768,42.262611214442884,-86.0
1772911887.5855887,83.41703222235856,3.0509291571941253,-2.0779012493904494,-0.12126042578046249,-0.32683230159183835,10.168081879801841,0.03554956200832201,0.048965163508735275,-0.01090830782496456,-19.28407632184768,42.262611214442884,-86.0
1772911887.6210933,83.38809065966942,3.046426546657408,-2.053738558736683,-0.1263114715188649,-0.3732238164742498,10.138617507069057,0.03912518115030302,0.057572050801046736,-0.026179938779914945,-19.273149737048303,42.57492013161404,-86.0
1772911887.647343,83.3682397720674,3.035769434321422,-2.0637377031805966,-0.13729471516709793,-0.4306074575695385,10.032036391763695,-0.0047102158103938625,0.05255670718145686,-0.022907446432425576,-19.273149737048303,42.57492013161404,-86.0
1772911887.669624,83.28096092493422,3.0396449474640406,-2.17521566067755,-0.12454554339364032,-0.46949740211846247,9.961107850117045,-0.04751580641505418,0.07697578555693188,-0.05345070834232634,-19.273149737048303,42.57492013161404,-86.0
1772911887.6857903,83.28096092493422,3.0396449474640406,-2.17521566067755,-0.12454554339364032,-0.46949740211846247,9.961107850117045,-0.04751580641505418,0.07697578555693188,-0.05345070834232634,-19.273149737048303,42.57492013161404,-86.0
1772911887.7257605,83.20131723493769,3.0500855064776102,-2.365988515083528,-0.11606111199598461,-0.4953782257866257,9.89383502773101,-0.08280467350499802,0.0978573857665754,-0.030543261909900768,-20.449909445901493,41.11517303447024,-85.5625
1772911887.759436,83.27724978989863,3.0419419031174657,-2.8489824347882426,-0.11041481767815352,-0.5126016248300448,9.849065715919767,-0.08890388898751456,0.07951530642820798,0.03381575425739013,-20.449909445901493,41.11517303447024,-85.5625
1772911887.7824094,83.27724978989863,3.0419419031174657,-2.8489824347882426,-0.11041481767815352,-0.5126016248300448,9.849065715919767,-0.08890388898751456,0.07951530642820798,0.03381575425739013,-20.449909445901493,41.11517303447024,-85.5625
1772911887.8159544,83.4395366750063,2.907854960929011,-3.2105598612106716,-0.1060043331940424,-0.6010710911985435,9.80589179218609,-0.12326478882053363,0.002129602749703786,0.09272061651219876,-20.685732269477004,43.31226203946773,-84.75
1772911887.8475046,83.85837002903871,2.652311741643153,-3.6108720074942924,-0.12705547940484146,-0.6758431297533289,9.81061114529885,-0.10841575475717985,-0.07261178974514802,0.15817046346198613,-20.685732269477004,43.31226203946773,-84.75
1772911887.870515,84.12667941818158,2.4861826837596057,-3.7969337160973433,-0.1543200851355274,-0.7217921715865375,9.797026263540166,-0.09766668088582789,-0.07735385461702304,0.1559888018969932,2026.514517006191,-27.874268836416263,-84.0
1772911887.8841825,84.33482394293964,2.4046778325771947,-3.9230407210063714,-0.18331230903576845,-0.7754213234523681,9.787985676482835,-0.09604254344213986,-0.062129702706842586,0.18871372537188688,2026.514517006191,-27.874268836416263,-84.0
1772911887.901948,84.33482394293964,2.4046778325771947,-3.9230407210063714,-0.18331230903576845,-0.7754213234523681,9.787985676482835,-0.09604254344213986,-0.062129702706842586,0.18871372537188688,2026.514517006191,-27.874268836416263,-84.0
1772911887.9202662,84.55699716334355,2.349114447825512,-4.045131949052367,-0.20260631017701738,-0.8111109249421989,9.75855348483492,-0.09095720978491934,-0.04156915483713566,0.20289452554434081,2026.514517006191,-27.874268836416263,-84.0
1772911887.948227,84.89095728452682,2.3164231392533003,-4.225319117317683,-0.24922780150118812,-0.8437215342244838,9.738966690072356,-0.09992958230798525,-0.01724228294470021,0.18980455615438332,-21.322549597176415,44.772921545013695,-84.75
1772911887.966962,84.89095728452682,2.3164231392533003,-4.225319117317683,-0.24922780150118812,-0.8437215342244838,9.738966690072356,-0.09992958230798525,-0.01724228294470021,0.18980455615438332,-21.322549597176415,44.772921545013695,-84.75
1772911887.9898999,85.15475785886275,2.3170404561263105,-4.393067747140257,-0.2802538831812416,-0.8654235304174698,9.732622120371342,-0.09492053060306371,0.0011379373698167214,0.13853550937704992,-21.322549597176415,44.772921545013695,-84.75
1772911888.0189598,85.44690055743091,2.3076946128631683,-4.648988403565564,-0.28084299622478953,-0.8805677388740014,9.755160773767361,-0.07845365101069025,0.0038363140603591746,0.09817477042468103,-22.784482011280094,45.887219470432655,-83.5625
1772911888.0492623,85.5949048434838,2.282415725290487,-4.724573065810531,-0.2679797412903363,-0.8944569549965323,9.770159995829156,-0.03473267697844189,0.005581166347164066,0.08290313946973066,-22.784482011280094,45.887219470432655,-83.5625
1772911888.081352,85.5949048434838,2.282415725290487,-4.724573065810531,-0.2679797412903363,-0.8944569549965323,9.770159995829156,-0.03473267697844189,0.005581166347164066,0.08290313946973066,-22.784482011280094,45.887219470432655,-83.5625
1772911888.1069844,85.74776129731934,2.242108994938105,-4.834636500292107,-0.2362518489436239,-0.9112049402370238,9.780141810558991,-0.033871359057743904,-0.000997957294555417,0.06763150851478027,-22.769184792560964,46.32445195447227,-84.25
1772911888.1210735,85.82658868623153,2.2090449886399592,-4.926385269800554,-0.2158390634279487,-0.9424089350578032,9.803510155294116,-0.04601572451588688,-0.004939061667290877,0.04363323129985824,-22.769184792560964,46.32445195447227,-84.25
1772911888.145192,85.86620974707436,2.1850082537873385,-4.979544812197917,-0.1989115164046077,-0.9632918071091174,9.849167533039703,-0.03924589599341988,0.001373075141382089,0.02945243112740431,-22.769184792560964,46.32445195447227,-84.25
1772911888.1721063,85.86620974707436,2.1850082537873385,-4.979544812197917,-0.1989115164046077,-0.9632918071091174,9.849167533039703,-0.03924589599341988,0.001373075141382089,0.02945243112740431,-22.769184792560964,46.32445195447227,-84.25
1772911888.1933937,85.97261582439282,2.0787876339647453,-5.09447586266057,-0.15592135738427812,-0.9314388557704226,9.879552007903062,-0.04661005560353834,0.009271208417593584,0.050178215994836975,-23.81701080078149,48.549950079948154,-84.75
1772911888.214184,86.11763129884172,2.0144404130030056,-5.179527831385495,-0.10725348905730511,-0.9109428448925838,9.879701866263888,-0.04138808257246038,0.0025395208712760907,0.08726646259971647,-23.81701080078149,48.549950079948154,-84.75
1772911888.2406256,86.30347195815206,1.9226677267656627,-5.264080636496558,-0.07234123453982985,-0.9208214046972728,9.87980159532899,-0.0531288218236994,-0.02106267247431881,0.11017390903214205,-23.81701080078149,48.549950079948154,-84.75
1772911888.2921722,86.53616922734837,1.7836451466727374,-5.357234748440375,-0.049107519153886656,-0.9273954758965498,9.899938634151685,-0.06634113461402844,-0.055528362619714174,0.14835298641951802,-24.466940030240153,49.63583888488873,-86.25
1772911888.327133,86.84644362628629,1.594614054124792,-5.404628430034783,-0.005614628029816854,-0.8959324142262992,9.913339608542724,-0.0379746599511496,-0.08708275474841065,0.19198621771937624,-24.466940030240153,49.63583888488873,-86.25
1772911888.345997,86.84644362628629,1.594614054124792,-5.404628430034783,-0.005614628029816854,-0.8959324142262992,9.913339608542724,-0.0379746599511496,-0.08708275474841065,0.19198621771937624,-24.466940030240153,49.63583888488873,-86.25
1772911888.3632405,87.39507472016308,1.2984845334779536,-5.419676462783021,0.023329405165823627,-0.8749940981501753,9.91222247217931,-0.022979353897866157,-0.09524787485766865,0.18653206380689397,-24.139333894349868,50.06214478412897,-85.0625
1772911888.3816855,87.59614237853768,1.2286901994989743,-5.446796359204657,0.011568042779381674,-0.8867517543792234,9.831196349433025,-0.03390320811922506,-0.06430373834736422,0.17780541754692233,-24.139333894349868,50.06214478412897,-85.0625
1772911888.4102623,87.91369700420644,1.1991831357817997,-5.517472170968946,-0.04411459916949232,-0.9230264708801008,9.743823252793275,-0.04693110794347494,-0.031102992329570794,0.18871372537188688,-24.139333894349868,50.06214478412897,-85.0625
1772911888.4263928,87.91369700420644,1.1991831357817997,-5.517472170968946,-0.04411459916949232,-0.9230264708801008,9.743823252793275,-0.04693110794347494,-0.031102992329570794,0.18871372537188688,-24.139333894349868,50.06214478412897,-85.0625
