timestamp,yaw,pitch,roll,ax,ay,az,gx,gy,gz,mx,my,mz
1772911368.473053,-0.050581512229175216,0.634457285230271,-9.116406823099645,-0.10069376178510465,-1.5412379445651292,9.657464086291341,0.0,0.001090830782496456,0.001090830782496456,4.5625,58.375,-28.75
1772911368.4887128,0.0,0.0,0.0,-0.09711657901084084,-1.5408238382793467,9.691763494828093,-0.001090830782496456,0.0,0.001090830782496456,4.5625,58.375,-28.75
1772911368.499987,0.0,0.0,0.0,-0.09711657901084084,-1.5408238382793467,9.691763494828093,-0.001090830782496456,0.0,0.001090830782496456,4.5625,58.375,-28.75
1772911368.5130117,0.0,0.0,0.0,-0.09473600383431813,-1.5472384785866673,9.721279591474442,-0.001090830782496456,0.0,0.001090830782496456,3.0625,57.375,-31.0625
1772911368.5237992,0.0,0.0,0.0,-0.09473600383431813,-1.5472384785866673,9.721279591474442,-0.001090830782496456,0.0,0.001090830782496456,3.0625,57.375,-31.0625
1772911368.5364037,-0.050581512229175216,0.634457285230271,-9.116406823099645,-0.09315175764710942,-1.5515073500549619,9.737577112368864,0.001090830782496456,0.001090830782496456,0.0,3.0625,57.375,-31.0625
1772911368.5523627,-0.050581512229175216,0.634457285230271,-9.116406823099645,-0.09315175764710942,-1.5515073500549619,9.737577112368864,0.001090830782496456,0.001090830782496456,0.0,3.0625,57.375,-31.0625
1772911368.5648906,-0.050581512229175216,0.634457285230271,-9.116406823099645,-0.0954425712140309,-1.554348236330693,9.751768042176185,-0.001090830782496456,0.004363323129985824,-0.001090830782496456,3.0625,57.375,-31.0625
1772911368.5772567,-0.050581512229175216,0.634457285230271,-9.116406823099645,-0.0954425712140309,-1.554348236330693,9.751768042176185,-0.001090830782496456,0.004363323129985824,-0.001090830782496456,3.0625,57.375,-31.0625
1772911368.5924222,-0.050581512229175216,0.634457285230271,-9.116406823099645,-0.09027685863811409,-1.5528937027050937,9.757866835732564,0.0,0.001090830782496456,-0.003272492347489368,5.5625,59.1875,-29.1875
1772911368.605154,-0.050581512229175216,0.634457285230271,-9.116406823099645,-0.09027685863811409,-1.5528937027050937,9.757866835732564,0.0,0.001090830782496456,-0.003272492347489368,5.5625,59.1875,-29.1875
1772911368.617801,-0.050581512229175216,0.634457285230271,-9.116406823099645,-0.09352935803827069,-1.5519257268254627,9.761925514716348,0.0,-0.002181661564992912,0.001090830782496456,5.5625,59.1875,-29.1875
1772911368.6368525,-0.050581512229175216,0.634457285230271,-9.116406823099645,-0.09903897176359534,-1.5546266613978867,9.76462652024164,-0.001090830782496456,0.002181661564992912,0.0,5.5625,59.1875,-29.1875
1772911368.6578288,-0.050581512229175216,0.634457285230271,-9.116406823099645,-0.09903897176359534,-1.5546266613978867,9.76462652024164,-0.001090830782496456,0.002181661564992912,0.0,5.5625,59.1875,-29.1875
1772911368.6760533,-0.050581512229175216,0.634457285230271,-9.116406823099645,-0.1027055581513809,-1.5564241031844188,9.766424009246514,-0.003272492347489368,0.001090830782496456,0.0,4.1875,58.1875,-28.375
1772911368.7054467,-0.050581512229175216,0.634457285230271,-9.116406823099645,-0.1027055581513809,-1.5564241031844188,9.766424009246514,-0.003272492347489368,0.001090830782496456,0.0,4.1875,58.1875,-28.375
1772911368.7268662,4.068933171503098,0.6333302350414368,-9.113165409686836,-0.10180051872667914,-1.5576202806146155,9.770965329807309,0.0,0.002181661564992912,0.001090830782496456,4.1875,58.1875,-28.375
1772911368.7562444,4.068933171503098,0.6333302350414368,-9.113165409686836,-0.10180051872667914,-1.5576202806146155,9.770965329807309,0.0,0.002181661564992912,0.001090830782496456,4.1875,58.1875,-28.375
1772911368.805242,4.07591884942321,0.6338869294979926,-9.113146862610577,-0.10119822509949293,-1.558416323332234,9.773987527910643,0.0,0.002181661564992912,-0.001090830782496456,4.5625,58.5,-29.5625
1772911368.8320632,4.096876255823166,0.6355570132269319,-9.11309122137024,-0.10079740541866115,-1.5589460808684292,9.779343878695567,0.0,0.003272492347489368,0.001090830782496456,4.5625,58.5,-29.5625
1772911368.8588345,4.09742887376429,0.6285893694066518,-9.1133344594917,-0.10053066439851682,-1.5592986285909878,9.779563358601255,-0.001090830782496456,0.0,-0.001090830782496456,5.0,59.25,-28.0
1772911368.89466,4.104414791139253,0.629146063355703,-9.113316333968978,-0.1003531512293032,-1.5595332451621344,9.78305453173406,-0.001090830782496456,0.0,-0.002181661564992912,5.0,59.25,-28.0
1772911368.9269624,4.104414791139253,0.629146063355703,-9.113316333968978,-0.1003531512293032,-1.5595332451621344,9.78305453173406,-0.001090830782496456,0.0,-0.002181661564992912,5.0,59.25,-28.0
1772911368.942248,4.104414791139253,0.629146063355703,-9.113316333968978,-0.10023501819814357,-1.5596893798693936,9.782032756747661,0.0,-0.001090830782496456,0.002181661564992912,4.1875,58.1875,-29.5625
1772911368.9571917,4.146331610354901,0.6324862282991649,-9.11320758079402,-0.10015640198553925,-1.5597932857729357,9.781352776908188,-0.002181661564992912,0.0,0.001090830782496456,4.1875,58.1875,-29.5625
1772911368.9735289,4.146331610354901,0.6324862282991649,-9.11320758079402,-0.10015640198553925,-1.5597932857729357,9.781352776908188,-0.002181661564992912,0.0,0.001090830782496456,4.1875,58.1875,-29.5625
1772911368.9972908,4.146331610354901,0.6324862282991649,-9.11320758079402,-0.10010408377425171,-1.559862433991038,9.77755514621357,0.0,0.001090830782496456,-0.001090830782496456,5.25,59.6875,-28.75
1772911369.0275543,4.146331610354901,0.6324862282991649,-9.11320758079402,-0.10006926658907257,-1.5599084513577488,9.775027865408617,0.0,-0.002181661564992912,0.0,5.25,59.6875,-28.75
1772911369.0472648,-4.226156736626858,0.030979605150555246,9.204120587634623,-0.09670098443394991,-1.5599390754012472,9.773345988264499,-0.001090830782496456,-0.002181661564992912,0.0,5.25,59.6875,-28.75
1772911369.0755484,-4.226156736626858,0.030979605150555246,9.204120587634623,-0.09670098443394991,-1.5599390754012472,9.773345988264499,-0.001090830782496456,-0.002181661564992912,0.0,5.25,59.6875,-28.75
1772911369.08934,4.146331610354901,0.6324862282991649,-9.11320758079402,-0.09780454199321222,-1.5599594553601024,9.775571829520205,0.0,0.0,-0.001090830782496456,4.1875,59.25,-29.1875
1772911369.1068585,4.1672908699689755,0.6341563115762896,-9.113153204181708,-0.0985389472213556,-1.5599730179950615,9.773707990304283,0.0,-0.001090830782496456,-0.001090830782496456,4.1875,59.25,-29.1875
1772911369.1318047,4.1672908699689755,0.6341563115762896,-9.113153204181708,-0.0985389472213556,-1.5599730179950615,9.773707990304283,0.0,-0.001090830782496456,-0.001090830782496456,4.1875,59.25,-29.1875
1772911369.152799,4.1672908699689755,0.6341563115762896,-9.113153204181708,-0.0985389472213556,-1.5599730179950615,9.773707990304283,0.0,-0.001090830782496456,-0.001090830782496456,4.1875,59.25,-29.1875
1772911369.1761117,4.174277416459092,0.634713006121666,-9.11313507864059,-0.09902768569684109,-1.5599820437771221,9.772467626126534,-0.001090830782496456,0.001090830782496456,-0.002181661564992912,5.0,59.25,-29.1875
1772911369.193828,4.174277416459092,0.634713006121666,-9.11313507864059,-0.0960078239853908,-1.559988050334259,9.7682970659147,-0.001090830782496456,-0.001090830782496456,0.0,5.0,59.25,-29.1875
1772911369.2103565,4.174277416459092,0.634713006121666,-9.11313507864059,-0.0960078239853908,-1.559988050334259,9.7682970659147,-0.001090830782496456,-0.001090830782496456,0.0,5.0,59.25,-29.1875
1772911369.2308838,4.216750551849421,0.6310855274783568,-9.113276864584405,-0.0939981397504863,-1.559992047630936,9.765521604681933,0.0,-0.003272492347489368,-0.001090830782496456,5.0,59.25,-29.1875
1772911369.2508085,4.216750551849421,0.6310855274783568,-9.113276864584405,-0.09266071734180123,-1.5599947077872216,9.76367456623546,-0.001090830782496456,0.0,0.0,5.25,58.5,-28.375
1772911369.2696655,4.216750551849421,0.6310855274783568,-9.113276864584405,-0.09266071734180123,-1.5599947077872216,9.76367456623546,-0.001090830782496456,0.0,0.0,5.25,58.5,-28.375
1772911369.2956948,4.2514251358469615,0.633851068810338,-9.112638676670793,-0.09177067766880853,-1.5633415897988332,9.762445382782104,0.0,-0.002181661564992912,0.002181661564992912,5.25,58.5,-28.375
1772911369.3160667,4.2514251358469615,0.633851068810338,-9.112638676670793,-0.09177067766880853,-1.5633415897988332,9.762445382782104,0.0,-0.002181661564992912,0.002181661564992912,5.25,58.5,-28.375
1772911369.3472366,4.237711695620701,0.6327556103046654,-9.113223752599332,-0.0911783662088265,-1.5622237906831196,9.764972486632095,0.002181661564992912,-0.001090830782496456,0.001090830782496456,3.75,58.5,-28.75
1772911369.373708,4.307874473386679,0.6313374059888527,-9.112753199366706,-0.0874390778414416,-1.564825019565566,9.766654246014664,0.001090830782496456,0.0,0.002181661564992912,3.75,58.5,-28.75
1772911369.3932428,4.307874473386679,0.6313374059888527,-9.112753199366706,-0.08829573491085434,-1.563210996621884,9.764428326389961,0.001090830782496456,0.001090830782496456,0.001090830782496456,3.75,58.5,-28.75
1772911369.4212923,4.307874473386679,0.6313374059888527,-9.112753199366706,-0.08829573491085434,-1.563210996621884,9.764428326389961,0.001090830782496456,0.001090830782496456,0.001090830782496456,3.75,58.5,-28.75
1772911369.4476473,4.371315825083637,0.6293804383566183,-9.112857740496343,-0.08886583062106203,-1.5621368823826813,9.762947001744871,0.001090830782496456,-0.003272492347489368,0.001090830782496456,5.5625,58.1875,-29.1875
1772911369.46571,4.4272215169032565,0.6338339922924946,-9.112722852734706,-0.08924522294781888,-1.5580769596478148,9.761961196741046,0.002181661564992912,-0.002181661564992912,0.002181661564992912,5.5625,58.1875,-29.1875
1772911369.4947948,4.4272215169032565,0.6338339922924946,-9.112722852734706,-0.08949770430318559,-1.5553751264200697,9.761305154523162,0.0,-0.002181661564992912,0.002181661564992912,5.5625,58.1875,-29.1875
1772911369.5334847,4.4272215169032565,0.6338339922924946,-9.112722852734706,-0.09301083953209997,-1.55357708658846,9.764213677462953,0.002181661564992912,-0.001090830782496456,0.0,4.5625,58.1875,-28.75
1772911369.5564888,4.433938048796799,0.6343736102835776,-9.112156323023386,-0.0953487917826506,-1.5523805111659448,9.762804155281733,0.0,-0.001090830782496456,0.001090830782496456,4.5625,58.1875,-28.75
1772911369.6044025,4.433938048796799,0.6343736102835776,-9.112156323023386,-0.09690467288875416,-1.5549293152962036,9.765211245722845,0.0,0.001090830782496456,0.0,4.5625,58.1875,-28.75
1772911369.6450806,4.433938048796799,0.6343736102835776,-9.112156323023386,-0.09690467288875416,-1.5549293152962036,9.765211245722845,0.0,0.001090830782496456,0.0,4.5625,58.1875,-28.75
1772911369.6654718,4.433938048796799,0.6343736102835776,-9.112156323023386,-0.09794009438453533,-1.5532804042655637,9.766813137522444,0.001090830782496456,0.001090830782496456,0.003272492347489368,4.5625,58.1875,-28.75
1772911369.6784873,4.433938048796799,0.6343736102835776,-9.112156323023386,-0.09862915582356171,-1.552183072394216,9.767879178620772,0.002181661564992912,0.001090830782496456,0.0,4.5625,58.1875,-28.75
1772911369.6995044,4.433938048796799,0.6343736102835776,-9.112156323023386,-0.09862915582356171,-1.552183072394216,9.767879178620772,0.002181661564992912,0.001090830782496456,0.0,4.5625,58.1875,-28.75
1772911369.720437,4.433938048796799,0.6343736102835776,-9.112156323023386,-0.09908771851391315,-1.5514528102918343,9.765243505355931,0.001090830782496456,0.0,0.0,4.1875,58.875,-28.75
1772911369.7724795,4.433938048796799,0.6343736102835776,-9.112156323023386,-0.09939288686186114,-1.554311940727581,9.763489494240579,0.001090830782496456,-0.002181661564992912,0.001090830782496456,4.1875,58.875,-28.75
1772911369.7925463,4.433938048796799,0.6343736102835776,-9.112156323023386,-0.09959597298846672,-1.5562146600939906,9.76566733114422,0.0,0.0,0.0,4.1875,58.1875,-29.5625
1772911369.804749,4.433938048796799,0.6343736102835776,-9.112156323023386,-0.09973112453710205,-1.557480898577568,9.76711665727556,0.001090830782496456,-0.003272492347489368,0.001090830782496456,4.1875,58.1875,-29.5625
1772911369.8243067,4.433938048796799,0.6343736102835776,-9.112156323023386,-0.09973112453710205,-1.557480898577568,9.76711665727556,0.001090830782496456,-0.003272492347489368,0.001090830782496456,4.1875,58.1875,-29.5625
1772911369.841648,4.433938048796799,0.6343736102835776,-9.112156323023386,-0.09982106638297714,-1.5583235661435784,9.768081167625933,0.0,0.0,-0.002181661564992912,4.1875,58.1875,-29.5625
1772911369.854811,4.433938048796799,0.6343736102835776,-9.112156323023386,-0.09988092167669076,-1.5588843519955446,9.76872303848982,-0.001090830782496456,0.001090830782496456,-0.001090830782496456,5.25,58.875,-28.375
1772911369.8718498,4.433938048796799,0.6343736102835776,-9.112156323023386,-0.09988092167669076,-1.5588843519955446,9.76872303848982,-0.001090830782496456,0.001090830782496456,-0.001090830782496456,5.25,58.875,-28.375
1772911369.8962982,4.433938048796799,0.6343736102835776,-9.112156323023386,-0.09992075470602974,-1.5559124370083204,9.76915019637957,0.0,0.0,0.0,5.25,58.875,-28.375
1772911369.9312778,4.433938048796799,0.6343736102835776,-9.112156323023386,-0.09994726314209072,-1.5572797724901077,9.769434465183533,0.0,0.001090830782496456,0.0,3.5,57.875,-28.75
1772911369.9441102,4.433938048796799,0.6343736102835776,-9.112156323023386,-0.09996490421017068,-1.5548446072717796,9.76627853118976,-0.001090830782496456,-0.003272492347489368,0.0,3.5,57.875,-28.75
1772911369.9589343,4.433938048796799,0.6343736102835776,-9.112156323023386,-0.09997664414391425,-1.5565691437288796,9.764178292370996,0.001090830782496456,0.001090830782496456,0.001090830782496456,3.5,57.875,-28.75
1772911369.9762921,4.433938048796799,0.6343736102835776,-9.112156323023386,-0.09997664414391425,-1.5565691437288796,9.764178292370996,0.001090830782496456,0.001090830782496456,0.001090830782496456,3.5,57.875,-28.75
1772911369.996511,4.433938048796799,0.6343736102835776,-9.112156323023386,-0.09663934523135756,-1.557716803476745,9.762780606898314,0.0,-0.003272492347489368,0.0,5.0,58.875,-29.5625
1772911370.01505,4.433938048796799,0.6343736102835776,-9.112156323023386,-0.09441841008512263,-1.5584805582187502,9.761850462829413,0.0,-0.001090830782496456,-0.001090830782496456,5.0,58.875,-29.5625
1772911370.0490015,4.433938048796799,0.6343736102835776,-9.112156323023386,-0.09294040255477445,-1.5623339401751746,9.76123146234195,0.0,0.0,-0.001090830782496456,5.0,58.875,-29.5625
1772911370.0734553,4.433938048796799,0.6343736102835776,-9.112156323023386,-0.09294040255477445,-1.5623339401751746,9.76123146234195,0.0,0.0,-0.001090830782496456,5.0,58.875,-29.5625
1772911370.0962012,4.433938048796799,0.6343736102835776,-9.112156323023386,-0.09530191676107305,-1.5615532111147585,9.76416463613955,-0.001090830782496456,-0.001090830782496456,0.0,4.1875,59.25,-28.75
1772911370.1096897,4.433938048796799,0.6343736102835776,-9.112156323023386,-0.09530191676107305,-1.5615532111147585,9.76416463613955,-0.001090830782496456,-0.001090830782496456,0.0,4.1875,59.25,-28.75
1772911370.1337047,4.433938048796799,0.6343736102835776,-9.112156323023386,-0.0968734780855226,-1.5576885329390475,9.766116630536157,0.0,0.0,0.0,4.1875,59.25,-28.75
1772911370.1566749,4.433938048796799,0.6343736102835776,-9.112156323023386,-0.0979193345914535,-1.5551166327843957,9.767415661001891,0.0,-0.002181661564992912,-0.001090830782496456,4.1875,59.25,-28.75
1772911370.1815674,4.433938048796799,0.6343736102835776,-9.112156323023386,-0.09527022870584845,-1.5567501736688014,9.764935039558397,0.0,0.002181661564992912,-0.001090830782496456,4.875,58.875,-28.75
1772911370.2075944,4.433938048796799,0.6343736102835776,-9.112156323023386,-0.0968523900387494,-1.5578372768795261,9.766629325405429,-0.001090830782496456,0.003272492347489368,-0.001090830782496456,4.875,58.875,-28.75
1772911370.2322605,4.433938048796799,0.6343736102835776,-9.112156323023386,-0.0968523900387494,-1.5578372768795261,9.766629325405429,-0.001090830782496456,0.003272492347489368,-0.001090830782496456,4.875,58.875,-28.75
1772911370.2452655,4.433938048796799,0.6343736102835776,-9.112156323023386,-0.09790530073189485,-1.558560731922525,9.764411742002896,-0.001090830782496456,-0.003272492347489368,0.002181661564992912,4.875,58.875,-28.75
1772911370.2622037,4.433938048796799,0.6343736102835776,-9.112156323023386,-0.09860600103640003,-1.5590421831721182,9.762935965020539,0.001090830782496456,0.0,0.0,4.875,58.875,-28.75
1772911370.2798276,4.433938048796799,0.6343736102835776,-9.112156323023386,-0.09907230926171297,-1.5593625836005598,9.76195385192429,0.0,0.002181661564992912,-0.001090830782496456,4.875,58.875,-28.75
1772911370.308057,4.433938048796799,0.6343736102835776,-9.112156323023386,-0.09907230926171297,-1.5593625836005598,9.76195385192429,0.0,0.002181661564992912,-0.001090830782496456,4.875,58.875,-28.75
1772911370.3469412,4.433938048796799,0.6343736102835776,-9.112156323023386,-0.09938263217665454,-1.5629209182138997,9.757955154922339,-0.001090830782496456,0.002181661564992912,0.0,4.5625,58.5,-28.0
1772911370.360062,4.433938048796799,0.6343736102835776,-9.112156323023386,-0.09938263217665454,-1.5629209182138997,9.757955154922339,-0.001090830782496456,0.002181661564992912,0.0,4.5625,58.5,-28.0
1772911370.3810954,4.433938048796799,0.6343736102835776,-9.112156323023386,-0.09958914861001406,-1.561943838442556,9.755294066735914,0.0,0.001090830782496456,0.0,4.5625,58.5,-28.0
1772911370.4051948,4.433938048796799,0.6343736102835776,-9.112156323023386,-0.0997265829894751,-1.5579484910621033,9.75017803056683,0.002181661564992912,0.001090830782496456,-0.001090830782496456,4.5625,58.5,-28.0
1772911370.443615,4.433938048796799,0.6343736102835776,-9.112156323023386,-0.0998180440337638,-1.5552896320113667,9.756808700768133,0.002181661564992912,-0.002181661564992912,-0.001090830782496456,4.1875,58.1875,-29.1875
1772911370.4671972,4.433938048796799,0.6343736102835776,-9.112156323023386,-0.09653379862973176,-1.560210414429142,9.761221337717659,0.0,0.0,0.001090830782496456,4.1875,58.1875,-29.1875
1772911370.4806933,4.433938048796799,0.6343736102835776,-9.112156323023386,-0.09434817000077345,-1.5634851401594303,9.764157898315185,0.001090830782496456,0.0,-0.001090830782496456,4.1875,58.1875,-29.1875
1772911370.5079072,4.433938048796799,0.6343736102835776,-9.112156323023386,-0.09434817000077345,-1.5634851401594303,9.764157898315185,0.001090830782496456,0.0,-0.001090830782496456,4.1875,58.1875,-29.1875
1772911370.5351021,4.433938048796799,0.6343736102835776,-9.112156323023386,-0.09289365856327322,-1.5623193218445344,9.762767034881987,-0.001090830782496456,-0.001090830782496456,-0.001090830782496456,4.875,58.875,-28.375
1772911370.5525982,4.433938048796799,0.6343736102835776,-9.112156323023386,-0.09289365856327322,-1.5623193218445344,9.762767034881987,-0.001090830782496456,-0.001090830782496456,-0.001090830782496456,4.875,58.875,-28.375
1772911370.575849,4.433938048796799,0.6343736102835776,-9.112156323023386,-0.0919256974495742,-1.5615434827790151,9.761841430804157,0.0,0.001090830782496456,-0.002181661564992912,4.875,58.875,-28.375
1772911370.6105003,4.433938048796799,0.6343736102835776,-9.112156323023386,-0.09128153014124163,-1.5610271705476022,9.761225451630036,0.0,0.0,-0.001090830782496456,3.75,58.5,-28.375
1772911370.6340086,4.433938048796799,0.6343736102835776,-9.112156323023386,-0.09085284399336663,-1.5573384588178631,9.760815524370598,0.001090830782496456,0.0,0.001090830782496456,3.75,58.5,-28.375
1772911370.6489022,4.433938048796799,0.6343736102835776,-9.112156323023386,-0.09085284399336663,-1.5573384588178631,9.760815524370598,0.001090830782496456,0.0,0.001090830782496456,3.75,58.5,-28.375
1772911370.66921,4.433938048796799,0.6343736102835776,-9.112156323023386,-0.09391266985801325,-1.558228774074651,9.760542722358629,0.001090830782496456,-0.001090830782496456,-0.002181661564992912,3.75,58.5,-28.375
1772911370.694062,4.433938048796799,0.6343736102835776,-9.112156323023386,-0.09391266985801325,-1.558228774074651,9.760542722358629,0.001090830782496456,-0.001090830782496456,-0.002181661564992912,3.75,58.5,-28.375
1772911370.7189603,4.433938048796799,0.6343736102835776,-9.112156323023386,-0.09594894979044105,-1.5621663806398896,9.760361175667061,0.001090830782496456,-0.001090830782496456,0.001090830782496456,5.0,58.1875,-30.375
1772911370.740498,0.00025345584558081314,0.6344099082662675,-9.112675523541109,-0.09594894979044105,-1.5621663806398896,9.760361175667061,0.001090830782496456,-0.001090830782496456,0.001090830782496456,5.0,58.1875,-30.375
1772911371.1038315,0.00025345584558081314,0.6344099082662675,-9.112675523541109,-0.2106300599514508,-1.5371034697245107,9.761419231037694,-0.0010875660724452097,8.433169100599911e-05,0.001090830782496456,8.726570050174983,58.37506108270371,-29.1875
1772911371.2873938,0.00025345584558081314,0.6344099082662675,-9.112675523541109,-0.21050629292332823,-1.5476398572980115,9.759292465839076,-0.0009189026904332114,0.0022594638358964187,0.0,9.756899030508317,57.91904195779196,-30.75
1772911371.3286362,0.00025345584558081314,0.6344099082662675,-9.112675523541109,-0.213525022033328,-1.544291481057217,9.759529143919579,0.0,0.0,0.001090830782496456,9.756899030508317,57.91904195779196,-30.75
1772911371.3622534,0.00025345584558081314,0.6344099082662675,-9.112675523541109,-0.213525022033328,-1.544291481057217,9.759529143919579,0.0,0.0,0.001090830782496456,9.756899030508317,57.91904195779196,-30.75
1772911371.424342,-0.007695479187984699,0.6684579162206749,-10.003939636675444,-0.21553395253461916,-1.5420631740727817,9.763031762245607,0.0,0.0,0.001090830782496456,9.41201245499501,58.32191073299141,-28.375
1772911371.461871,0.00025345584558081314,0.6344099082662675,-9.112675523541109,-0.21353577310483104,-1.5408388699131081,9.765362715614767,-0.00016866338201199823,-0.0021751321448904193,0.001090830782496456,9.41201245499501,58.32191073299141,-28.375
1772911371.497239,0.00025345584558081314,0.6344099082662675,-9.112675523541109,-0.21246461626208213,-1.5433592094083923,9.76022371562885,0.0,0.0,0.0,9.507647246937397,57.93836935768734,-28.0
1772911371.5398035,0.00025345584558081314,0.6344099082662675,-9.112675523541109,-0.21508687358601197,-1.5447778579418188,9.756803768544613,-0.001256229454457208,-0.0020908004538844204,0.0,9.507647246937397,57.93836935768734,-28.0
1772911371.5915353,0.00025345584558081314,0.6344099082662675,-9.112675523541109,-0.2201670567797269,-1.5454633434468232,9.757872943670684,0.002006468762878421,-0.0023437955269024176,-0.001090830782496456,9.507647246937397,57.93836935768734,-30.0
1772911371.6808157,0.00025345584558081314,0.6344099082662675,-9.112675523541109,-0.21995415246195796,-1.542843035402504,9.761929579480935,0.0010032343814392105,-0.0011718977634512088,0.001090830782496456,9.507647246937397,57.93836935768734,-30.0
1772911371.698073,0.00025345584558081314,0.6344099082662675,-9.112675523541109,-0.21995415246195796,-1.542843035402504,9.761929579480935,0.0010032343814392105,-0.0011718977634512088,0.001090830782496456,9.507647246937397,57.93836935768734,-30.0
1772911371.7455225,0.00025345584558081314,0.6344099082662675,-9.112675523541109,-0.21981246701677978,-1.5410992496697684,9.761284113589747,0.0,0.0,0.0,9.732739780639092,57.607477228328314,-28.375
1772911371.773105,0.00025345584558081314,0.6344099082662675,-9.112675523541109,-0.2169002951918672,-1.5468675894649906,9.760854563249488,0.002006468762878421,-0.0023437955269024176,0.0,9.732739780639092,57.607477228328314,-28.375
1772911371.8026755,0.00025345584558081314,0.6344099082662675,-9.112675523541109,-0.2149622773734787,-1.5507063551621334,9.760568702296437,8.433169100599911e-05,0.0010875660724452097,0.0,9.756899030508317,57.91904195779196,-30.375
1772911371.8332713,0.00025345584558081314,0.6344099082662675,-9.112675523541109,-0.21315532967112205,-1.5465908103774129,9.760378465025457,-8.433169100599911e-05,-0.0010875660724452097,-0.001090830782496456,9.756899030508317,57.91904195779196,-30.375
1772911371.8588958,0.00025345584558081314,0.6344099082662675,-9.112675523541109,-0.21528792639730537,-1.5435933520501806,9.76025186424671,0.0010032343814392105,-0.0011718977634512088,0.002181661564992912,9.756899030508317,57.91904195779196,-30.375
1772911371.8756566,0.00025345584558081314,0.6344099082662675,-9.112675523541109,-0.21528792639730537,-1.5435933520501806,9.76025186424671,0.0010032343814392105,-0.0011718977634512088,0.002181661564992912,9.756899030508317,57.91904195779196,-30.375
1772911371.895107,0.00025345584558081314,0.6344099082662675,-9.112675523541109,-0.216707145695914,-1.541598577017211,9.760167612842677,0.0010875660724452097,-8.433169100599911e-05,0.001090830782496456,9.07145662568829,57.97219230750426,-30.0
1772911371.9159057,0.00025345584558081314,0.6344099082662675,-9.112675523541109,-0.21791022953206807,-1.54360617675304,9.760111544474443,-0.0013405611454632071,-0.0031783665263296302,0.0,9.07145662568829,57.97219230750426,-30.0
1772911371.9327147,0.00025345584558081314,0.6344099082662675,-9.112675523541109,-0.2220459686228748,-1.5446836027042274,9.760074231601708,8.433169100599911e-05,0.0010875660724452097,0.003272492347489368,9.07145662568829,57.97219230750426,-30.0
1772911371.949872,0.00025345584558081314,0.6344099082662675,-9.112675523541109,-0.2220459686228748,-1.5446836027042274,9.760074231601708,8.433169100599911e-05,0.0010875660724452097,0.003272492347489368,9.07145662568829,57.97219230750426,-30.0
1772911371.963246,0.00025345584558081314,0.6344099082662675,-9.112675523541109,-0.22146315655140067,-1.5456592268857545,9.756704288594396,-0.0010875660724452097,8.433169100599911e-05,0.0,9.732739780639092,57.607477228328314,-29.1875
1772911371.9797428,0.00025345584558081314,0.6344099082662675,-9.112675523541109,-0.22107530162827205,-1.5463084938801246,9.754461629167759,-0.00025299507301799736,-0.003262698217335629,0.002181661564992912,9.732739780639092,57.607477228328314,-29.1875
1772911371.9993656,0.00025345584558081314,0.6344099082662675,-9.112675523541109,-0.22107530162827205,-1.5463084938801246,9.754461629167759,-0.00025299507301799736,-0.003262698217335629,0.002181661564992912,9.732739780639092,57.607477228328314,-29.1875
1772911372.0301445,0.00025345584558081314,0.6344099082662675,-9.112675523541109,-0.2208171885095533,-1.5467405738120903,9.74962405266416,0.0,0.0,0.001090830782496456,9.732739780639092,57.607477228328314,-29.1875
1772911372.0588527,0.00025345584558081314,0.6344099082662675,-9.112675523541109,-0.2274599148873324,-1.5500373574889135,9.749833502180072,0.0013405611454632071,0.0031783665263296302,0.0,9.44100355483808,58.69578840834779,-29.1875
1772911372.0995986,0.00025345584558081314,0.6344099082662675,-9.112675523541109,-0.2317362777870013,-1.5487048723963068,9.75323430926806,-0.0010875660724452097,8.433169100599911e-05,0.0,9.44100355483808,58.69578840834779,-29.1875
1772911372.1187491,0.00025345584558081314,0.6344099082662675,-9.112675523541109,-0.2317362777870013,-1.5487048723963068,9.75323430926806,-0.0010875660724452097,8.433169100599911e-05,0.0,9.44100355483808,58.69578840834779,-29.1875
1772911372.1355262,0.00025345584558081314,0.6344099082662675,-9.112675523541109,-0.22817055829892907,-1.551670437182481,9.75884262010293,0.0010032343814392105,-0.0011718977634512088,0.0,9.814881230194459,58.66679730850472,-29.1875
1772911372.154422,0.00025345584558081314,0.6344099082662675,-9.112675523541109,-0.2255390025646653,-1.5503088871829773,9.759229776607281,-0.0021751321448904193,0.00016866338201199823,-0.001090830782496456,9.814881230194459,58.66679730850472,-29.1875
1772911372.1704447,0.00025345584558081314,0.6344099082662675,-9.112675523541109,-0.2255390025646653,-1.5503088871829773,9.759229776607281,-0.0021751321448904193,0.00016866338201199823,-0.001090830782496456,9.814881230194459,58.66679730850472,-29.1875
1772911372.201335,0.00025345584558081314,0.6344099082662675,-9.112675523541109,-0.2237877316199164,-1.5494027908678176,9.762832536643424,-0.0010032343814392105,0.0011718977634512088,0.0,9.814881230194459,58.66679730850472,-29.1875
1772911372.232476,0.00025345584558081314,0.6344099082662675,-9.112675523541109,-0.21928718013199108,-1.5490584031384862,9.761885021494692,-8.433169100599911e-05,-0.0010875660724452097,0.0,9.10044772553136,58.346069982860634,-30.0
1772911372.2507763,0.00025345584558081314,0.6344099082662675,-9.112675523541109,-0.21962721362840423,-1.548570607705031,9.757909349040329,0.0,0.0,0.001090830782496456,9.10044772553136,58.346069982860634,-30.0
1772911372.269398,0.00025345584558081314,0.6344099082662675,-9.112675523541109,-0.21962721362840423,-1.548570607705031,9.757909349040329,0.0,0.0,0.001090830782496456,9.10044772553136,58.346069982860634,-30.0
1772911372.3047442,0.00025345584558081314,0.6344099082662675,-9.112675523541109,-0.21985350212184418,-1.5482459852930985,9.755263583433122,-0.0010032343814392105,0.0011718977634512088,0.001090830782496456,9.10044772553136,58.346069982860634,-30.0
1772911372.339033,0.00025345584558081314,0.6344099082662675,-9.112675523541109,-0.22000409458642037,-1.5480299527042274,9.756847967683981,-0.0010875660724452097,8.433169100599911e-05,0.001090830782496456,9.507647246937397,57.93836935768734,-29.1875
1772911372.3688104,0.00025345584558081314,0.6344099082662675,-9.112675523541109,-0.22343941242654103,-1.5476275761829275,9.757902357704198,0.0,0.0,0.0,9.507647246937397,57.93836935768734,-29.1875
1772911372.393081,0.00025345584558081314,0.6344099082662675,-9.112675523541109,-0.2257255780741266,-1.5473597991028425,9.755258930777025,0.002006468762878421,-0.0023437955269024176,-0.001090830782496456,9.536638346780467,58.31224703304372,-29.1875
1772911372.42933,0.00025345584558081314,0.6344099082662675,-9.112675523541109,-0.22698838652780287,-1.5438464962101388,9.753499759686004,-0.00016866338201199823,-0.0021751321448904193,0.0,9.536638346780467,58.31224703304372,-29.1875
1772911372.4452324,0.00025345584558081314,0.6344099082662675,-9.112675523541109,-0.22698838652780287,-1.5438464962101388,9.753499759686004,-0.00016866338201199823,-0.0021751321448904193,0.0,9.536638346780467,58.31224703304372,-29.1875
1772911372.4628992,0.00025345584558081314,0.6344099082662675,-9.112675523541109,-0.22808738069387802,-1.5448435326183825,9.755674162683478,0.0023437955269024176,0.002006468762878421,0.0,8.290379428925876,58.408884032520625,-29.5625
1772911372.4984503,0.00025345584558081314,0.6344099082662675,-9.112675523541109,-0.2252250395510102,-1.5424305582199171,9.757121203588623,0.0010032343814392105,-0.0011718977634512088,0.001090830782496456,8.290379428925876,58.408884032520625,-29.5625
1772911372.5293515,0.00025345584558081314,0.6344099082662675,-9.112675523541109,-0.2252250395510102,-1.5424305582199171,9.757121203588623,0.0010032343814392105,-0.0011718977634512088,0.001090830782496456,8.290379428925876,58.408884032520625,-29.5625
1772911372.5554488,0.00025345584558081314,0.6344099082662675,-9.112675523541109,-0.22383740198817395,-1.5474949511867755,9.758084193146491,-8.433169100599911e-05,-0.0010875660724452097,0.001090830782496456,8.697578950331913,58.00118340734733,-28.75
1772911372.5774314,0.00025345584558081314,0.6344099082662675,-9.112675523541109,-0.22383740198817395,-1.5474949511867755,9.758084193146491,-8.433169100599911e-05,-0.0010875660724452097,0.001090830782496456,8.697578950331913,58.00118340734733,-28.75
1772911372.622324,0.00025345584558081314,0.6344099082662675,-9.112675523541109,-0.2195788444538604,-1.5511238573798916,9.758725051939955,0.0008345709994272123,-0.0033470299083416285,0.0,8.697578950331913,58.00118340734733,-28.75
1772911372.6779048,0.00025345584558081314,0.6344099082662675,-9.112675523541109,-0.22127040291940808,-1.5512936883994872,9.759435356891029,0.001256229454457208,0.0020908004538844204,-0.001090830782496456,8.103941695014944,59.238279729021485,-28.375
1772911372.7049656,0.00025345584558081314,0.6344099082662675,-9.112675523541109,-0.2242821264765534,-1.5497995558298063,9.756279124611137,-8.433169100599911e-05,-0.0010875660724452097,0.001090830782496456,8.103941695014944,59.238279729021485,-28.375
1772911372.724203,0.00025345584558081314,0.6344099082662675,-9.112675523541109,-0.2242821264765534,-1.5497995558298063,9.756279124611137,-8.433169100599911e-05,-0.0010875660724452097,0.001090830782496456,8.103941695014944,59.238279729021485,-28.375
1772911372.7394583,0.00025345584558081314,0.6344099082662675,-9.112675523541109,-0.22320990387015213,-1.5523989367790596,9.754178687286293,0.00016866338201199823,0.0021751321448904193,0.0,8.697578950331913,58.00118340734733,-29.1875
1772911372.7586482,0.00025345584558081314,0.6344099082662675,-9.112675523541109,-0.21916125146593016,-1.5543874050104483,9.752780869710033,8.433169100599911e-05,0.0010875660724452097,-0.001090830782496456,8.697578950331913,58.00118340734733,-29.1875
1772911372.803526,0.00025345584558081314,0.6344099082662675,-9.112675523541109,-0.2162083092706828,-1.5523756081686184,9.751850637727678,0.003347029908341628,0.0008345709994272123,-0.001090830782496456,8.697578950331913,58.00118340734733,2018.0
1772911372.8330312,0.00025345584558081314,0.6344099082662675,-9.112675523541109,-0.2162083092706828,-1.5523756081686184,9.751850637727678,0.003347029908341628,0.0008345709994272123,-0.001090830782496456,8.697578950331913,58.00118340734733,2018.0
1772911372.857328,0.00025345584558081314,0.6344099082662675,-9.112675523541109,-0.21757825946344467,-1.5507781705969759,9.751231578734792,8.433169100599911e-05,0.0010875660724452097,0.0,8.697578950331913,58.00118340734733,2018.0
1772911372.8851743,0.00025345584558081314,0.6344099082662675,-9.112675523541109,-0.21848994601338131,-1.5497150937375943,9.750819601890369,0.0,0.0,0.0,8.726570050174983,58.37506108270371,-28.75
1772911372.9028864,0.00025345584558081314,0.6344099082662675,-9.112675523541109,-0.2193552724748064,-1.552342728200196,9.750545435902488,0.0009189026904332114,-0.0022594638358964187,0.0,8.726570050174983,58.37506108270371,-28.75
1772911372.9260864,0.00025345584558081314,0.6344099082662675,-9.112675523541109,-0.21967252832190656,-1.5507562893452838,9.750362981500187,0.0007502393084212131,-0.0044345959807868375,0.0,8.726570050174983,58.37506108270371,-28.75
1772911372.9447753,0.00025345584558081314,0.6344099082662675,-9.112675523541109,-0.21967252832190656,-1.5507562893452838,9.750362981500187,0.0007502393084212131,-0.0044345959807868375,0.0,8.726570050174983,58.37506108270371,-28.75
1772911372.9621265,0.00025345584558081314,0.6344099082662675,-9.112675523541109,-0.2165485583069984,-1.5499591412556715,9.753586671840925,0.00016866338201199823,0.0021751321448904193,-0.001090830782496456,9.483487997068172,57.626804628223695,-29.5625
1772911372.9806323,0.00025345584558081314,0.6344099082662675,-9.112675523541109,-0.21446959115910866,-1.5494286481067618,9.755732001751705,0.0,0.0,-0.001090830782496456,9.483487997068172,57.626804628223695,-29.5625
1772911373.0014358,0.00025345584558081314,0.6344099082662675,-9.112675523541109,-0.2161625527362977,-1.5454819013583376,9.757159694842423,-0.00025299507301799736,-0.003262698217335629,0.001090830782496456,9.483487997068172,57.626804628223695,-29.5625
1772911373.020716,0.00025345584558081314,0.6344099082662675,-9.112675523541109,-0.2161625527362977,-1.5454819013583376,9.757159694842423,-0.00025299507301799736,-0.003262698217335629,0.001090830782496456,9.483487997068172,57.626804628223695,-29.5625
1772911373.0449874,0.00025345584558081314,0.6344099082662675,-9.112675523541109,-0.21754780900094534,-1.5461904857224846,9.758109808645921,-0.001256229454457208,-0.0020908004538844204,0.0,9.708580530769865,57.295912498864666,-29.1875
1772911373.063644,0.00025345584558081314,0.6344099082662675,-9.112675523541109,-0.21846968157074198,-1.5466620407014184,9.762087210476,-0.001256229454457208,-0.0020908004538844204,0.001090830782496456,9.708580530769865,57.295912498864666,-29.1875
1772911373.0943632,0.00025345584558081314,0.6344099082662675,-9.112675523541109,-0.22241827770512354,-1.5467172460256364,9.768079238670747,-0.00016866338201199823,-0.0021751321448904193,0.002181661564992912,9.708580530769865,57.295912498864666,-29.1875
1772911373.1087956,0.00025345584558081314,0.6344099082662675,-9.112675523541109,-0.22241827770512354,-1.5467172460256364,9.768079238670747,-0.00016866338201199823,-0.0021751321448904193,0.002181661564992912,9.708580530769865,57.295912498864666,-29.1875
1772911373.122276,0.00025345584558081314,0.6344099082662675,-9.112675523541109,-0.2250460243238455,-1.5467539845522194,9.772066866499012,-0.001256229454457208,-0.0020908004538844204,0.001090830782496456,8.726570050174983,58.37506108270371,-28.0
1772911373.1369982,0.00025345584558081314,0.6344099082662675,-9.112675523541109,-0.22012455987040536,-1.547295652124561,9.768030364859362,-0.001256229454457208,-0.0020908004538844204,-0.001090830782496456,8.726570050174983,58.37506108270371,-28.0
1772911373.1564806,0.00025345584558081314,0.6344099082662675,-9.112675523541109,-0.2168493802530011,-1.5476561258431312,9.765344118108851,-0.0009189026904332114,0.0022594638358964187,0.001090830782496456,8.726570050174983,58.37506108270371,-28.0
1772911373.1911144,0.00025345584558081314,0.6344099082662675,-9.112675523541109,-0.2168493802530011,-1.5476561258431312,9.765344118108851,-0.0009189026904332114,0.0022594638358964187,0.001090830782496456,8.726570050174983,58.37506108270371,-28.0
1772911373.2323616,0.00025345584558081314,0.6344099082662675,-9.112675523541109,-0.2146697848037721,-1.547896017076084,9.76355645090373,-0.0022594638358964182,-0.0009189026904332114,0.002181661564992912,8.377352728455088,59.53051705858976,-29.1875
1772911373.2511106,0.00025345584558081314,0.6344099082662675,-9.112675523541109,-0.21321928837998672,-1.5480556620118537,9.762366778348273,-0.001256229454457208,-0.0020908004538844204,-0.001090830782496456,8.377352728455088,59.53051705858976,-29.1875
1772911373.2723143,0.00025345584558081314,0.6344099082662675,-9.112675523541109,-0.21321928837998672,-1.5480556620118537,9.762366778348273,-0.001256229454457208,-0.0020908004538844204,-0.001090830782496456,8.377352728455088,59.53051705858976,-29.1875
1772911373.3266792,0.00025345584558081314,0.6344099082662675,-9.112675523541109,-0.21204232086690214,-1.5537871789346533,9.764393299572138,-0.0010875660724452097,8.433169100599911e-05,0.001090830782496456,9.814881230194459,58.66679730850472,-29.1875
1772911373.365761,0.00025345584558081314,0.6344099082662675,-9.112675523541109,-0.21204232086690214,-1.5537871789346533,9.764393299572138,-0.0010875660724452097,8.433169100599911e-05,0.001090830782496456,9.814881230194459,58.66679730850472,-29.1875
1772911373.4045193,0.00025345584558081314,0.6344099082662675,-9.112675523541109,-0.2117293497273434,-1.5553112646573148,9.769613915203525,-0.0022594638358964182,-0.0009189026904332114,0.001090830782496456,9.732739780639092,57.607477228328314,-29.1875
1772911373.4422994,0.00025345584558081314,0.6344099082662675,-9.112675523541109,-0.21152107093008377,-1.5563255266805929,9.773088176588114,-0.0023437955269024176,-0.002006468762878421,-0.001090830782496456,9.732739780639092,57.607477228328314,-29.1875
1772911373.4556882,0.00025345584558081314,0.6344099082662675,-9.112675523541109,-0.21152107093008377,-1.5563255266805929,9.773088176588114,-0.0023437955269024176,-0.002006468762878421,-0.001090830782496456,9.732739780639092,57.607477228328314,-29.1875
1772911373.5132983,0.00025345584558081314,0.6344099082662675,-9.112675523541109,-0.21471756395430736,-1.5567418974803873,9.768710035314879,0.0010032343814392105,-0.0011718977634512088,0.001090830782496456,9.047297375819065,57.66062757804061,-29.5625
1772911373.6166608,0.00025345584558081314,0.6344099082662675,-9.112675523541109,-0.21604097047121498,-1.5573754895382361,9.76385746021627,0.0020908004538844204,-0.001256229454457208,0.001090830782496456,8.319370528768946,58.782761707877,-29.5625
1772911373.6942608,0.00025345584558081314,0.6344099082662675,-9.112675523541109,-0.21439040637117077,-1.5576992452799434,9.765912208390594,-0.001256229454457208,-0.0020908004538844204,0.001090830782496456,8.319370528768946,58.782761707877,-29.5625
1772911373.7651122,0.00025345584558081314,0.6344099082662675,-9.112675523541109,-0.21277475590730377,-1.5512445006351143,9.770624732054884,8.433169100599911e-05,0.0010875660724452097,0.0,9.10044772553136,58.346069982860634,-29.5625
1772911373.796048,0.00025345584558081314,0.6344099082662675,-9.112675523541109,-0.21277475590730377,-1.5512445006351143,9.770624732054884,8.433169100599911e-05,0.0010875660724452097,0.0,9.10044772553136,58.346069982860634,-29.5625
1772911373.8396523,0.00025345584558081314,0.6344099082662675,-9.112675523541109,-0.21169955857159856,-1.5469489401782028,9.77376086391113,0.0011718977634512088,0.0010032343814392105,0.001090830782496456,9.10044772553136,58.346069982860634,-29.5625
1772911373.9331942,0.00025345584558081314,0.6344099082662675,-9.112675523541109,-0.21098402675542793,-1.5440902926786824,9.772502812921255,0.0010875660724452097,-8.433169100599911e-05,0.0,9.10044772553136,58.346069982860634,-30.0
1772911373.982802,0.00025345584558081314,0.6344099082662675,-9.112675523541109,-0.21384294856195377,-1.5419292854542883,9.771665594040844,0.0011718977634512088,0.0010032343814392105,0.001090830782496456,9.10044772553136,58.346069982860634,-30.0
1772911374.0612113,0.00025345584558081314,0.6344099082662675,-9.112675523541109,-0.21367657493760614,-1.5397927116333845,9.770737650596896,8.433169100599911e-05,0.0010875660724452097,0.0,9.07145662568829,57.97219230750426,-29.1875
1772911374.1629868,0.00025345584558081314,0.6344099082662675,-9.112675523541109,-0.21229970906228612,-1.5393279025224167,9.767145786524818,0.0,0.0,0.001090830782496456,10.097454859815036,58.268760383279115,-30.0
1772911374.2070901,0.00025345584558081314,0.6344099082662675,-9.112675523541109,-0.21138342020286027,-1.5390185772513258,9.761410329401281,-0.0010032343814392105,0.0011718977634512088,0.002181661564992912,10.097454859815036,58.268760383279115,-30.0
1772911374.2325435,0.00025345584558081314,0.6344099082662675,-9.112675523541109,-0.21410874043970285,-1.538554115492156,9.76093855846214,-8.433169100599911e-05,-0.0010875660724452097,0.0,9.10044772553136,58.346069982860634,-29.1875
1772911374.2534547,0.00025345584558081314,0.6344099082662675,-9.112675523541109,-0.2161810198601481,-1.5415801216169795,9.753934376757531,-0.0010032343814392105,0.0011718977634512088,-0.001090830782496456,9.10044772553136,58.346069982860634,-29.1875
1772911374.296879,0.00025345584558081314,0.6344099082662675,-9.112675523541109,-0.2175600986655765,-1.5435938948903463,9.755963395489587,-0.0008345709994272123,0.0033470299083416285,-0.001090830782496456,9.10044772553136,58.346069982860634,-29.1875
1772911374.35456,0.00025345584558081314,0.6344099082662675,-9.112675523541109,-0.21847786020526944,-1.5449340385084505,9.757313684790148,-0.00016866338201199823,-0.0021751321448904193,0.0,8.697578950331913,58.00118340734733,-29.5625
1772911374.4295447,0.00025345584558081314,0.6344099082662675,-9.112675523541109,-0.21847786020526944,-1.5449340385084505,9.757313684790148,-0.00016866338201199823,-0.0021751321448904193,0.0,8.697578950331913,58.00118340734733,-29.5625
1772911374.4826949,0.00025345584558081314,0.6344099082662675,-9.112675523541109,-0.21883001101121863,-1.5424907888787405,9.758212287235951,0.0022594638358964182,0.0009189026904332114,-0.001090830782496456,7.9879772956426605,57.742769027595976,-28.375
1772911374.5336342,0.00025345584558081314,0.6344099082662675,-9.112675523541109,-0.21906436343879557,-1.5408648335430553,9.762155408832905,-8.433169100599911e-05,-0.0010875660724452097,-0.001090830782496456,7.9879772956426605,57.742769027595976,-28.375
1772911374.5827878,0.00025345584558081314,0.6344099082662675,-9.112675523541109,-0.21922032236145986,-1.5397827784302676,9.764779512208124,-8.433169100599911e-05,-0.0010875660724452097,-0.001090830782496456,9.07145662568829,57.97219230750426,-29.5625
1772911374.6385944,0.00025345584558081314,0.6344099082662675,-9.112675523541109,-0.21958272052896596,-1.5423977830772286,9.766525823691175,-8.433169100599911e-05,-0.0010875660724452097,0.0,9.07145662568829,57.97219230750426,-29.5625
1772911374.6807017,0.00025345584558081314,0.6344099082662675,-9.112675523541109,-0.2164887922240152,-1.5443966487049134,9.76434286276825,0.0011718977634512088,0.0010032343814392105,0.001090830782496456,10.097454859815036,58.268760383279115,-28.75
1772911374.7164009,0.00025345584558081314,0.6344099082662675,-9.112675523541109,-0.21442981749851422,-1.5457268714513457,9.762890126659315,0.0009189026904332114,-0.0022594638358964187,0.0,10.097454859815036,58.268760383279115,-28.75
1772911374.7392004,0.00025345584558081314,0.6344099082662675,-9.112675523541109,-0.21972979329329456,-1.546094901336238,9.761923347006944,0.0020908004538844204,-0.001256229454457208,0.0,8.697578950331913,58.00118340734733,-28.75
1772911374.760145,0.00025345584558081314,0.6344099082662675,-9.112675523541109,-0.21972979329329456,-1.546094901336238,9.761923347006944,0.0020908004538844204,-0.001256229454457208,0.0,8.697578950331913,58.00118340734733,-28.75
1772911374.7954865,0.00025345584558081314,0.6344099082662675,-9.112675523541109,-0.22325686798011202,-1.5463398211134705,9.75458974253329,0.002006468762878421,-0.0023437955269024176,-0.001090830782496456,8.697578950331913,58.00118340734733,-28.75
1772911374.8166175,0.00025345584558081314,0.6344099082662675,-9.112675523541109,-0.2222689965470099,-1.5467614217359338,9.75639953409244,0.0010875660724452097,-8.433169100599911e-05,0.001090830782496456,9.047297375819065,57.66062757804061,-30.0
1772911374.8492632,0.00025345584558081314,0.6344099082662675,-9.112675523541109,-0.22161157914352742,-1.5470419922405958,9.757603930158359,-0.0011718977634512088,-0.0010032343814392105,0.0,9.047297375819065,57.66062757804061,-30.0
1772911374.9121518,0.00025345584558081314,0.6344099082662675,-9.112675523541109,-0.21450387473099689,-1.5477459272705671,9.758405442286241,0.0,0.0,0.0,8.261388329082806,58.03500635716424,-30.0
1772911374.9319637,0.00025345584558081314,0.6344099082662675,-9.112675523541109,-0.2161853680704167,-1.5443620694390734,9.75893883965387,-0.0021751321448904193,0.00016866338201199823,-0.001090830782496456,8.261388329082806,58.03500635716424,-30.0
1772911374.9511273,0.00025345584558081314,0.6344099082662675,-9.112675523541109,-0.2161853680704167,-1.5443620694390734,9.75893883965387,-0.0021751321448904193,0.00016866338201199823,-0.001090830782496456,8.261388329082806,58.03500635716424,-30.0
1772911374.971681,0.00025345584558081314,0.6344099082662675,-9.112675523541109,-0.21089279187659105,-1.5459624685828532,9.759293809643589,-0.0009189026904332114,0.0022594638358964187,0.0,8.261388329082806,58.03500635716424,-30.0
1772911374.9865541,0.00025345584558081314,0.6344099082662675,-9.112675523541109,-0.21404084201589652,-1.546510297842112,9.759530038206472,-0.0010875660724452097,8.433169100599911e-05,-0.001090830782496456,9.10044772553136,58.346069982860634,-29.1875
1772911375.007802,0.00025345584558081314,0.6344099082662675,-9.112675523541109,-0.21404084201589652,-1.546510297842112,9.759530038206472,-0.0010875660724452097,8.433169100599911e-05,-0.001090830782496456,9.10044772553136,58.346069982860634,-29.1875
1772911375.024627,0.00025345584558081314,0.6344099082662675,-9.112675523541109,-0.2161358342175801,-1.5468748720944951,9.759687245676224,0.00016866338201199823,0.0021751321448904193,-0.001090830782496456,9.10044772553136,58.346069982860634,-29.1875
1772911375.0383582,0.00025345584558081314,0.6344099082662675,-9.112675523541109,-0.22060651911572915,-1.5435237827030732,9.759791865491222,0.00033732676402399646,0.004350264289780839,0.0,9.10044772553136,58.346069982860634,-29.1875
1772911375.055482,0.00025345584558081314,0.6344099082662675,-9.112675523541109,-0.22060651911572915,-1.5435237827030732,9.759791865491222,0.00033732676402399646,0.004350264289780839,0.0,9.10044772553136,58.346069982860634,-29.1875
1772911375.075956,0.00025345584558081314,0.6344099082662675,-9.112675523541109,-0.2202466097374515,-1.5415522793938514,9.753171265394784,-0.0010032343814392105,0.0011718977634512088,0.0,10.126445959658106,58.64263805863549,-29.5625
1772911375.096565,0.00025345584558081314,0.6344099082662675,-9.112675523541109,-0.2202466097374515,-1.5415522793938514,9.753171265394784,-0.0010032343814392105,0.0011718977634512088,0.0,10.126445959658106,58.64263805863549,-29.5625
1772911375.1262805,0.00025345584558081314,0.6344099082662675,-9.112675523541109,-0.22000709406665891,-1.5402402659646994,9.748765329987554,0.00025299507301799736,0.003262698217335629,-0.001090830782496456,10.126445959658106,58.64263805863549,-29.5625
1772911375.1434057,0.00025345584558081314,0.6344099082662675,-9.112675523541109,-0.2201063083099601,-1.5427022359209224,9.745833229191566,0.0010032343814392105,-0.0011718977634512088,0.0,10.126445959658106,58.64263805863549,-29.5625
1772911375.1723545,0.00025345584558081314,0.6344099082662675,-9.112675523541109,-0.22017233428058136,-1.5443406494247822,9.743881948865548,0.00033732676402399646,0.004350264289780839,0.0,9.163261775191348,59.15613827946612,-29.5625
1772911375.2202706,0.00025345584558081314,0.6344099082662675,-9.112675523541109,-0.22355137406364464,-1.5451723860626747,9.745928505313131,-0.0009189026904332114,0.0022594638358964187,0.0,9.163261775191348,59.15613827946612,-29.5625
1772911375.258375,0.00025345584558081314,0.6344099082662675,-9.112675523541109,-0.21938849606522742,-1.549578216234555,9.747290465767465,0.0013405611454632071,0.0031783665263296302,-0.002181661564992912,9.483487997068172,57.626804628223695,-29.5625
1772911375.2885182,0.00025345584558081314,0.6344099082662675,-9.112675523541109,-0.21995324749684822,-1.5522516377509452,9.758232170357687,8.433169100599911e-05,0.0010875660724452097,-0.001090830782496456,9.483487997068172,57.626804628223695,-29.5625
1772911375.306585,0.00025345584558081314,0.6344099082662675,-9.112675523541109,-0.21699398302873177,-1.5542893791526762,9.76551375253563,-0.0008345709994272123,0.0033470299083416285,0.0,9.483487997068172,57.626804628223695,-29.5625
1772911375.3268757,0.00025345584558081314,0.6344099082662675,-9.112675523541109,-0.21699398302873177,-1.5542893791526762,9.76551375253563,-0.0008345709994272123,0.0033470299083416285,0.0,9.483487997068172,57.626804628223695,-29.5625
1772911375.3467925,0.00025345584558081314,0.6344099082662675,-9.112675523541109,-0.217842507326227,-1.5487166635714702,9.76701445242713,-0.0010875660724452097,8.433169100599911e-05,0.0,9.163261775191348,59.15613827946612,-29.1875
1772911375.3769662,0.00025345584558081314,0.6344099082662675,-9.112675523541109,-0.21558930902369597,-1.5519368933244844,9.761322928026368,0.0010875660724452097,-8.433169100599911e-05,-0.001090830782496456,9.163261775191348,59.15613827946612,-29.1875
1772911375.404636,0.00025345584558081314,0.6344099082662675,-9.112675523541109,-0.21383122147658748,-1.5507448200156186,9.757535282116155,8.433169100599911e-05,0.0010875660724452097,0.002181661564992912,8.726570050174983,58.37506108270371,-29.1875
1772911375.425753,0.00025345584558081314,0.6344099082662675,-9.112675523541109,-0.21383122147658748,-1.5507448200156186,9.757535282116155,8.433169100599911e-05,0.0010875660724452097,0.002181661564992912,8.726570050174983,58.37506108270371,-29.1875
1772911375.4461946,0.00025345584558081314,0.6344099082662675,-9.112675523541109,-0.20932613361593821,-1.5502101177915482,9.755014646073684,0.0009189026904332114,-0.0022594638358964187,0.001090830782496456,8.726570050174983,58.37506108270371,-29.1875
1772911375.4644303,0.00025345584558081314,0.6344099082662675,-9.112675523541109,-0.20932613361593821,-1.5502101177915482,9.755014646073684,0.0009189026904332114,-0.0022594638358964187,0.001090830782496456,8.726570050174983,58.37506108270371,-29.1875
1772911375.482871,0.00025345584558081314,0.6344099082662675,-9.112675523541109,-0.206328047969805,-1.5498542794344445,9.75668230265209,0.0,0.0,0.002181661564992912,9.44100355483808,58.69578840834779,-29.1875
1772911375.502382,0.00025345584558081314,0.6344099082662675,-9.112675523541109,-0.20433285546311442,-1.5496174729827672,9.757792109476073,-0.003347029908341628,-0.0008345709994272123,0.0,9.44100355483808,58.69578840834779,-29.1875
1772911375.5265377,0.00025345584558081314,0.6344099082662675,-9.112675523541109,-0.20967527761201904,-1.5489426624411804,9.75853067352008,0.0,0.0,0.0,9.44100355483808,58.69578840834779,-29.1875
1772911375.552591,0.00025345584558081314,0.6344099082662675,-9.112675523541109,-0.20967527761201904,-1.5489426624411804,9.75853067352008,0.0,0.0,0.0,9.44100355483808,58.69578840834779,-29.1875
1772911375.572485,0.00025345584558081314,0.6344099082662675,-9.112675523541109,-0.212971990626701,-1.5451584833267087,9.755677067933746,-0.0010875660724452097,8.433169100599911e-05,0.002181661564992912,9.047297375819065,57.66062757804061,-28.75
1772911375.5909483,0.00025345584558081314,0.6344099082662675,-9.112675523541109,-0.2151659163112745,-1.5426401543980786,9.757123137000223,-0.0010875660724452097,8.433169100599911e-05,0.001090830782496456,9.047297375819065,57.66062757804061,-28.75
1772911375.6159792,0.00025345584558081314,0.6344099082662675,-9.112675523541109,-0.21688455859325073,-1.5442993348648255,9.758085479810314,-0.0011718977634512088,-0.0010032343814392105,0.001090830782496456,9.047297375819065,57.66062757804061,-28.75
1772911375.637223,0.00025345584558081314,0.6344099082662675,-9.112675523541109,-0.21688455859325073,-1.5442993348648255,9.758085479810314,-0.0011718977634512088,-0.0010032343814392105,0.001090830782496456,9.047297375819065,57.66062757804061,-28.75
1772911375.6530025,0.00025345584558081314,0.6344099082662675,-9.112675523541109,-0.21828690508006204,-1.5487386011683588,9.762071019907674,-0.002512458908914416,-0.004181600907768841,0.0,8.673419700462686,57.68961867788368,-29.1875
1772911375.6698015,0.00025345584558081314,0.6344099082662675,-9.112675523541109,-0.21896154175514995,-1.5483577830663333,9.768068464028387,0.00016866338201199823,0.0021751321448904193,0.0,8.673419700462686,57.68961867788368,-29.1875
1772911375.7056456,0.00025345584558081314,0.6344099082662675,-9.112675523541109,-0.21896154175514995,-1.5483577830663333,9.768068464028387,0.00016866338201199823,0.0021751321448904193,0.0,8.673419700462686,57.68961867788368,-29.1875
1772911375.7392635,0.00025345584558081314,0.6344099082662675,-9.112675523541109,-0.21966911417288382,-1.5514394531106253,9.768714584387562,8.433169100599911e-05,0.0010875660724452097,0.001090830782496456,8.290379428925876,58.408884032520625,-28.75
1772911375.7646596,0.00025345584558081314,0.6344099082662675,-9.112675523541109,-0.21654628622896233,-1.5504137791100667,9.765799458561636,0.00025299507301799736,0.003262698217335629,-0.001090830782496456,8.290379428925876,58.408884032520625,-28.75
1772911375.7986252,0.00025345584558081314,0.6344099082662675,-9.112675523541109,-0.21754457010708136,-1.5461374950364029,9.757169251473933,-0.0011718977634512088,-0.0010032343814392105,0.002181661564992912,8.290379428925876,58.408884032520625,-28.75
1772911375.8247073,0.00025345584558081314,0.6344099082662675,-9.112675523541109,-0.21754457010708136,-1.5461374950364029,9.757169251473933,-0.0011718977634512088,-0.0010032343814392105,0.002181661564992912,8.290379428925876,58.408884032520625,-28.75
1772911375.8450928,0.00025345584558081314,0.6344099082662675,-9.112675523541109,-0.2148738166392347,-1.543550285001251,9.758116168477436,0.0011718977634512088,0.0010032343814392105,0.001090830782496456,9.10044772553136,58.346069982860634,-29.1875
1772911375.8794005,0.00025345584558081314,0.6344099082662675,-9.112675523541109,-0.21309646004065383,-1.5418285256238868,9.752056107750871,-0.0013405611454632071,-0.0031783665263296302,0.003272492347489368,9.10044772553136,58.346069982860634,-29.1875
1772911375.9018984,0.00025345584558081314,0.6344099082662675,-9.112675523541109,-0.21309646004065383,-1.5418285256238868,9.752056107750871,-0.0013405611454632071,-0.0031783665263296302,0.003272492347489368,9.10044772553136,58.346069982860634,-29.1875
1772911375.9274135,0.00025345584558081314,0.6344099082662675,-9.112675523541109,-0.21191364907867236,-1.5406827139915638,9.754713428447296,-0.00016866338201199823,-0.0021751321448904193,-0.001090830782496456,9.38302135515194,57.94803305763503,-29.1875
1772911375.9490445,0.00025345584558081314,0.6344099082662675,-9.112675523541109,-0.21191364907867236,-1.5406827139915638,9.754713428447296,-0.00016866338201199823,-0.0021751321448904193,-0.001090830782496456,9.38302135515194,57.94803305763503,-29.1875
1772911375.9718869,0.00025345584558081314,0.6344099082662675,-9.112675523541109,-0.2111265015963379,-1.5399201891498073,9.74979162227191,-0.0011718977634512088,-0.0010032343814392105,0.0,9.38302135515194,57.94803305763503,-29.1875
1772911376.0126882,0.00025345584558081314,0.6344099082662675,-9.112675523541109,-0.2111265015963379,-1.5399201891498073,9.74979162227191,-0.0011718977634512088,-0.0010032343814392105,0.0,9.38302135515194,57.94803305763503,-29.1875
1772911376.0516608,0.00025345584558081314,0.6344099082662675,-9.112675523541109,-0.2106026637398578,-1.5394127373855788,9.753206438657008,-0.0010032343814392105,0.0011718977634512088,0.002181661564992912,9.047297375819065,57.66062757804061,-29.1875
1772911376.0777204,0.00025345584558081314,0.6344099082662675,-9.112675523541109,-0.2106026637398578,-1.5394127373855788,9.753206438657008,-0.0010032343814392105,0.0011718977634512088,0.002181661564992912,9.047297375819065,57.66062757804061,-29.1875
1772911376.0975935,0.00025345584558081314,0.6344099082662675,-9.112675523541109,-0.21051266474467092,-1.5424101341422658,9.755478960815292,-0.0010875660724452097,8.433169100599911e-05,0.0,9.047297375819065,57.66062757804061,-29.1875
1772911376.1178882,0.00025345584558081314,0.6344099082662675,-9.112675523541109,-0.21378787165590196,-1.5441462589540769,9.756991298925893,-0.001256229454457208,-0.0020908004538844204,0.0,9.44100355483808,58.69578840834779,-28.375
1772911376.142492,0.00025345584558081314,0.6344099082662675,-9.112675523541109,-0.21378787165590196,-1.5441462589540769,9.756991298925893,-0.001256229454457208,-0.0020908004538844204,0.0,9.44100355483808,58.69578840834779,-28.375
1772911376.1603947,0.00025345584558081314,0.6344099082662675,-9.112675523541109,-0.21596748526886778,-1.5453016306225522,9.757997743044575,-0.0009189026904332114,0.0022594638358964187,0.0,9.44100355483808,58.69578840834779,-28.375
1772911376.1881084,0.00025345584558081314,0.6344099082662675,-9.112675523541109,-0.21596748526886778,-1.5453016306225522,9.757997743044575,-0.0009189026904332114,0.0022594638358964187,0.0,9.44100355483808,58.69578840834779,-28.375
1772911376.2028575,0.00025345584558081314,0.6344099082662675,-9.112675523541109,-0.21382428429659553,-1.5429940265710507,9.76201263207016,-0.0011718977634512088,-0.0010032343814392105,-0.001090830782496456,9.785890130351387,58.29291963314834,-28.375
1772911376.2175632,0.00025345584558081314,0.6344099082662675,-9.112675523541109,-0.2123980079906719,-1.5414583418524026,9.764684495867437,-0.001256229454457208,-0.0020908004538844204,0.0,9.785890130351387,58.29291963314834,-28.375
1772911376.2482252,0.00025345584558081314,0.6344099082662675,-9.112675523541109,-0.21144883704163003,-1.5404363608268645,9.763117479670532,-0.0011718977634512088,-0.0010032343814392105,0.001090830782496456,9.785890130351387,58.29291963314834,-28.375
1772911376.2712998,0.00025345584558081314,0.6344099082662675,-9.112675523541109,-0.21144883704163003,-1.5404363608268645,9.763117479670532,-0.0011718977634512088,-0.0010032343814392105,0.001090830782496456,9.785890130351387,58.29291963314834,-28.375
1772911376.2861729,0.00025345584558081314,0.6344099082662675,-9.112675523541109,-0.21415227461515016,-1.5394976346239968,9.76207464789621,0.0,0.0,0.001090830782496456,9.785890130351387,58.29291963314834,-28.75
1772911376.3000817,0.00025345584558081314,0.6344099082662675,-9.112675523541109,-0.21415227461515016,-1.5394976346239968,9.76207464789621,0.0,0.0,0.001090830782496456,9.785890130351387,58.29291963314834,-28.75
1772911376.3149548,0.00025345584558081314,0.6344099082662675,-9.112675523541109,-0.2126162818837781,-1.5391315320688954,9.761380654999591,-0.0010875660724452097,8.433169100599911e-05,0.001090830782496456,9.785890130351387,58.29291963314834,-28.75
1772911376.3275564,0.00025345584558081314,0.6344099082662675,-9.112675523541109,-0.2126162818837781,-1.5391315320688954,9.761380654999591,-0.0010875660724452097,8.433169100599911e-05,0.001090830782496456,9.785890130351387,58.29291963314834,-28.75
1772911376.353099,0.00025345584558081314,0.6344099082662675,-9.112675523541109,-0.21159409587921305,-1.538887894908109,9.760918810479302,0.0010032343814392105,-0.0011718977634512088,0.0,9.07145662568829,57.97219230750426,-28.75
1772911376.3670514,0.00025345584558081314,0.6344099082662675,-9.112675523541109,-0.21091384251174083,-1.538725757099211,9.760611458110189,0.001256229454457208,0.0020908004538844204,0.001090830782496456,9.07145662568829,57.97219230750426,-28.75
1772911376.4043515,0.00025345584558081314,0.6344099082662675,-9.112675523541109,-0.2140548509784377,-1.5416943471891122,9.760406918541896,0.0010032343814392105,-0.0011718977634512088,0.001090830782496456,9.07145662568829,57.97219230750426,-28.75
1772911376.443576,0.00025345584558081314,0.6344099082662675,-9.112675523541109,-0.21614515702566087,-1.5436699107326175,9.760270799744054,0.0010032343814392105,-0.0011718977634512088,-0.001090830782496456,9.07145662568829,57.97219230750426,-30.0
1772911376.4588554,0.00025345584558081314,0.6344099082662675,-9.112675523541109,-0.21614515702566087,-1.5436699107326175,9.760270799744054,0.0010032343814392105,-0.0011718977634512088,-0.001090830782496456,9.07145662568829,57.97219230750426,-30.0
1772911376.479917,0.00025345584558081314,0.6344099082662675,-9.112675523541109,-0.21753623234983938,-1.5449846262023295,9.760180214204636,-8.433169100599911e-05,-0.0010875660724452097,-0.001090830782496456,9.07145662568829,57.97219230750426,-30.0
1772911376.5189483,0.00025345584558081314,0.6344099082662675,-9.112675523541109,-0.21512687720157733,-1.546118163907737,9.756774818832742,0.0020908004538844204,-0.001256229454457208,0.002181661564992912,8.290379428925876,58.408884032520625,-30.0
1772911376.5490122,0.00025345584558081314,0.6344099082662675,-9.112675523541109,-0.21352347826466947,-1.5468725205882399,9.754508566253504,0.0011718977634512088,0.0010032343814392105,0.001090830782496456,8.290379428925876,58.408884032520625,-30.0
1772911376.5763745,0.00025345584558081314,0.6344099082662675,-9.112675523541109,-0.21352347826466947,-1.5468725205882399,9.754508566253504,0.0011718977634512088,0.0010032343814392105,0.001090830782496456,8.290379428925876,58.408884032520625,-30.0
1772911376.6090667,0.00025345584558081314,0.6344099082662675,-9.112675523541109,-0.212456434183297,-1.5473745365323983,9.753000400477722,0.0010032343814392105,-0.0011718977634512088,-0.001090830782496456,8.726570050174983,58.37506108270371,-30.0
1772911376.6440387,0.00025345584558081314,0.6344099082662675,-9.112675523541109,-0.21508142850398027,-1.547450013288702,9.755341844708575,8.433169100599911e-05,0.0010875660724452097,-0.001090830782496456,8.726570050174983,58.37506108270371,-30.0
1772911376.6977968,0.00025345584558081314,0.6344099082662675,-9.112675523541109,-0.21708694214793542,-1.5508353424640646,9.76024516139588,0.0010875660724452097,-8.433169100599911e-05,0.002181661564992912,9.785890130351387,58.29291963314834,-30.75
1772911376.7116554,0.00025345584558081314,0.6344099082662675,-9.112675523541109,-0.21816297982828392,-1.5497531409764902,9.766853375584963,-0.00016866338201199823,-0.0021751321448904193,0.0,9.785890130351387,58.29291963314834,-30.75
1772911376.725702,0.00025345584558081314,0.6344099082662675,-9.112675523541109,-0.21862046163777907,-1.5456978477383192,9.77125106830921,0.0009189026904332114,-0.0022594638358964187,0.0,9.785890130351387,58.29291963314834,-30.75
1772911376.7398157,0.00025345584558081314,0.6344099082662675,-9.112675523541109,-0.21862046163777907,-1.5456978477383192,9.77125106830921,0.0009189026904332114,-0.0022594638358964187,0.0,9.785890130351387,58.29291963314834,-30.75
1772911376.7547238,0.00025345584558081314,0.6344099082662675,-9.112675523541109,-0.21558981043441816,-1.5432577046355584,9.767487460277112,0.0010875660724452097,-8.433169100599911e-05,0.001090830782496456,9.785890130351387,58.29291963314834,-28.75
1772911376.7839296,0.00025345584558081314,0.6344099082662675,-9.112675523541109,-0.21383155515982197,-1.5449689168960286,9.764982821174007,-0.00016866338201199823,-0.0021751321448904193,0.0,9.785890130351387,58.29291963314834,-28.75
1772911376.819691,0.00025345584558081314,0.6344099082662675,-9.112675523541109,-0.21266145591557659,-1.5461077095398783,9.763316011829541,8.433169100599911e-05,0.0010875660724452097,0.001090830782496456,9.756899030508317,57.91904195779196,-28.375
1772911376.8501678,0.00025345584558081314,0.6344099082662675,-9.112675523541109,-0.21266145591557659,-1.5461077095398783,9.763316011829541,8.433169100599911e-05,0.0010875660724452097,0.001090830782496456,9.756899030508317,57.91904195779196,-28.375
1772911376.8709867,0.00025345584558081314,0.6344099082662675,-9.112675523541109,-0.21521786817656952,-1.5466069540765646,9.76220676883028,-0.0021751321448904193,0.00016866338201199823,0.001090830782496456,9.756899030508317,57.91904195779196,-28.375
1772911376.8901632,0.00025345584558081314,0.6344099082662675,-9.112675523541109,-0.21691913197926424,-1.5469391957388023,9.761468580005328,-0.0021751321448904193,0.00016866338201199823,0.001090830782496456,9.756899030508317,57.91904195779196,-28.375
1772911376.9267573,0.00025345584558081314,0.6344099082662675,-9.112675523541109,-0.21691913197926424,-1.5469391957388023,9.761468580005328,-0.0021751321448904193,0.00016866338201199823,0.001090830782496456,9.756899030508317,57.91904195779196,-28.375
1772911376.9661844,0.00025345584558081314,0.6344099082662675,-9.112675523541109,-0.21805130403559567,-1.547160298853639,9.760977323588433,-0.0021751321448904193,0.00016866338201199823,-0.001090830782496456,7.9638180457734355,57.43120429813233,-29.1875
1772911376.985031,0.00025345584558081314,0.6344099082662675,-9.112675523541109,-0.21906336113854202,-1.5506425407438522,9.760650397930682,-8.433169100599911e-05,-0.0010875660724452097,0.001090830782496456,7.9638180457734355,57.43120429813233,-29.1875
1772911377.00614,0.00025345584558081314,0.6344099082662675,-9.112675523541109,-0.21640177359796092,-1.553218543069247,9.760432832557449,-0.0011718977634512088,-0.0010032343814392105,0.001090830782496456,7.9638180457734355,57.43120429813233,-29.1875
1772911377.0319448,0.00025345584558081314,0.6344099082662675,-9.112675523541109,-0.21463051682158518,-1.5549328438409658,9.760288045231926,0.0,0.0,0.003272492347489368,8.726570050174983,58.37506108270371,-29.1875
1772911377.0471418,0.00025345584558081314,0.6344099082662675,-9.112675523541109,-0.21463051682158518,-1.5549328438409658,9.760288045231926,0.0,0.0,0.003272492347489368,8.726570050174983,58.37506108270371,-29.1875
1772911377.0943463,0.00025345584558081314,0.6344099082662675,-9.112675523541109,-0.21345176522314172,-1.5560736918545501,9.76019169088417,0.0,0.0,0.002181661564992912,8.726570050174983,58.37506108270371,-29.1875
1772911377.1675284,0.00025345584558081314,0.6344099082662675,-9.112675523541109,-0.21188666989094446,-1.5540030667259939,9.760084895173529,0.0010875660724452097,-8.433169100599911e-05,0.0,9.07145662568829,57.97219230750426,-29.1875
1772911377.2079515,0.00025345584558081314,0.6344099082662675,-9.112675523541109,-0.21136715649493057,-1.552119835333654,9.760056496789643,0.0,0.0,0.0,8.261388329082806,58.03500635716424,-29.5625
1772911377.231386,0.00025345584558081314,0.6344099082662675,-9.112675523541109,-0.21435652637040148,-1.5506079566324766,9.763382709689717,0.0,0.0,0.001090830782496456,8.261388329082806,58.03500635716424,-29.5625
1772911377.2554893,0.00025345584558081314,0.6344099082662675,-9.112675523541109,-0.21634591862907784,-1.5496018182456348,9.765596267218482,-0.0024281272179084165,-0.003094034835323631,0.001090830782496456,8.261388329082806,58.03500635716424,-29.5625
1772911377.290036,0.00025345584558081314,0.6344099082662675,-9.112675523541109,-0.21634591862907784,-1.5496018182456348,9.765596267218482,-0.0024281272179084165,-0.003094034835323631,0.001090830782496456,8.261388329082806,58.03500635716424,-29.5625
1772911377.304862,0.00025345584558081314,0.6344099082662675,-9.112675523541109,-0.2176698369542593,-1.5489322443884936,9.763724253319499,-0.00016866338201199823,-0.0021751321448904193,0.001090830782496456,9.41201245499501,58.32191073299141,-29.5625
1772911377.3175793,0.00025345584558081314,0.6344099082662675,-9.112675523541109,-0.2176698369542593,-1.5489322443884936,9.763724253319499,-0.00016866338201199823,-0.0021751321448904193,0.001090830782496456,9.41201245499501,58.32191073299141,-29.5625
1772911377.3331459,0.00025345584558081314,0.6344099082662675,-9.112675523541109,-0.22188599004770412,-1.5482280412195482,9.76247844898149,-0.0011718977634512088,-0.0010032343814392105,0.0,9.41201245499501,58.32191073299141,-29.5625
1772911377.3474894,0.00025345584558081314,0.6344099082662675,-9.112675523541109,-0.22188599004770412,-1.5482280412195482,9.76247844898149,-0.0011718977634512088,-0.0010032343814392105,0.0,9.41201245499501,58.32191073299141,-29.5625
1772911377.3815236,0.00025345584558081314,0.6344099082662675,-9.112675523541109,-0.22469179283387564,-1.5477594018770797,9.761649380111093,-0.0011718977634512088,-0.0010032343814392105,0.002181661564992912,9.41201245499501,58.32191073299141,-29.5625
1772911377.4188187,0.00025345584558081314,0.6344099082662675,-9.112675523541109,-0.22681763249185027,-1.5507826278668846,9.761097644039149,-0.00016866338201199823,-0.0021751321448904193,0.001090830782496456,9.44100355483808,58.69578840834779,-29.1875
1772911377.4575968,0.00025345584558081314,0.6344099082662675,-9.112675523541109,-0.22438003630657755,-1.5463829597637544,9.760730469846566,-8.433169100599911e-05,-0.0010875660724452097,0.0,9.44100355483808,58.69578840834779,-29.1875
1772911377.4819903,0.00025345584558081314,0.6344099082662675,-9.112675523541109,-0.2227578432750121,-1.5434550297886342,9.760486119523007,0.00033732676402399646,0.004350264289780839,-0.001090830782496456,9.10044772553136,58.346069982860634,-27.5625
1772911377.4982753,0.00025345584558081314,0.6344099082662675,-9.112675523541109,-0.2227578432750121,-1.5434550297886342,9.760486119523007,0.00033732676402399646,0.004350264289780839,-0.001090830782496456,9.10044772553136,58.346069982860634,-27.5625
1772911377.5281572,0.00025345584558081314,0.6344099082662675,-9.112675523541109,-0.21834319169641553,-1.541765134343961,9.76032350711225,0.00016866338201199823,0.0021751321448904193,0.001090830782496456,9.10044772553136,58.346069982860634,-27.5625
1772911377.551099,0.00025345584558081314,0.6344099082662675,-9.112675523541109,-0.2154052903857489,-1.5406405278029,9.760215290369391,0.00025299507301799736,0.003262698217335629,-0.001090830782496456,9.07145662568829,57.97219230750426,-30.75
1772911377.5781486,0.00025345584558081314,0.6344099082662675,-9.112675523541109,-0.21345014988200828,-1.5398921147125022,9.76014327333588,-0.001256229454457208,-0.0020908004538844204,0.0,9.07145662568829,57.97219230750426,-30.75
1772911377.613188,0.00025345584558081314,0.6344099082662675,-9.112675523541109,-0.21214902571711935,-1.5393940541611646,9.76009534680456,0.0,0.0,0.0,9.07145662568829,57.97219230750426,-30.75
1772911377.6503618,0.00025345584558081314,0.6344099082662675,-9.112675523541109,-0.21821195184088987,-1.5418804821718266,9.760063452233341,-0.0010032343814392105,0.0011718977634512088,0.002181661564992912,8.755561150018053,58.748938758060085,-30.375
1772911377.686726,0.00025345584558081314,0.6344099082662675,-9.112675523541109,-0.21821195184088987,-1.5418804821718266,9.760063452233341,-0.0010032343814392105,0.0011718977634512088,0.002181661564992912,8.755561150018053,58.748938758060085,-30.375
1772911377.7330055,0.00025345584558081314,0.6344099082662675,-9.112675523541109,-0.22558186168610994,-1.5432765629910532,9.76004222675248,8.433169100599911e-05,0.0010875660724452097,0.001090830782496456,8.755561150018053,58.748938758060085,-30.375
1772911377.7544134,0.00025345584558081314,0.6344099082662675,-9.112675523541109,-0.23048645436081663,-1.544205639181004,9.760028101432072,-8.433169100599911e-05,-0.0010875660724452097,0.0,9.07145662568829,57.97219230750426,-30.0
1772911377.7775183,0.00025345584558081314,0.6344099082662675,-9.112675523541109,-0.23048645436081663,-1.544205639181004,9.760028101432072,-8.433169100599911e-05,-0.0010875660724452097,0.0,9.07145662568829,57.97219230750426,-30.0
1772911377.8095982,0.00025345584558081314,0.6344099082662675,-9.112675523541109,-0.23375040599794386,-1.544823929006955,9.76001870118913,8.433169100599911e-05,0.0010875660724452097,0.002181661564992912,9.07145662568829,57.97219230750426,-30.0
1772911377.8355227,0.00025345584558081314,0.6344099082662675,-9.112675523541109,-0.23258742911455,-1.545494003226024,9.76001244543246,-0.0011718977634512088,-0.0010032343814392105,0.0,9.07145662568829,57.97219230750426,-29.1875
1772911377.8481603,0.00025345584558081314,0.6344099082662675,-9.112675523541109,-0.23258742911455,-1.545494003226024,9.76001244543246,-0.0011718977634512088,-0.0010032343814392105,0.0,9.07145662568829,57.97219230750426,-29.1875
1772911377.861307,0.00025345584558081314,0.6344099082662675,-9.112675523541109,-0.22873698999942943,-1.5495336396174164,9.760008282296278,8.433169100599911e-05,0.0010875660724452097,0.001090830782496456,9.07145662568829,57.97219230750426,-29.1875
1772911377.880792,0.00025345584558081314,0.6344099082662675,-9.112675523541109,-0.22873698999942943,-1.5495336396174164,9.760008282296278,8.433169100599911e-05,0.0010875660724452097,0.001090830782496456,9.07145662568829,57.97219230750426,-29.1875
1772911377.9019792,0.00025345584558081314,0.6344099082662675,-9.112675523541109,-0.2261745657805399,-1.552221972510193,9.760005511775654,-0.0010875660724452097,8.433169100599911e-05,0.0,9.07145662568829,57.97219230750426,-29.1875
1772911377.9311454,0.00025345584558081314,0.6344099082662675,-9.112675523541109,-0.22446930108702298,-1.5540110280196897,9.760003668025128,0.0024281272179084165,0.003094034835323631,0.001090830782496456,9.07145662568829,57.97219230750426,-28.0
1772911377.9606566,0.00025345584558081314,0.6344099082662675,-9.112675523541109,-0.22333446648254224,-1.5552016244762,9.760002441029748,0.0022594638358964182,0.0009189026904332114,-0.002181661564992912,9.07145662568829,57.97219230750426,-28.0
1772911377.9816346,0.00025345584558081314,0.6344099082662675,-9.112675523541109,-0.22333446648254224,-1.5552016244762,9.760002441029748,0.0022594638358964182,0.0009189026904332114,-0.002181661564992912,9.07145662568829,57.97219230750426,-28.0
1772911378.0039077,0.00025345584558081314,0.6344099082662675,-9.112675523541109,-0.22591434696736673,-1.5557353438715253,9.76000162447803,-0.0023437955269024176,-0.002006468762878421,0.0,9.10044772553136,58.346069982860634,-29.1875
1772911378.018655,0.00025345584558081314,0.6344099082662675,-9.112675523541109,-0.22403751912704253,-1.5530140371765535,9.753310857657343,0.0,0.0,-0.001090830782496456,9.10044772553136,58.346069982860634,-29.1875
1772911378.0333276,0.00025345584558081314,0.6344099082662675,-9.112675523541109,-0.22252990191819913,-1.5478679377328637,9.75220333878626,0.0011718977634512088,0.0010032343814392105,-0.001090830782496456,9.10044772553136,58.346069982860634,-29.1875
1772911378.04761,0.00025345584558081314,0.6344099082662675,-9.112675523541109,-0.22252990191819913,-1.5478679377328637,9.75220333878626,0.0011718977634512088,0.0010032343814392105,-0.001090830782496456,9.10044772553136,58.346069982860634,-29.1875
1772911378.0750203,0.00025345584558081314,0.6344099082662675,-9.112675523541109,-0.22152659950690157,-1.5444432660387857,9.75146629734935,-0.001256229454457208,-0.0020908004538844204,0.0,9.756899030508317,57.91904195779196,-28.375
1772911378.1040952,0.00025345584558081314,0.6344099082662675,-9.112675523541109,-0.21778242196928035,-1.5457578947662878,9.754320916213697,-8.433169100599911e-05,-0.0010875660724452097,0.0,9.756899030508317,57.91904195779196,-28.375
1772911378.1403708,0.00025345584558081314,0.6344099082662675,-9.112675523541109,-0.21862581388037033,-1.546374156252427,9.756220633179737,-0.0010032343814392105,0.0011718977634512088,0.0,9.756899030508317,57.91904195779196,-28.75
1772911378.1552794,0.00025345584558081314,0.6344099082662675,-9.112675523541109,-0.21585198153872248,-1.5470428806340093,9.757484873599408,0.00025299507301799736,0.003262698217335629,-0.001090830782496456,9.756899030508317,57.91904195779196,-28.75
1772911378.2067099,0.00025345584558081314,0.6344099082662675,-9.112675523541109,-0.21734112733826666,-1.5472292999931632,9.75832621147621,-0.0010875660724452097,8.433169100599911e-05,-0.002181661564992912,9.785890130351387,58.29291963314834,-28.375
1772911378.249305,0.00025345584558081314,0.6344099082662675,-9.112675523541109,-0.2149970369958415,-1.5476119692408876,9.75888611243486,8.433169100599911e-05,0.0010875660724452097,-0.001090830782496456,9.785890130351387,58.29291963314834,-28.375
1772911378.277711,0.00025345584558081314,0.6344099082662675,-9.112675523541109,-0.2149970369958415,-1.5476119692408876,9.75888611243486,8.433169100599911e-05,0.0010875660724452097,-0.001090830782496456,9.785890130351387,58.29291963314834,-28.375
1772911378.2933588,0.00025345584558081314,0.6344099082662675,-9.112675523541109,-0.2134370710581624,-1.5478666313505527,9.759258720268338,0.00025299507301799736,0.003262698217335629,-0.001090830782496456,9.732739780639092,57.607477228328314,-28.375
1772911378.313198,0.00025345584558081314,0.6344099082662675,-9.112675523541109,-0.21239893115259825,-1.5480361061397725,9.766196910033855,-0.0023437955269024176,-0.002006468762878421,0.001090830782496456,9.732739780639092,57.607477228328314,-28.375
1772911378.3298979,0.00025345584558081314,0.6344099082662675,-9.112675523541109,-0.21239893115259825,-1.5480361061397725,9.766196910033855,-0.0023437955269024176,-0.002006468762878421,0.001090830782496456,9.732739780639092,57.607477228328314,-28.375
1772911378.347494,0.00025345584558081314,0.6344099082662675,-9.112675523541109,-0.21196666988887627,-1.5514839899560142,9.770814197818149,0.002006468762878421,-0.0023437955269024176,0.003272492347489368,9.732739780639092,57.607477228328314,-28.375
1772911378.3650398,0.00025345584558081314,0.6344099082662675,-9.112675523541109,-0.21196666988887627,-1.5514839899560142,9.770814197818149,0.002006468762878421,-0.0023437955269024176,0.003272492347489368,9.732739780639092,57.607477228328314,-28.375
1772911378.3867762,0.00025345584558081314,0.6344099082662675,-9.112675523541109,-0.21167900484654398,-1.5537785181203372,9.770541839552793,-0.0022594638358964182,-0.0009189026904332114,-0.001090830782496456,9.38302135515194,57.94803305763503,-29.1875
1772911378.412055,0.00025345584558081314,0.6344099082662675,-9.112675523541109,-0.2114875669743009,-1.555305500982135,9.77036058816964,0.0,0.0,0.0,9.38302135515194,57.94803305763503,-29.1875
1772911378.4300873,0.00025345584558081314,0.6344099082662675,-9.112675523541109,-0.2114875669743009,-1.555305500982135,9.77036058816964,0.0,0.0,0.0,9.38302135515194,57.94803305763503,-29.1875
1772911378.4557889,0.00025345584558081314,0.6344099082662675,-9.112675523541109,-0.21084294871552767,-1.549651490544799,9.766894855691541,0.0021751321448904193,-0.00016866338201199823,-0.001090830782496456,9.38302135515194,57.94803305763503,-29.1875
1772911378.4747756,0.00025345584558081314,0.6344099082662675,-9.112675523541109,-0.21041396246517186,-1.5458888097581867,9.764588449442137,-0.00025299507301799736,-0.003262698217335629,0.001090830782496456,9.358862105282713,57.63646832817138,-29.1875
1772911378.4901419,0.00025345584558081314,0.6344099082662675,-9.112675523541109,-0.21041396246517186,-1.5458888097581867,9.764588449442137,-0.00025299507301799736,-0.003262698217335629,0.001090830782496456,9.358862105282713,57.63646832817138,-29.1875
1772911378.5066862,0.00025345584558081314,0.6344099082662675,-9.112675523541109,-0.2103870861542988,-1.5467198879637678,9.763053561847403,-0.0010875660724452097,8.433169100599911e-05,0.003272492347489368,9.358862105282713,57.63646832817138,-29.1875
1772911378.5254858,0.00025345584558081314,0.6344099082662675,-9.112675523541109,-0.2137043005068141,-1.547014351979182,9.762032111298925,0.0,0.0,0.002181661564992912,9.358862105282713,57.63646832817138,-29.1875
1772911378.5421443,0.00025345584558081314,0.6344099082662675,-9.112675523541109,-0.2137043005068141,-1.547014351979182,9.762032111298925,0.0,0.0,0.002181661564992912,9.358862105282713,57.63646832817138,-29.1875
1772911378.5702088,0.00025345584558081314,0.6344099082662675,-9.112675523541109,-0.21257676936552744,-1.5474689237387098,9.761352347369264,-0.0020908004538844204,0.001256229454457208,0.0,9.047297375819065,57.66062757804061,-30.75
1772911378.6007683,0.00025345584558081314,0.6344099082662675,-9.112675523541109,-0.211567800739701,-1.5444363359296032,9.760899972067536,-8.433169100599911e-05,-0.0010875660724452097,0.0,9.047297375819065,57.66062757804061,-30.75
1772911378.625711,0.00025345584558081314,0.6344099082662675,-9.112675523541109,-0.21141356188342816,-1.5490883830932145,9.760598921357598,0.00016866338201199823,0.0021751321448904193,-0.001090830782496456,9.047297375819065,57.66062757804061,-30.75
1772911378.6530433,0.00025345584558081314,0.6344099082662675,-9.112675523541109,-0.2110523084008912,-1.5488491682766528,9.760398575473092,-0.0013405611454632071,-0.0031783665263296302,0.0,9.814881230194459,58.66679730850472,-28.75
1772911378.676653,0.00025345584558081314,0.6344099082662675,-9.112675523541109,-0.2110523084008912,-1.5488491682766528,9.760398575473092,-0.0013405611454632071,-0.0031783665263296302,0.0,9.814881230194459,58.66679730850472,-28.75
1772911378.714148,0.00025345584558081314,0.6344099082662675,-9.112675523541109,-0.21440560772755027,-1.5517664644789606,9.760265247524963,-0.00025299507301799736,-0.003262698217335629,0.001090830782496456,9.814881230194459,58.66679730850472,-28.75
1772911378.7358758,0.00025345584558081314,0.6344099082662675,-9.112675523541109,-0.216637190970634,-1.5537078925132624,9.760176519264853,8.433169100599911e-05,0.0010875660724452097,0.001090830782496456,9.38302135515194,57.94803305763503,-29.5625
1772911378.75305,0.00025345584558081314,0.6344099082662675,-9.112675523541109,-0.216637190970634,-1.5537078925132624,9.760176519264853,8.433169100599911e-05,0.0010875660724452097,0.001090830782496456,9.38302135515194,57.94803305763503,-29.5625
1772911378.777137,0.00025345584558081314,0.6344099082662675,-9.112675523541109,-0.21812228469048797,-1.5549998911829181,9.76011747159891,-0.0011718977634512088,-0.0010032343814392105,-0.001090830782496456,9.38302135515194,57.94803305763503,-29.5625
1772911378.805261,0.00025345584558081314,0.6344099082662675,-9.112675523541109,-0.21911059797146698,-1.5558597018650033,9.756733064329511,-8.433169100599911e-05,-0.0010875660724452097,-0.001090830782496456,9.41201245499501,58.32191073299141,-28.75
1772911378.845267,0.00025345584558081314,0.6344099082662675,-9.112675523541109,-0.21925109092647915,-1.5497616957948699,9.757825890805352,-0.0021751321448904193,0.00016866338201199823,0.0,9.41201245499501,58.32191073299141,-28.75
1772911378.8788617,0.00025345584558081314,0.6344099082662675,-9.112675523541109,-0.2196031966652789,-1.5490386411115604,9.758553154617353,-0.0008345709994272123,0.0033470299083416285,0.0,9.10044772553136,58.346069982860634,-29.1875
1772911378.906365,0.00025345584558081314,0.6344099082662675,-9.112675523541109,-0.21983751910117133,-1.548557456296868,9.75903714056017,0.00016866338201199823,0.0021751321448904193,-0.002181661564992912,9.10044772553136,58.346069982860634,-29.1875
1772911378.9461215,0.00025345584558081314,0.6344099082662675,-9.112675523541109,-0.2199934580647046,-1.5482372331778769,9.752669004384,0.00033732676402399646,0.004350264289780839,-0.006544984694978736,10.097454859815036,58.268760383279115,-29.1875
1772911378.9730203,-0.020301224682060446,0.6254567789502353,-9.105599970821777,-0.22009723370298365,-1.5480241282693148,9.735050634066223,0.01162590003287331,-0.005277912890846829,-0.022907446432425576,10.097454859815036,58.268760383279115,-29.1875
1772911378.9931645,-0.020301224682060446,0.6254567789502353,-9.105599970821777,-0.22009723370298365,-1.5480241282693148,9.735050634066223,0.01162590003287331,-0.005277912890846829,-0.022907446432425576,10.097454859815036,58.268760383279115,-29.1875
1772911379.0146143,-0.06204577684956099,0.6218740023541501,-9.098987816225657,-0.2165725857471869,-1.5448058183426796,9.723325805429834,0.0063567330526592605,-0.0026811222909264142,-0.031634092692397225,10.097454859815036,58.268760383279115,-29.1875
1772911379.030333,-0.04114366365833818,0.6235327156623517,-9.09881059715032,-0.16520808536524104,-1.5162686963558984,9.745629068313109,-0.006112483890274041,-0.008278870124531683,0.015271630954950384,8.726570050174983,58.37506108270371,-28.375
1772911379.046523,-0.04114366365833818,0.6235327156623517,-9.09881059715032,-0.16520808536524104,-1.5162686963558984,9.745629068313109,-0.006112483890274041,-0.008278870124531683,0.015271630954950384,8.726570050174983,58.37506108270371,-28.375
1772911379.060746,-0.020241834472311444,0.6251913407459284,-9.09863277539869,-0.13102558414012097,-1.4972775604542357,9.760471640618158,-0.007106972361080473,0.007115718271713253,0.011999138607461015,8.726570050174983,58.37506108270371,-28.375
1772911379.0763998,-0.034235611880037035,0.6243501981012136,-9.10571864892862,-0.1426897707459426,-1.539008392468678,9.767004094977452,-0.006609728125677257,-0.0005815759264092149,-0.016362461737446838,8.726570050174983,58.37506108270371,-28.375
1772911379.094208,-0.034235611880037035,0.6243501981012136,-9.10571864892862,-0.1426897707459426,-1.539008392468678,9.767004094977452,-0.006609728125677257,-0.0005815759264092149,-0.016362461737446838,8.726570050174983,58.37506108270371,-28.375
1772911379.1136532,-0.04120285291054251,0.6237968929396542,-9.10577788746496,-0.1504521566346151,-1.5667797950103515,9.764661146966626,0.0006659076174152141,-0.005522162053232047,-0.003272492347489368,8.697578950331913,58.00118340734733,-28.75
1772911379.1264918,-0.04120285291054251,0.6237968929396542,-9.10577788746496,-0.1504521566346151,-1.5667797950103515,9.764661146966626,0.0006659076174152141,-0.005522162053232047,-0.003272492347489368,8.697578950331913,58.00118340734733,-28.75
1772911379.14267,-0.027268402453765835,0.6249034934421331,-9.105659343380145,-0.15380767300545636,-1.5619156515147288,9.763101941237865,0.00426593259877484,-0.001424892836469206,0.018544123302439753,8.697578950331913,58.00118340734733,-28.75
1772911379.155054,-0.01333407861525351,0.6260100546133427,-9.10554053125575,-0.19220961578228665,-1.5491637161669571,9.765409418950165,-0.0003285808533912176,0.009872426343012886,0.004363323129985824,8.697578950331913,58.00118340734733,-28.75
1772911379.168257,-0.01333407861525351,0.6260100546133427,-9.10554053125575,-0.19220961578228665,-1.5491637161669571,9.765409418950165,-0.0003285808533912176,0.009872426343012886,0.004363323129985824,8.697578950331913,58.00118340734733,-28.75
1772911379.2025862,-0.01333407861525351,0.6260100546133427,-9.10554053125575,-0.21828289821575522,-1.547347646115813,9.766945019591486,-0.006019406288635264,0.007031386580707253,0.001090830782496456,-2036.6411554079498,157.86187159926095,-0.0625
1772911379.2395766,-0.01333407861525351,0.6260100546133427,-9.10554053125575,-0.23615159491087637,-1.5528092722579552,9.76462183295718,0.0034313615993476275,0.001922137071872422,0.004363323129985824,-2036.6411554079498,157.86187159926095,-0.0625
1772911379.2861888,-0.027268402453765835,0.6249034934421331,-9.105659343380145,-0.1980165093974596,-1.5603230621449138,9.763075778203747,0.008203284344158462,0.007022640670074474,-0.013089969389957472,9.498985754524222,59.443543759060546,-28.75
1772911379.3039625,-0.04384662228342036,0.6581034266319427,-9.090523038454078,-0.24908673219343527,-1.5560402924700674,9.788807789694456,0.010884406635084875,0.013379373722733734,-0.014180800172453928,9.498985754524222,59.443543759060546,-28.75
1772911379.317258,-0.04384662228342036,0.6581034266319427,-9.090523038454078,-0.24908673219343527,-1.5560402924700674,9.788807789694456,0.010884406635084875,0.013379373722733734,-0.014180800172453928,9.498985754524222,59.443543759060546,-28.75
1772911379.3415954,-0.0230059043943937,0.6600254170676807,-9.097306317719713,-0.20504622331490652,-1.4988477562502733,9.80593215589612,-0.014475685705811722,-0.0032539523067028502,0.028361600344907856,8.697578950331913,58.00118340734733,-30.375
1772911379.357812,0.011849794351477276,0.6639194720837012,-9.125420442040555,-0.24910996183877665,-1.4550973588522282,9.82401845372626,-0.02392645359379461,0.0018552972021319805,0.025089107997418487,8.697578950331913,58.00118340734733,-30.375
1772911379.3778222,0.011849794351477276,0.6639194720837012,-9.125420442040555,-0.24910996183877665,-1.4550973588522282,9.82401845372626,-0.02392645359379461,0.0018552972021319805,0.025089107997418487,8.697578950331913,58.00118340734733,-30.375
1772911379.3931448,0.01807519185363101,0.6722432451497505,-9.14599230368402,-0.20919943033076221,-1.4850329653288261,9.819329124358438,-0.015385842485612153,0.013228202161987293,0.006544984694978736,8.697578950331913,58.00118340734733,-30.375
1772911379.4066694,0.01807519185363101,0.6722432451497505,-9.14599230368402,-0.20919943033076221,-1.4850329653288261,9.819329124358438,-0.015385842485612153,0.013228202161987293,0.006544984694978736,8.697578950331913,58.00118340734733,-30.375
1772911379.4212945,0.045197727109047715,0.6822394134195328,-9.166372939908438,-0.22958943000910165,-1.5046693478204634,9.796137757803477,-0.016389076867051364,0.014400099925438503,0.03599741582238305,8.697578950331913,58.00118340734733,-29.5625
1772911379.4358325,0.11893001000807163,0.7260592482914708,-9.235087024648168,-0.24522762099700252,-1.5444179429132692,9.763978603889093,-0.031277675117260303,0.01993100788930333,0.044724062082354694,8.697578950331913,58.00118340734733,-29.5625
1772911379.4487188,0.2133770352932899,0.7710384619758002,-9.289045149253903,-0.2605482380957292,-1.634237093432923,9.742577046200358,-0.04557595153042725,0.033074878360284624,0.06981317007977318,8.697578950331913,58.00118340734733,-29.5625
1772911379.4728374,0.2133770352932899,0.7710384619758002,-9.289045149253903,-0.2605482380957292,-1.634237093432923,9.742577046200358,-0.04557595153042725,0.033074878360284624,0.06981317007977318,8.697578950331913,58.00118340734733,-29.5625
1772911379.4998646,0.5903047108393473,0.8821848008759862,-9.360089975155573,-0.29569493471103764,-1.799440896114402,9.801927006190596,-0.051098113583659295,0.03240897074286941,0.22689280275926285,9.785890130351387,58.29291963314834,-29.5625
1772911379.5322113,1.963603307744594,1.4511590746220229,-9.344948638091294,-0.6392903340021646,-2.0170608094359315,10.059463262348485,0.03116461461436677,0.20436934401806064,0.6163193921104976,9.785890130351387,58.29291963314834,-29.5625
1772911379.5601974,1.963603307744594,1.4511590746220229,-9.344948638091294,-0.6392903340021646,-2.0170608094359315,10.059463262348485,0.03116461461436677,0.20436934401806064,0.6163193921104976,9.785890130351387,58.29291963314834,-29.5625
1772911379.5823746,2.9835416870299167,2.0765605807529526,-9.234318376344739,-0.8581933199833605,-2.077105155322073,10.300490850015665,0.07111096208397942,0.26801226032502645,0.6621342849753488,10.044304510102739,57.583317978459085,-28.5
1772911379.5961814,3.688048758308568,2.6138479338067375,-9.152960831956204,-1.0033535933539728,-2.1103937962956616,10.4608920171536,0.12427676580494659,0.33281832848481074,0.7057675162752071,10.044304510102739,57.583317978459085,-28.5
1772911379.6089792,3.688048758308568,2.6138479338067375,-9.152960831956204,-1.0033535933539728,-2.1103937962956616,10.4608920171536,0.12427676580494659,0.33281832848481074,0.7057675162752071,10.044304510102739,57.583317978459085,-28.5
1772911379.6283238,4.831320170433259,3.391709428519832,-8.832621617579017,-1.0291163810457749,-2.084357596143294,10.467283850865876,0.1937210769700608,0.33946865874833004,0.7864889941799448,10.044304510102739,57.583317978459085,-28.5
1772911379.6479766,5.878198267628246,4.210312870984083,-8.553687426951813,-1.046261228465474,-2.0670307957853056,10.444776651141378,0.20885392438265496,0.32297775836900716,0.8115781021773633,11.951846582908132,57.12196589980624,-27.1875
1772911379.663871,5.878198267628246,4.210312870984083,-8.553687426951813,-1.046261228465474,-2.0670307957853056,10.444776651141378,0.20885392438265496,0.32297775836900716,0.8115781021773633,11.951846582908132,57.12196589980624,-27.1875
1772911379.6874218,7.133138442170584,4.944382730885308,-8.091235142348488,-1.0844053747386848,-2.140660954386722,10.332790121634359,0.2460754200081773,0.3091504884593451,0.8104872713948668,11.951846582908132,57.12196589980624,-27.1875
1772911379.7025895,7.133138442170584,4.944382730885308,-8.091235142348488,-1.0844053747386848,-2.140660954386722,10.332790121634359,0.2460754200081773,0.3091504884593451,0.8104872713948668,11.951846582908132,57.12196589980624,-27.1875
1772911379.7193747,8.423471559403277,5.626557651073678,-7.899735841172291,-1.1097898779854736,-2.1896610024332,10.258264337218938,0.24965795316827138,0.2848023764105205,0.8432121948697605,11.951846582908132,57.12196589980624,-27.1875
1772911379.739037,9.71317438423548,6.160557822347411,-7.725860391104837,-1.1079386061736778,-2.196882231377585,10.215358483612675,-35.386570194595436,2.9922956991453638,0.8333947178272924,12.74792043335934,57.6871131590474,-28.0
1772911379.7565885,10.536968494107873,6.404708028972011,-7.664570334061803,-1.1067066054629886,-2.2016878785736607,10.233636681229967,0.2088420510567004,0.1676157274807214,0.7984881327874057,12.74792043335934,57.6871131590474,-28.0
1772911379.7848356,11.72049195719,6.554172790683776,-7.645409742787866,-1.1043350672724848,-2.1848753816770126,10.245800617563429,0.16476345072779378,0.050682073623940296,0.7472190860100724,12.74792043335934,57.6871131590474,-28.0
1772911379.8064487,11.72049195719,6.554172790683776,-7.645409742787866,-1.1043350672724848,-2.1848753816770126,10.245800617563429,0.16476345072779378,0.050682073623940296,0.7472190860100724,12.74792043335934,57.6871131590474,-28.0
1772911379.8231423,12.920219926674825,6.65412472810146,-7.388900773047551,-1.0760760332011357,-2.175755726773376,10.203718905703486,0.14121492603586527,-0.013138251975670305,0.7286749627076325,14.327898915477778,54.61828105284759,-26.5
1772911379.849709,14.186322333074608,6.759174058278772,-7.119055185849148,-1.0528736045077258,-2.11298999427628,10.135572656056384,0.05083637260000852,-0.04989435959299876,0.753764070705051,14.327898915477778,54.61828105284759,-26.5
1772911379.8677185,14.98165355745191,6.668698001000562,-7.25194899740362,-1.0374326474003726,-2.071220100438636,10.06680630620849,0.029143145110211995,-0.08978823159881474,0.7308566242726255,14.327898915477778,54.61828105284759,-26.5
1772911379.9002318,16.13914549086087,6.518308887387436,-7.402949937196054,-1.0410413023434666,-2.0926733785076244,10.021043068555175,0.004187219403079829,-0.12942910853161274,0.7014041931452212,14.508001488113097,51.281871970716004,-24.0625
1772911379.9240692,16.13914549086087,6.518308887387436,-7.402949937196054,-1.0410413023434666,-2.0926733785076244,10.021043068555175,0.004187219403079829,-0.12942910853161274,0.7014041931452212,14.508001488113097,51.281871970716004,-24.0625
1772911379.948445,17.640092161262658,6.20381391760582,-7.445560342452414,-1.0906782636797558,-2.153614878764889,10.000623480227713,-0.036198278342828384,-0.22695523646639207,0.6512259771503842,14.508001488113097,51.281871970716004,-24.0625
1772911379.9739666,18.396570447869173,6.0204511976929656,-7.422367101299145,-1.1237111069678671,-2.194170766424935,9.987034472297536,-0.06407082959263939,-0.24777016340359745,0.6479534848028948,14.508001488113097,51.281871970716004,-24.0625
1772911379.9950187,18.396570447869173,6.0204511976929656,-7.422367101299145,-1.1237111069678671,-2.194170766424935,9.987034472297536,-0.06407082959263939,-0.24777016340359745,0.6479534848028948,14.508001488113097,51.281871970716004,-24.0625
1772911380.0189347,20.083217150379074,5.598045534416732,-7.432325317130585,-1.0750593117933676,-2.089076113339312,9.834151335904433,-0.08777927175594713,-0.29954293051530473,0.7755806863549802,12.62111093880613,46.35048775277719,-21.25
1772911380.0360427,21.551105540228022,5.253683939349134,-7.359583714697138,-0.9564062379999272,-1.901686099592528,9.652126635475694,-0.0523112498202852,-0.3077637066807288,0.8770279491271507,12.62111093880613,46.35048775277719,-21.25
1772911380.0531678,22.615843270125783,5.061425719838541,-7.307499784974142,-0.7862813395340373,-1.6397774504487643,9.400531874104047,-0.06936623430475179,-0.28784144470205825,0.9370236421644557,12.62111093880613,46.35048775277719,-21.25
1772911380.0806403,24.88676154689971,4.721230954845214,-7.266434985575068,-0.6628012100664564,-1.462920897657673,9.23309837090885,-0.08239953535282875,-0.2583840831443988,0.9795660426818175,9.747879162697695,43.25083931936401,-20.875
1772911380.0999455,24.88676154689971,4.721230954845214,-7.266434985575068,-0.6628012100664564,-1.462920897657673,9.23309837090885,-0.08239953535282875,-0.2583840831443988,0.9795660426818175,9.747879162697695,43.25083931936401,-20.875
1772911380.1226864,26.77730189668577,4.53045535274008,-7.353599886825438,-0.5754543783362408,-1.2785228326488791,9.11832813317991,-0.16497022516765866,-0.2508873085554977,1.114829059711378,9.747879162697695,43.25083931936401,-20.875
1772911380.1486702,28.76046614994516,4.3299725951295525,-7.378552835008633,-0.5106558370734786,-1.1563251987401777,9.072055827404736,-0.15339367318326022,-0.20036202498761477,1.1671889372712079,8.307344038354783,39.225158189973065,-20.5
1772911380.1847258,30.790256360538347,4.378604626590797,-7.414693616027029,-0.4441874300500321,-1.0768143031374868,9.054642571636158,-0.12764377861454299,-0.09404229087163501,1.2119129993535627,8.307344038354783,39.225158189973065,-20.5
1772911380.2049904,32.15379693334785,4.555407825503843,-7.4738728134981836,-0.40745311582948696,-1.120618597186822,9.193584271270355,-0.16144827704666145,0.034401075099804064,1.2370021073509812,8.307344038354783,39.225158189973065,-20.5
1772911380.2328928,34.14929192944318,4.914175557233257,-7.68614432196423,-0.4492452662535698,-1.2251573048031166,9.376366436394054,-0.22174416344528566,0.07518199356884393,1.2228213071785272,4.559726604679104,32.9335550698764,-20.875
1772911380.2569966,35.37844025440252,5.125482529388521,-7.885343740710952,-0.47705747551188743,-1.2947266469478806,9.498005925473306,-0.27287726067147605,0.05070020178053844,1.0919216132789524,4.559726604679104,32.9335550698764,-20.875
1772911380.2860875,37.60737773526816,5.389319876946144,-8.208599846498705,-0.3977333863181808,-1.2043387972191548,9.465221848604564,-0.23016858663525278,-0.019351923042883315,0.9915651812892785,4.559726604679104,32.9335550698764,-20.875
1772911380.304796,37.60737773526816,5.389319876946144,-8.208599846498705,-0.3977333863181808,-1.2043387972191548,9.465221848604564,-0.23016858663525278,-0.019351923042883315,0.9915651812892785,4.559726604679104,32.9335550698764,-20.875
1772911380.3248765,39.26318269861535,5.432598473851018,-8.356755457190037,-0.23273644936023644,-0.9951952591754336,9.44340441167055,-0.19449129917973676,-0.09542345415494033,0.9839293658118032,-0.4616375353924679,28.809411713638248,-23.25
1772911380.3473945,40.34216376165741,5.409060682981661,-8.461645950154784,-0.12293283095127788,-0.8560125708937374,9.482406938424813,-0.2077457390736224,-0.15347736853893365,0.9446594576419308,-0.4616375353924679,28.809411713638248,-23.25
1772911380.3660483,40.34216376165741,5.409060682981661,-8.461645950154784,-0.12293283095127788,-0.8560125708937374,9.482406938424813,-0.2077457390736224,-0.15347736853893365,0.9446594576419308,-0.4616375353924679,28.809411713638248,-23.25
1772911380.3843932,41.80723115535008,5.2932701452139135,-8.723606211087688,-0.14482103157689943,-0.8197725014615571,9.705724275024847,-0.25336542015721353,-0.19151594334261765,0.8333947178272924,-0.4616375353924679,28.809411713638248,-23.25
1772911380.4004338,43.161052105234305,4.918977949595595,-8.777404027431704,-0.1819840784755516,-0.827454486974385,9.854339467914066,-0.22661541862237883,-0.22750744724558114,0.7777623479199731,-2.7923779908272044,27.04682514004821,-25.5625
1772911380.4190886,44.00519430668583,4.604290458759245,-8.718414418981542,-0.206974280294818,-0.8359018627569441,9.949896106934041,-0.15493788135326658,-0.26260628619000975,0.7046766854927106,-2.7923779908272044,27.04682514004821,-25.5625
1772911380.4325962,44.00519430668583,4.604290458759245,-8.718414418981542,-0.206974280294818,-0.8359018627569441,9.949896106934041,-0.15493788135326658,-0.26260628619000975,0.7046766854927106,-2.7923779908272044,27.04682514004821,-25.5625
1772911380.4508557,44.763012700508995,4.297969464894589,-8.667864667483517,-0.23130961790763405,-0.8543466794322633,9.97669175398372,-0.09880610404114565,-0.27242936448454774,0.619591884457987,-2.7923779908272044,27.04682514004821,-25.5625
1772911380.4671597,45.460973753607405,4.0314573261819815,-8.603684646102634,-0.26242338964326795,-0.9292125756539327,9.987833734353654,-0.06399524381226616,-0.26090528796394596,0.5901394533305827,-7.58181333215421,25.91370318666108,-30.75
1772911380.4854193,46.112770858809185,3.7748400986604023,-8.475843242651921,-0.28312925716972864,-0.9790349932825956,9.99190348611845,0.009150915846479209,-0.22062474114563113,0.5355979142057599,-7.58181333215421,25.91370318666108,-30.75
1772911380.5047185,46.112770858809185,3.7748400986604023,-8.475843242651921,-0.28312925716972864,-0.9790349932825956,9.99190348611845,0.009150915846479209,-0.22062474114563113,0.5355979142057599,-7.58181333215421,25.91370318666108,-30.75
1772911380.5287626,47.006037907716276,3.5106235789355216,-8.245999100696412,-0.23817002267301537,-1.033521723287135,9.991266748748496,0.07086607658626162,-0.13022307739319786,0.507236313860852,-7.58181333215421,25.91370318666108,-30.75
1772911380.5420506,47.8472183375186,3.521969402275399,-8.009379233228596,-0.16797034225028182,-1.0695502441711076,9.890489655922032,0.10503726692962423,-0.07050876692098286,0.5028729907308662,-9.106315133422793,25.655789910676987,-34.0
1772911380.5579193,48.37763300817721,3.5434124336295527,-7.85178198169176,-0.12151184835741316,-1.0968619225916156,9.739795833716924,0.11216173111197025,-0.04917910392710866,0.48105637508093707,-9.106315133422793,25.655789910676987,-34.0
1772911380.574567,48.91348653437753,3.5201270842061962,-7.716185555515825,-0.11344954278326172,-1.1501719866180413,9.542502538887456,0.08568783496673013,-0.10839617016392043,0.48432886742842646,-9.106315133422793,25.655789910676987,-34.0
1772911380.6054778,49.88027118712629,3.369493317751611,-7.496732934958273,-0.10808416848551834,-1.1856492387151927,9.411206055088956,0.07619333752558333,-0.17440037381905424,0.5661411761156606,-10.476698839295588,26.576990756680907,-39.375
1772911380.6298375,51.050242364993444,3.198637946718602,-7.2032883482356045,-0.06475097822609724,-1.215697364875927,9.440908621555057,0.11850659083867496,-0.20722225710632086,0.6850417314077744,-10.476698839295588,26.576990756680907,-39.375
1772911380.656556,51.050242364993444,3.198637946718602,-7.2032883482356045,-0.06475097822609724,-1.215697364875927,9.440908621555057,0.11850659083867496,-0.20722225710632086,0.6850417314077744,-10.476698839295588,26.576990756680907,-39.375
1772911380.6741233,51.837397769083374,3.132847843035985,-6.995869717604487,-0.03953375362498144,-1.282385460496759,9.460675347738839,0.13418915795046898,-0.14607430788700387,0.6926775468852495,-10.476698839295588,26.576990756680907,-39.375
1772911380.6972234,52.97873432628874,3.098684656476623,-6.7172420682136424,-0.03430892853920484,-1.3460004168606774,9.423653207595555,0.11605535330418999,-0.11184502358453362,0.6752242543653062,-12.221461324292019,26.712282555948573,-42.1875
1772911380.7143645,53.7137474420007,3.1059715126012373,-6.532430871419992,-0.0580567061696787,-1.4365516985263012,9.278591365431106,0.1228512366331448,-0.08064293424764653,0.6512259771503842,-12.221461324292019,26.712282555948573,-42.1875
1772911380.7280588,53.7137474420007,3.1059715126012373,-6.532430871419992,-0.0580567061696787,-1.4365516985263012,9.278591365431106,0.1228512366331448,-0.08064293424764653,0.6512259771503842,-12.221461324292019,26.712282555948573,-42.1875
1772911380.751555,54.431122407463164,3.0409272077491982,-6.467799236094107,-0.0849003246008141,-1.5093771381594279,9.182054329917618,0.08470209240655646,-0.07877889113488176,0.6479534848028948,-12.221461324292019,26.712282555948573,-42.1875
1772911380.7713664,55.92125183315901,2.8242109989333573,-6.634844529313745,-0.10635816228769056,-1.560918145712334,9.131190458002015,0.014170215168997052,-0.08534488970739514,0.6784967467127956,-14.698481402545154,28.722295685739226,-46.5
1772911380.7898924,55.92125183315901,2.8242109989333573,-6.634844529313745,-0.10635816228769056,-1.560918145712334,9.131190458002015,0.014170215168997052,-0.08534488970739514,0.6784967467127956,-14.698481402545154,28.722295685739226,-46.5
1772911380.8169122,56.69701980453657,2.7704345063756577,-6.641352982442051,-0.11730301333138078,-1.5954767197346622,9.09734111942886,0.026639432111930348,-0.07974714187378985,0.7035858547102141,-14.698481402545154,28.722295685739226,-46.5
1772911380.8499756,58.87602551517076,2.8585483349903607,-6.3799432632692215,-0.10403204955336835,-1.5697416073775978,9.007912528583924,0.058196340034106994,-0.053747379647376387,0.8126689329598596,-16.165001004127596,29.212137760467886,-48.0625
1772911380.8700767,58.87602551517076,2.8585483349903607,-6.3799432632692215,-0.10403204955336835,-1.5697416073775978,9.007912528583924,0.058196340034106994,-0.053747379647376387,0.8126689329598596,-16.165001004127596,29.212137760467886,-48.0625
1772911380.896522,60.8405979421502,3.0515231631075945,-6.085236080823277,-0.04100929993225292,-1.4595178001590647,8.948398800359437,0.09399607023848192,0.06929875809967874,0.9162978572970231,-16.165001004127596,29.212137760467886,-48.0625
1772911380.9175928,61.849706523305876,3.3002229692523306,-5.947612931860459,0.0009316359303573863,-1.3861650877357343,8.948934419525777,0.07847654801338888,0.13724259064795052,0.928296995904484,-16.165001004127596,29.212137760467886,-48.0625
1772911380.939038,63.85305696320976,3.95389986451443,-5.703103186633816,0.010847492847609917,-1.3963470443040211,9.086440448097813,0.07591474105599959,0.18886418619891138,0.9326603190344699,-15.963065512760615,30.19948119480387,-53.5625
1772911380.989416,66.17903155681992,4.423129491205455,-5.57733446654854,0.015636120132123663,-1.4264687243205214,9.211400291142711,0.07131148169320076,0.18593881474559973,0.8464846872172498,-15.963065512760615,30.19948119480387,-53.5625
1772911381.0189579,66.17903155681992,4.423129491205455,-5.57733446654854,0.015636120132123663,-1.4264687243205214,9.211400291142711,0.07131148169320076,0.18593881474559973,0.8464846872172498,-15.963065512760615,30.19948119480387,-53.5625
1772911381.0393755,68.00635093012278,4.885215454083429,-5.258907272389443,0.03549839928336213,-1.447807412123531,9.368152128357208,0.08140191946670051,0.1326393312851517,0.830122225479803,-16.737807548247414,33.14318630545095,-59.0625
1772911381.058536,68.00635093012278,4.885215454083429,-5.258907272389443,0.03549839928336213,-1.447807412123531,9.368152128357208,0.08140191946670051,0.1326393312851517,0.830122225479803,-16.737807548247414,33.14318630545095,-59.0625
1772911381.0805488,69.35991777253764,5.0922186746693985,-5.021709190961721,0.11311786567520064,-1.4535812452252974,9.552751405966367,0.07122402258687296,0.04371190841766249,0.8290313946973066,-16.737807548247414,33.14318630545095,-59.0625
1772911381.1003172,70.50779147675593,4.945228858121879,-4.909138211620702,0.20045123908428447,-1.4299938569885051,9.779298626033118,0.017805223792887792,-0.024356857959457388,0.6305001922829515,-17.485061795192912,34.01606865171643,-61.875
1772911381.1263306,70.50779147675593,4.945228858121879,-4.909138211620702,0.20045123908428447,-1.4299938569885051,9.779298626033118,0.017805223792887792,-0.024356857959457388,0.6305001922829515,-17.485061795192912,34.01606865171643,-61.875
1772911381.164633,72.98162701470477,5.132475003068739,-4.546547413121978,0.4185970375993693,-1.2523075030444941,10.030395456890316,0.029204366484641444,0.009770602830741328,0.56941366846315,-16.798116079071114,36.40761874174213,-68.875
1772911381.1988645,72.98162701470477,5.132475003068739,-4.546547413121978,0.4185970375993693,-1.2523075030444941,10.030395456890316,0.029204366484641444,0.009770602830741328,0.56941366846315,-16.798116079071114,36.40761874174213,-68.875
1772911381.2318544,74.23688400897188,5.22957870986721,-4.460026813420252,0.5187429190561673,-1.1976007182454023,10.013537613606365,-0.02736656110377502,-0.014289530502534165,0.5606870222031783,-16.798116079071114,36.40761874174213,-68.875
1772911381.2704992,75.38908812298024,4.251199456406778,-4.558205522350012,0.5487027818539639,-1.1583492623633034,10.069221141361732,-0.012384885251927302,-0.004510181761160058,0.5410520681182421,-15.880744875506524,39.34548979488085,-73.1875
1772911381.2919254,76.21639888031325,3.5391837322338513,-4.6445146406935764,0.5686407358723014,-1.1322278569412583,10.106277907057168,-0.04235698286625551,-0.038291569876702,0.4908738521234052,-15.880744875506524,39.34548979488085,-73.1875
1772911381.3075209,76.21639888031325,3.5391837322338513,-4.6445146406935764,0.5686407358723014,-1.1322278569412583,10.106277907057168,-0.04235698286625551,-0.038291569876702,0.4908738521234052,-15.880744875506524,39.34548979488085,-73.1875
1772911381.3393495,77.61363827243697,2.3777829430161415,-4.7681247056725775,0.6029542599595981,-1.1030556079593021,10.130938770676282,-0.08802039350301055,-0.14744359784435462,0.4886921905584123,-16.450222880954268,40.89415084601866,-75.875
1772911381.360531,78.41907410760462,2.158369638436162,-4.908757808655743,0.626823963919108,-1.0703014011884904,10.117244294569034,-0.11237725146246794,-0.16524882163724242,0.46796640569097964,-16.450222880954268,40.89415084601866,-75.875
1772911381.3777857,78.41907410760462,2.158369638436162,-4.908757808655743,0.626823963919108,-1.0703014011884904,10.117244294569034,-0.11237725146246794,-0.16524882163724242,0.46796640569097964,-16.450222880954268,40.89415084601866,-75.875
1772911381.3907576,78.89779444503135,2.032035775721636,-5.0400346847105615,0.6226983838390576,-1.0469521869910892,9.957600746867609,-0.14808077664988228,-0.13184536242356656,0.4134248665661568,-16.450222880954268,40.89415084601866,-75.875
1772911381.4042377,78.89779444503135,2.032035775721636,-5.0400346847105615,0.6226983838390576,-1.0469521869910892,9.957600746867609,-0.14808077664988228,-0.13184536242356656,0.4134248665661568,-16.450222880954268,40.89415084601866,-75.875
1772911381.4256992,79.56958562979814,1.8693023222802712,-5.295619256096812,0.6132826559071869,-1.0308963272772347,9.844669525792948,-0.17434227985994655,-0.11777384335151928,0.39051742013373125,-15.115487352268694,44.36384731234888,-79.875
1772911381.4471676,80.16277552135064,1.2855730824194012,-5.633163763481241,0.6062407664091546,-1.0302166327048894,9.746099277740925,-0.19876597768914436,-0.10822125195126485,0.346884188833873,-15.115487352268694,44.36384731234888,-79.875
1772911381.4667273,80.54372989014014,0.9584455409817842,-5.83161566717787,0.5984779766207493,-1.0261705940758579,9.68050187876412,-0.1898124540365647,-0.10563320726197721,0.33488505022641196,-15.115487352268694,44.36384731234888,-79.875
1772911381.502223,81.15423178639031,0.524797955421964,-6.056195277132138,0.5799715257839162,-1.022443563578857,9.636847542516017,-0.1594536816097376,-0.12330475131538411,0.35452000431134817,-14.314581651843639,44.99130751748277,-79.0625
1772911381.518673,81.15423178639031,0.524797955421964,-6.056195277132138,0.5799715257839162,-1.022443563578857,9.636847542516017,-0.1594536816097376,-0.12330475131538411,0.35452000431134817,-14.314581651843639,44.99130751748277,-79.0625
1772911381.5450587,81.74037962483352,0.1149411087365278,-6.197430379800477,0.5784368179340699,-1.0107337934451865,9.627866739637708,-0.11209801865755162,-0.11931805152152561,0.32834006553143325,-14.314581651843639,44.99130751748277,-79.0625
1772911381.5613112,82.42492090005797,-0.35174701533438074,-6.316534088191797,0.5689618417721773,-0.9821546430649476,9.64865100930289,-0.09318773697095305,-0.11531385990640156,0.2901609881440573,-15.32025027854049,46.57379151843749,-81.0
1772911381.588654,82.42492090005797,-0.35174701533438074,-6.316534088191797,0.5689618417721773,-0.9821546430649476,9.64865100930289,-0.09318773697095305,-0.11531385990640156,0.2901609881440573,-15.32025027854049,46.57379151843749,-81.0
1772911381.6121173,82.87114834926648,-0.621289472313266,-6.395264601520101,0.5559861505045102,-0.9626183192436298,9.669172932004203,-0.07193365975745208,-0.10930319952839908,0.25416357232167425,-15.32025027854049,46.57379151843749,-81.0
1772911381.632304,83.35664638538051,-0.8736342411792043,-6.501411525376035,0.5175668600566804,-0.987569442848472,9.68283004231703,-0.056201744597183134,-0.1039584467678118,0.2007128639793479,-16.68046918069834,48.434518402806205,-80.5625
1772911381.6560876,83.57030911364423,-0.9663129525051558,-6.545873567274237,0.44861612838273734,-1.0444271290086538,9.705299143499575,-0.046151908961525476,-0.08723204313673644,0.17235126363444003,-16.68046918069834,48.434518402806205,-80.5625
1772911381.6816266,83.57030911364423,-0.9663129525051558,-6.545873567274237,0.44861612838273734,-1.0444271290086538,9.705299143499575,-0.046151908961525476,-0.08723204313673644,0.17235126363444003,-16.68046918069834,48.434518402806205,-80.5625
1772911381.7024012,83.82579359200264,-1.0914758296401381,-6.6152631848798515,0.385796076251354,-1.0843073380102155,9.720252079340252,-0.04229888890714786,-0.07987207570263796,0.1308996938995747,-16.68046918069834,48.434518402806205,-80.5625
1772911381.7408938,84.00868865079812,-1.2453144147579822,-6.679396520421976,0.2988234654940902,-1.1308309530634153,9.730203091106985,-0.029661008582202553,-0.07209919572414228,0.05999569303730508,-16.90989246060662,49.51799773285183,-82.0625
1772911381.7578032,84.08139656841848,-1.2960189578689776,-6.714095043452024,0.22605210815426902,-1.1807680636149334,9.716754708033744,-0.022199217635832526,-0.04641926844048724,0.05999569303730508,-16.90989246060662,49.51799773285183,-82.0625
1772911381.7887459,84.14251672724114,-1.3176409100568305,-6.749081825976816,0.17428848251677034,-1.2137420436062447,9.707804959326785,-0.025528755722908594,-0.018808458174327004,0.04581489286485115,-16.90989246060662,49.51799773285183,-82.0625
1772911381.8185394,84.16692607451583,-1.3067179470718946,-6.7794144176905355,0.1411065941565878,-1.2626252700910054,9.718574560074144,0.003600024981359626,0.004097269216762841,0.00545415391248228,-17.603996357839822,51.07632248393733,-82.0625
1772911381.8450027,84.16314838024769,-1.345298998869632,-6.679851143371702,0.1356999193047328,-1.2964495574884358,9.789298731506257,0.05143544034768329,-0.02805870645308857,-0.009817477042468103,-17.603996357839822,51.07632248393733,-82.0625
1772911381.8618329,84.14958461143858,-1.3799061870270193,-6.6147820364448275,0.1428829660388035,-1.3097297699378037,9.87985132974872,0.06314567207156259,-0.03224905327149019,-0.015271630954950384,-17.603996357839822,51.07632248393733,-82.0625
1772911381.879616,84.14958461143858,-1.3799061870270193,-6.6147820364448275,0.1428829660388035,-1.3097297699378037,9.87985132974872,0.06314567207156259,-0.03224905327149019,-0.015271630954950384,-17.603996357839822,51.07632248393733,-82.0625
1772911381.9038258,84.1107419373009,-1.3968147111562084,-6.599285031244917,0.14766320340043793,-1.3185676029731643,9.960183742584194,0.034624705025601936,-0.019096436889876115,-0.026179938779914945,-20.89741989397406,50.64213627775725,-82.0625
1772911381.9360442,84.07022729427855,-1.3794606213084788,-6.608893932494173,0.09026855523418514,-1.3700792284977108,10.013644065954352,0.027020488429118243,-0.0042834244200403975,-0.03381575425739013,-20.89741989397406,50.64213627775725,-82.0625
1772911381.9638956,84.05053425693552,-1.3899761447001204,-6.569011997498322,0.052073058019773265,-1.404359639861736,10.012425085185738,0.030527435808839095,-0.015496411908516491,-0.007635815477475192,-20.427907426675297,50.229603802610114,-82.5625
1772911381.985256,84.05084319397359,-1.3996024784412782,-6.549134986405655,0.03976299296654246,-1.3879274955810743,10.004923643686494,0.034717782627240706,-0.0037861801846371815,-0.00545415391248228,-20.427907426675297,50.229603802610114,-82.5625
1772911382.015303,84.11884770654595,-1.3007448749580932,-6.486732536709294,0.04491118313474727,-1.3780265241079663,9.979860847921422,0.04395053908473672,0.04473263462036726,0.05126904677733343,-21.155834273725414,51.351737932446504,-80.875
1772911382.0601704,84.11884770654595,-1.3007448749580932,-6.486732536709294,0.04491118313474727,-1.3780265241079663,9.979860847921422,0.04395053908473672,0.04473263462036726,0.05126904677733343,-21.155834273725414,51.351737932446504,-80.875
1772911382.0791473,84.22419724744869,-1.075597761181706,-6.391237781572195,0.0650127473685016,-1.3727305844269528,9.926385608529028,0.07853464197249654,0.09566208482201456,0.05890486225480862,-21.155834273725414,51.351737932446504,-80.875
1772911382.0967593,84.3086707227704,-0.9159790814192718,-6.279375028323664,0.0822424325473494,-1.3627946045010626,9.890798434070954,0.09643294336702313,0.08661548356779611,0.05999569303730508,-21.155834273725414,51.351737932446504,-80.875
1772911382.1112432,84.3086707227704,-0.9159790814192718,-6.279375028323664,0.0822424325473494,-1.3627946045010626,9.890798434070954,0.09643294336702313,0.08661548356779611,0.05999569303730508,-21.155834273725414,51.351737932446504,-80.875
1772911382.1311076,84.34964419255006,-0.14334127104602473,-5.566407220528487,0.09370859556567811,-1.356182320852551,9.863770455296573,0.08554853673193824,0.07323610984506237,0.05672320068981571,-22.18183250785216,51.05516985667165,-84.0
1772911382.1531367,84.41512954612993,-0.7008852137795185,-6.163324112408705,0.09055807051747763,-1.3610113929200895,9.845783637344526,0.04664040728629591,0.06531205830582024,0.028361600344907856,-22.18183250785216,51.05516985667165,-84.0
1772911382.172035,84.415650850938,-0.6169440002991201,-6.189130070911593,0.08512633105439776,-1.3639664771901183,9.837158722630681,0.011829547057416423,0.053787981785218486,0.006544984694978736,-22.18183250785216,51.05516985667165,-84.0
1772911382.20369,84.415650850938,-0.6169440002991201,-6.189130070911593,0.08512633105439776,-1.3639664771901183,9.837158722630681,0.011829547057416423,0.053787981785218486,0.006544984694978736,-22.18183250785216,51.05516985667165,-84.0
1772911382.2311704,84.41992920083676,-0.5977213128363617,-6.2686323758432145,0.08177017836487191,-1.3625979525241954,9.831418938235228,-0.028014976899924673,0.01967801281628533,0.006544984694978736,-22.234982857564457,50.36972745185162,-85.1875
