timestamp,yaw,pitch,roll,ax,ay,az,gx,gy,gz,mx,my,mz
1772318521.3739874,-0.10545403400962597,1.366792424310484,-8.823022701076267,-0.221122237926373,-1.5042797767912715,9.717800791002482,-0.001090830782496456,0.0,0.0,6.75,33.75,-104.75
1772318521.6827087,-0.10545403400962597,1.366792424310484,-8.823022701076267,-0.22022011418009535,-1.5078921432507468,9.734659977984844,0.001090830782496456,0.002181661564992912,-0.001090830782496456,5.5625,34.1875,-105.5625
1772318521.9557464,-0.10545403400962597,1.366792424310484,-8.823022701076267,-0.2232247589147787,-1.4979102952867371,9.72554096127587,0.001090830782496456,0.001090830782496456,0.001090830782496456,7.0625,33.1875,-104.75
1772318521.9929774,-0.10545403400962597,1.366792424310484,-8.823022701076267,-0.2232247589147787,-1.4979102952867371,9.72554096127587,0.001090830782496456,0.001090830782496456,0.001090830782496456,7.0625,33.1875,-104.75
1772318522.0570242,-0.10545403400962597,1.366792424310484,-8.823022701076267,-0.21880092932754844,-1.4986093248568548,9.723687447832498,-0.001090830782496456,0.0,0.001090830782496456,6.375,33.1875,-105.5625
1772318522.1117504,-0.10545403400962597,1.366792424310484,-8.823022701076267,-0.21585692015466115,-1.4990745212270962,9.729144178755675,0.001090830782496456,0.001090830782496456,0.0,6.375,33.1875,-105.5625
1772318522.1965318,-0.10545403400962597,1.366792424310484,-8.823022701076267,-0.2215102436386532,-1.5018162627089027,9.735192224020793,0.0,0.0,-0.001090830782496456,6.75,34.1875,-106.375
1772318522.2453523,-0.10545403400962597,1.366792424310484,-8.823022701076267,-0.22066884972820125,-1.5030305125146757,9.72115701583363,-0.001090830782496456,-0.001090830782496456,0.0,6.75,35.0,-105.5625
1772318522.2975738,-0.10545403400962597,1.366792424310484,-8.823022701076267,-0.22066884972820125,-1.5030305125146757,9.72115701583363,-0.001090830782496456,-0.001090830782496456,0.0,6.75,35.0,-105.5625
1772318522.3143764,-0.10545403400962597,1.366792424310484,-8.823022701076267,-0.2204451120225769,-1.5053618839327931,9.717424869405248,0.001090830782496456,-0.001090830782496456,-0.001090830782496456,7.5,34.1875,-104.375
1772318522.3364384,-3.884144633275278e-06,1.366842762061487,-8.823346393148086,-0.2175223411369112,-1.5073162926110892,9.714941167647966,0.0,0.0,0.002181661564992912,7.5,34.1875,-104.375
1772318522.370549,-3.884144633275278e-06,1.366842762061487,-8.823346393148086,-0.22076645907560666,-1.5083547722380368,9.709943180165943,-2.0076948506157248e-06,0.0010908289348945679,-0.001090830782496456,7.5,34.1875,-104.375
1772318522.3947144,-3.884144633275278e-06,1.366842762061487,-8.823346393148086,-0.22076645907560666,-1.5083547722380368,9.709943180165943,-2.0076948506157248e-06,0.0010908289348945679,-0.001090830782496456,7.5,34.1875,-104.375
1772318522.454221,-3.884144633275278e-06,1.366842762061487,-8.823346393148086,-0.21958027728312243,-1.509039712087325,9.706617075327836,0.0,0.0,0.001090830782496456,7.4376397135373375,33.888746516972446,-105.5
1772318522.494256,-3.884144633275278e-06,1.366842762061487,-8.823346393148086,-0.21544578050922877,-1.5094893751638785,9.70774870142042,-0.0010908289348945679,-2.0076948506157248e-06,-0.001090830782496456,7.4376397135373375,33.888746516972446,-105.5
1772318522.5247893,-3.884144633275278e-06,1.366842762061487,-8.823346393148086,-0.21269431909155773,-1.5097886209182594,9.715192009358582,-2.0076948506157248e-06,0.0010908289348945679,-0.001090830782496456,6.686375626998427,34.57486496321687,-104.75
1772318522.584446,-3.884144633275278e-06,1.366842762061487,-8.823346393148086,-0.21269431909155773,-1.5097886209182594,9.715192009358582,-2.0076948506157248e-06,0.0010908289348945679,-0.001090830782496456,6.686375626998427,34.57486496321687,-104.75
1772318522.620715,-3.884144633275278e-06,1.366842762061487,-8.823346393148086,-0.21420835829544976,-1.5099939223668737,9.716800335936911,-0.0021836655646397516,0.0010868135451933363,0.0,6.686375626998427,34.57486496321687,-105.1875
1772318522.6524248,-3.884144633275278e-06,1.366842762061487,-8.823346393148086,-0.21420835829544976,-1.5099939223668737,9.716800335936911,-0.0021836655646397516,0.0010868135451933363,0.0,6.686375626998427,34.57486496321687,-105.1875
1772318522.6756704,-3.884144633275278e-06,1.366842762061487,-8.823346393148086,-0.21856104051422803,-1.510136704929427,9.717870659308604,2.0076948506157248e-06,-0.0010908289348945679,0.0,6.686375626998427,34.57486496321687,-105.1875
1772318522.696161,-3.884144633275278e-06,1.366842762061487,-8.823346393148086,-0.21856104051422803,-1.510136704929427,9.717870659308604,2.0076948506157248e-06,-0.0010908289348945679,0.0,6.686375626998427,34.57486496321687,-105.1875
1772318522.7140617,-3.884144633275278e-06,1.366842762061487,-8.823346393148086,-0.22145770190817868,-1.5102317251298205,9.715237835848852,-0.0010948443245957992,0.00217965017493852,-0.001090830782496456,6.999565292348418,34.200440760583064,-104.75
1772318522.730442,-3.884144633275278e-06,1.366842762061487,-8.823346393148086,-0.2233853977080249,-1.5102949600117372,9.71348572124695,0.0,0.0,0.001090830782496456,6.999565292348418,34.200440760583064,-104.75
1772318522.7439692,-3.884144633275278e-06,1.366842762061487,-8.823346393148086,-0.2233853977080249,-1.5102949600117372,9.71348572124695,0.0,0.0,0.001090830782496456,6.999565292348418,34.200440760583064,-104.75
1772318522.7611868,-3.884144633275278e-06,1.366842762061487,-8.823346393148086,-0.22468057121278556,-1.5036468300362444,9.712319708551789,-0.0010948443245957992,0.00217965017493852,0.0,6.999565292348418,34.200440760583064,-104.75
1772318522.784357,-3.884144633275278e-06,1.366842762061487,-8.823346393148086,-0.22554249471216772,-1.499222573802032,9.711543740128374,-0.0010848058503427206,-0.0032744944995343195,-0.001090830782496456,6.686375626998427,34.57486496321687,-105.1875
1772318522.797989,-3.884144633275278e-06,1.366842762061487,-8.823346393148086,-0.22610993843082217,-1.4996233867418582,9.717717565225364,-0.0010848058503427206,-0.0032744944995343195,0.001090830782496456,6.686375626998427,34.57486496321687,-105.1875
1772318522.811878,-3.884144633275278e-06,1.366842762061487,-8.823346393148086,-0.22610993843082217,-1.4996233867418582,9.717717565225364,-0.0010848058503427206,-0.0032744944995343195,0.001090830782496456,6.686375626998427,34.57486496321687,-105.1875
1772318522.836233,-3.884144633275278e-06,1.366842762061487,-8.823346393148086,-0.22313630310344282,-1.5032290725755848,9.715135953446628,0.0,0.0,0.001090830782496456,6.686375626998427,34.57486496321687,-105.1875
1772318522.8966753,-3.884144633275278e-06,1.366842762061487,-8.823346393148086,-0.221157382010755,-1.50562861621978,9.720108143061012,0.0010888212400439522,0.0010928366297451835,0.0,7.00014045455587,33.887941289882015,-105.1875
1772318522.9652455,-3.884144633275278e-06,1.366842762061487,-8.823346393148086,-0.21649532608805414,-1.507219328968465,9.723417079706385,-6.023084551847175e-06,0.0032724868046837036,0.0,7.00014045455587,33.887941289882015,-105.1875
1772318523.0357616,-3.884144633275278e-06,1.366842762061487,-8.823346393148086,-0.214683430179279,-1.5034173380463345,9.717049251539118,-0.0010868135451933365,-0.002183665564639751,0.0,7.685568706151349,35.01420474126218,-105.1875
1772318523.0629857,-3.884144633275278e-06,1.366842762061487,-8.823346393148086,-0.214683430179279,-1.5034173380463345,9.717049251539118,-0.0010868135451933365,-0.002183665564639751,0.0,7.685568706151349,35.01420474126218,-105.1875
1772318523.1218185,-3.884144633275278e-06,1.366842762061487,-8.823346393148086,-0.21553824624636952,-1.5024087987459867,9.711346086446664,-0.0010928366297451835,0.001088821240043952,0.001090830782496456,6.998069870609043,35.01293938440579,-105.1875
1772318523.1612613,-3.884144633275278e-06,1.366842762061487,-8.823346393148086,-0.21610711679009714,-1.5017376271077272,9.717586028908123,-0.0010888212400439522,-0.0010928366297451835,0.0,6.998069870609043,35.01293938440579,-105.1875
1772318523.2195652,-3.884144633275278e-06,1.366842762061487,-8.823346393148086,-0.21983079982376172,-1.501297126621812,9.7217386409115,0.0,0.0,-0.001090830782496456,6.31137626215717,34.57417476856793,-105.5625
1772318523.243807,-3.884144633275278e-06,1.366842762061487,-8.823346393148086,-0.21896376324488628,-1.5009978217272804,9.724502157812031,6.023084551847175e-06,-0.0032724868046837036,0.0,6.31137626215717,34.57417476856793,-105.5625
1772318523.326138,-3.884144633275278e-06,1.366842762061487,-8.823346393148086,-0.2183867600870779,-1.5007986376634244,9.72299613573151,-0.0010868135451933365,-0.002183665564639751,0.002181661564992912,6.999565292348418,34.200440760583064,-105.5625
1772318523.356687,-3.884144633275278e-06,1.366842762061487,-8.823346393148086,-0.21799661418923602,-1.5040111889354741,9.72533900656761,2.0076948506157248e-06,-0.0010908289348945679,0.0,6.999565292348418,34.200440760583064,-105.5625
1772318523.391236,-3.884144633275278e-06,1.366842762061487,-8.823346393148086,-0.21799661418923602,-1.5040111889354741,9.72533900656761,2.0076948506157248e-06,-0.0010908289348945679,0.0,6.999565292348418,34.200440760583064,-105.5625
1772318523.4115138,-3.884144633275278e-06,1.366842762061487,-8.823346393148086,-0.21773697645243748,-1.5061491059204741,9.723553049230134,-0.0010868135451933365,-0.002183665564639751,-0.001090830782496456,7.686373933241781,34.576705482280715,-105.5625
1772318523.4694002,-3.884144633275278e-06,1.366842762061487,-8.823346393148086,-0.2175641904389416,-1.507571865791894,9.722364514572494,-0.0010848058503427206,-0.0032744944995343195,0.0,7.686373933241781,34.576705482280715,-105.5625
1772318523.5177257,-3.884144633275278e-06,1.366842762061487,-8.823346393148086,-0.21744920327710637,-1.5085186965930548,9.721573558034637,-2.0076948506157248e-06,0.0010908289348945679,-0.001090830782496456,6.685570399907995,35.012364222198336,-105.5625
1772318523.5481586,-3.884144633275278e-06,1.366842762061487,-8.823346393148086,-0.21737883734726376,-1.50580369587292,9.727737408708894,4.0153897012314496e-06,-0.0021816578697891357,-0.001090830782496456,6.685570399907995,35.012364222198336,-105.5625
1772318523.5858653,-3.884144633275278e-06,1.366842762061487,-8.823346393148086,-0.21398690356547825,-1.5039907364803475,9.731839382477888,-6.023084551847175e-06,0.0032724868046837036,0.0,7.686373933241781,34.576705482280715,-104.0
1772318523.6136012,-3.884144633275278e-06,1.366842762061487,-8.823346393148086,-0.211729609524083,-1.5027842322566742,9.734569200199106,-0.0010868135451933365,-0.002183665564639751,0.0,7.686373933241781,34.576705482280715,-104.0
1772318523.6443734,-3.884144633275278e-06,1.366842762061487,-8.823346393148086,-0.211729609524083,-1.5027842322566742,9.734569200199106,-0.0010868135451933365,-0.002183665564639751,0.0,7.686373933241781,34.576705482280715,-104.0
1772318523.6685536,-3.884144633275278e-06,1.366842762061487,-8.823346393148086,-0.21022124881329315,-1.505326423214869,9.736385863398514,-0.0010868135451933365,-0.002183665564639751,-0.001090830782496456,7.437064551329885,34.201245987673495,-105.1875
1772318523.705374,-3.884144633275278e-06,1.366842762061487,-8.823346393148086,-0.21591382043465204,-1.5036854303416356,9.737594832464262,-0.0010888212400439522,-0.0010928366297451835,0.001090830782496456,7.437064551329885,34.201245987673495,-105.1875
1772318523.739774,-3.884144633275278e-06,1.366842762061487,-8.823346393148086,-0.21969600651660676,-1.5059384739571047,9.738399387872448,-0.0010928366297451835,0.001088821240043952,0.001090830782496456,7.437064551329885,34.201245987673495,-105.1875
1772318523.7629552,-3.884144633275278e-06,1.366842762061487,-8.823346393148086,-0.21969600651660676,-1.5059384739571047,9.738399387872448,-0.0010928366297451835,0.001088821240043952,0.001090830782496456,7.437064551329885,34.201245987673495,-105.1875
1772318523.816426,-3.884144633275278e-06,1.366842762061487,-8.823346393148086,-0.2222253225880968,-1.5007476372320243,9.735589698801805,-0.0010888212400439522,-0.0010928366297451835,-0.001090830782496456,7.43556912959051,35.01374461149622,-105.0625
1772318523.8460803,-3.884144633275278e-06,1.366842762061487,-8.823346393148086,-0.2205634481378474,-1.4972870366350612,9.733719882111574,0.0010888212400439522,0.0010928366297451835,-0.003272492347489368,7.43556912959051,35.01374461149622,-105.0625
1772318523.8635697,-3.884144633275278e-06,1.366842762061487,-8.823346393148086,-0.2194574892555604,-1.4949840455952237,9.732475539991446,2.0076948506157248e-06,-0.0010908289348945679,0.0,7.43556912959051,35.01374461149622,-105.0625
1772318523.8978317,-3.884144633275278e-06,1.366842762061487,-8.823346393148086,-0.2194574892555604,-1.4949840455952237,9.732475539991446,2.0076948506157248e-06,-0.0010908289348945679,0.0,7.43556912959051,35.01374461149622,-105.0625
1772318523.9320147,-3.884144633275278e-06,1.366842762061487,-8.823346393148086,-0.21870917249003258,-1.5001416428673358,9.728302332503395,-2.0076948506157248e-06,0.0010908289348945679,-0.001090830782496456,6.6876409838548225,33.88736612767456,-104.75
1772318523.956318,-3.884144633275278e-06,1.366842762061487,-8.823346393148086,-0.22155628208333403,-1.503580122979658,9.725525109537879,0.0010908289348945679,2.0076948506157248e-06,0.0,6.6876409838548225,33.88736612767456,-104.75
1772318523.99247,-3.884144633275278e-06,1.366842762061487,-8.823346393148086,-0.22344484497151004,-1.509213499125583,9.72367689867794,0.0010888212400439522,0.0010928366297451835,0.0,6.6876409838548225,33.88736612767456,-104.75
1772318524.0408661,-3.884144633275278e-06,1.366842762061487,-8.823346393148086,-0.2247016624769614,-1.5129624480217612,9.7191018232892,0.0010928366297451835,-0.001088821240043952,0.0,6.3105710350667374,35.01167402754939,-103.5625
1772318524.0666077,-3.884144633275278e-06,1.366842762061487,-8.823346393148086,-0.22219295444575365,-1.5154511748917965,9.716057161724935,0.0010948443245957992,-0.00217965017493852,0.0,6.3105710350667374,35.01167402754939,-103.5625
1772318524.141934,-3.884144633275278e-06,1.366842762061487,-8.823346393148086,-0.22053575075882587,-1.5104171827398758,9.724066308586972,6.023084551847175e-06,-0.0032724868046837036,0.002181661564992912,7.437064551329885,34.201245987673495,-105.1875
1772318524.171366,-3.884144633275278e-06,1.366842762061487,-8.823346393148086,-0.22612311230038196,-1.5070794306798856,9.729396306355625,-0.0010948443245957992,0.00217965017493852,-0.002181661564992912,7.437064551329885,34.201245987673495,-105.1875
1772318524.2135024,-3.884144633275278e-06,1.366842762061487,-8.823346393148086,-0.22612311230038196,-1.5070794306798856,9.729396306355625,-0.0010948443245957992,0.00217965017493852,-0.002181661564992912,7.437064551329885,34.201245987673495,-105.1875
1772318524.2679715,-3.884144633275278e-06,1.366842762061487,-8.823346393148086,-0.2289708378262768,-1.503373829009037,9.72973263894671,-4.0153897012314496e-06,0.0021816578697891357,0.0,5.93833244882125,33.51098637353542,-105.1875
1772318524.3395946,-3.884144633275278e-06,1.366842762061487,-8.823346393148086,-0.22504635643464566,-1.502379843967693,9.723131850791015,-0.0010888212400439522,-0.0010928366297451835,-0.002181661564992912,6.685570399907995,35.012364222198336,-104.75
1772318524.4005332,-3.884144633275278e-06,1.366842762061487,-8.823346393148086,-0.22504635643464566,-1.502379843967693,9.723131850791015,-0.0010888212400439522,-0.0010928366297451835,-0.002181661564992912,6.685570399907995,35.012364222198336,-104.75
1772318524.4291282,-3.884144633275278e-06,1.366842762061487,-8.823346393148086,-0.22243465790784472,-1.5017183580262188,9.718739100009035,0.0010908289348945679,2.0076948506157248e-06,0.0,6.685570399907995,35.012364222198336,-104.75
1772318524.4565306,-3.884144633275278e-06,1.366842762061487,-8.823346393148086,-0.22243465790784472,-1.5017183580262188,9.718739100009035,0.0010908289348945679,2.0076948506157248e-06,0.0,6.685570399907995,35.012364222198336,-104.75
1772318524.4902039,-3.884144633275278e-06,1.366842762061487,-8.823346393148086,-0.22069660171284292,-1.50127814652145,9.71916088514119,2.0076948506157248e-06,-0.0010908289348945679,0.0,6.998069870609043,35.01293938440579,-105.5625
1772318524.5295398,-3.884144633275278e-06,1.366842762061487,-8.823346393148086,-0.22069660171284292,-1.50127814652145,9.71916088514119,2.0076948506157248e-06,-0.0010908289348945679,0.0,6.998069870609043,35.01293938440579,-105.5625
1772318524.5609543,-3.884144633275278e-06,1.366842762061487,-8.823346393148086,-0.219539944730429,-1.500985190682511,9.719441578434989,-0.0010848058503427206,-0.0032744944995343195,0.001090830782496456,6.998069870609043,35.01293938440579,-105.5625
1772318524.6349962,-3.884144633275278e-06,1.366842762061487,-8.823346393148086,-0.21877020242933767,-1.500790231844228,9.719628376686464,2.0076948506157248e-06,-0.0010908289348945679,-0.001090830782496456,6.3105710350667374,35.01167402754939,-104.5
1772318524.6762884,-3.884144633275278e-06,1.366842762061487,-8.823346393148086,-0.2182641042684143,-1.4973153828736698,9.713062465421508,-2.0076948506157248e-06,0.0010908289348945679,-0.001090830782496456,6.3105710350667374,35.01167402754939,-104.5
1772318524.705393,-3.884144633275278e-06,1.366842762061487,-8.823346393148086,-0.2145821955542925,-1.4949967529585015,9.712038036528034,0.0,0.0,0.001090830782496456,7.437064551329885,34.201245987673495,-104.75
1772318524.727936,-3.884144633275278e-06,1.366842762061487,-8.823346393148086,-0.21212576969279168,-1.4967988366922644,9.711356290543048,0.0,0.0,0.0,7.437064551329885,34.201245987673495,-104.75
1772318524.7526588,-3.884144633275278e-06,1.366842762061487,-8.823346393148086,-0.2104848889801697,-1.5013432093280035,9.71424770791296,0.0,0.0,0.002181661564992912,7.437064551329885,34.201245987673495,-104.75
1772318524.8109188,-3.884144633275278e-06,1.366842762061487,-8.823346393148086,-0.21608927002065476,-1.5010346459953412,9.716171913873389,-4.0153897012314496e-06,0.0021816578697891357,-0.003272492347489368,6.999565292348418,34.200440760583064,-105.1875
1772318524.908822,-3.884144633275278e-06,1.366842762061487,-8.823346393148086,-0.22787220213642737,-1.5007028994253513,9.72053076936868,0.0,0.0,-0.002181661564992912,7.00014045455587,33.887941289882015,-105.1875
1772318524.9879134,-3.884144633275278e-06,1.366842762061487,-8.823346393148086,-0.22787220213642737,-1.5007028994253513,9.72053076936868,0.0,0.0,-0.002181661564992912,7.00014045455587,33.887941289882015,-105.1875
1772318525.0294259,-3.884144633275278e-06,1.366842762061487,-8.823346393148086,-0.230999281996776,-1.5039597896912387,9.717008109378456,-0.0010908289348945679,-2.0076948506157248e-06,0.0,7.00014045455587,33.887941289882015,-105.1875
1772318525.108696,-3.884144633275278e-06,1.366842762061487,-8.823346393148086,-0.22973521267055297,-1.5061210570394707,9.711318706798332,-0.00217965017493852,-0.0010948443245957992,0.0,7.437064551329885,34.201245987673495,-105.5625
1772318525.1454356,-3.884144633275278e-06,1.366842762061487,-8.823346393148086,-0.22554888261301695,-1.507553199574913,9.707532472936052,2.0076948506157248e-06,-0.0010908289348945679,0.0,7.437064551329885,34.201245987673495,-105.5625
1772318525.2325864,-3.884144633275278e-06,1.366842762061487,-8.823346393148086,-0.2227629267240976,-1.5085062744341693,9.705012776595707,0.0010888212400439522,0.0010928366297451835,0.001090830782496456,6.3105710350667374,35.01167402754939,-105.1875
1772318525.2985733,-3.884144633275278e-06,1.366842762061487,-8.823346393148086,-0.21966481893817474,-1.5151338652435735,9.713362527711496,0.0010908289348945679,2.0076948506157248e-06,0.001090830782496456,6.999565292348418,34.200440760583064,-104.5
1772318525.396478,-3.884144633275278e-06,1.366842762061487,-8.823346393148086,-0.21885330481965615,-1.5102060167135645,9.715582836337424,-6.023084551847175e-06,0.0032724868046837036,0.001090830782496456,6.999565292348418,34.200440760583064,-104.5
1772318525.4415388,-3.884144633275278e-06,1.366842762061487,-8.823346393148086,-0.21885330481965615,-1.5102060167135645,9.715582836337424,-6.023084551847175e-06,0.0032724868046837036,0.001090830782496456,6.999565292348418,34.200440760583064,-104.5
1772318525.4743557,-3.884144633275278e-06,1.366842762061487,-8.823346393148086,-0.2216583572805029,-1.5069327453063865,9.717060426925507,0.0010948443245957992,-0.00217965017493852,0.001090830782496456,6.31137626215717,34.57417476856793,-104.5
1772318525.5598588,-3.884144633275278e-06,1.366842762061487,-8.823346393148086,-0.22351893161683928,-1.508099525791261,9.724733970370746,0.0010888212400439522,0.0010928366297451835,-0.002181661564992912,6.31137626215717,34.57417476856793,-104.5
1772318525.6533597,-3.884144633275278e-06,1.366842762061487,-8.823346393148086,-0.224757123053694,-1.5088760051701533,9.729840627814456,0.0,0.0,0.001090830782496456,6.998875097699475,34.57544012542432,-105.1875
1772318525.6759217,-3.884144633275278e-06,1.366842762061487,-8.823346393148086,-0.224757123053694,-1.5088760051701533,9.729840627814456,0.0,0.0,0.001090830782496456,6.998875097699475,34.57544012542432,-105.1875
1772318525.7193122,-3.884144633275278e-06,1.366842762061487,-8.823346393148086,-0.22558112562341615,-1.509392743522963,9.729893939590825,-4.0153897012314496e-06,0.0021816578697891357,-0.001090830782496456,6.998875097699475,34.57544012542432,-105.1875
1772318525.743507,-3.884144633275278e-06,1.366842762061487,-8.823346393148086,-0.22612949012885444,-1.5097366271244124,9.726584306275148,-0.0010928366297451835,0.001088821240043952,0.0,8.124563386872191,34.20251134452989,-105.25
1772318525.7711773,-3.884144633275278e-06,1.366842762061487,-8.823346393148086,-0.22314931454007653,-1.5099593210778772,9.724381782274591,0.0010928366297451835,-0.001088821240043952,0.001090830782496456,8.124563386872191,34.20251134452989,-105.25
1772318525.7995968,-3.884144633275278e-06,1.366842762061487,-8.823346393148086,-0.22314931454007653,-1.5099593210778772,9.724381782274591,0.0010928366297451835,-0.001088821240043952,0.001090830782496456,8.124563386872191,34.20251134452989,-105.25
1772318525.818537,-3.884144633275278e-06,1.366842762061487,-8.823346393148086,-0.22116604097648745,-1.5101075214162536,9.726261138863345,-0.0010908289348945679,-2.0076948506157248e-06,-0.001090830782496456,6.998069870609043,35.01293938440579,-105.5625
1772318525.8335378,-3.884144633275278e-06,1.366842762061487,-8.823346393148086,-0.21984619457453627,-1.5102061470859367,9.727511829679372,4.0153897012314496e-06,-0.0021816578697891357,0.002181661564992912,6.998069870609043,35.01293938440579,-105.5625
1772318525.8502893,-3.884144633275278e-06,1.366842762061487,-8.823346393148086,-0.21896785153768814,-1.51027178136739,9.724999038738988,-0.0010928366297451835,0.001088821240043952,0.002181661564992912,6.998069870609043,35.01293938440579,-105.5625
1772318525.8725328,-3.884144633275278e-06,1.366842762061487,-8.823346393148086,-0.21896785153768814,-1.51027178136739,9.724999038738988,-0.0010928366297451835,0.001088821240043952,0.002181661564992912,6.998069870609043,35.01293938440579,-105.5625
1772318525.9077418,-3.884144633275278e-06,1.366842762061487,-8.823346393148086,-0.2183833240584003,-1.5103154602485143,9.723326804437875,2.0076948506157248e-06,-0.0010908289348945679,0.0,6.312066456806113,34.19917540372667,-104.75
1772318525.9221182,-3.884144633275278e-06,1.366842762061487,-8.823346393148086,-0.21466153499275586,-1.503648159231081,9.722213951190565,0.0021816578697891357,4.0153897012314496e-06,-0.002181661564992912,6.312066456806113,34.19917540372667,-104.75
1772318525.9348998,-3.884144633275278e-06,1.366842762061487,-8.823346393148086,-0.21552983198619166,-1.4992173016244796,9.724818471493185,-0.0010928366297451835,0.001088821240043952,0.0,6.312066456806113,34.19917540372667,-104.75
1772318525.956575,-3.884144633275278e-06,1.366842762061487,-8.823346393148086,-0.21552983198619166,-1.4992173016244796,9.724818471493185,-0.0010928366297451835,0.001088821240043952,0.0,6.312066456806113,34.19917540372667,-104.75
1772318525.9866064,-3.884144633275278e-06,1.366842762061487,-8.823346393148086,-0.2194466232354564,-1.4996198781665913,9.72655175066018,-0.0010888212400439522,-0.0010928366297451835,0.0,7.685568706151349,35.01420474126218,-104.0
1772318526.0202124,-3.884144633275278e-06,1.366842762061487,-8.823346393148086,-0.222053204058417,-1.4998877883582917,9.7243601168765,-0.0010948443245957992,0.00217965017493852,-0.001090830782496456,7.685568706151349,35.01420474126218,-104.0
1772318526.0429964,-3.884144633275278e-06,1.366842762061487,-8.823346393148086,-0.2237878544786816,-1.5000660795981156,9.722901609075615,-2.0076948506157248e-06,0.0010908289348945679,-0.001090830782496456,7.685568706151349,35.01420474126218,-104.0
1772318526.0684385,-3.884144633275278e-06,1.366842762061487,-8.823346393148086,-0.2237878544786816,-1.5000660795981156,9.722901609075615,-2.0076948506157248e-06,0.0010908289348945679,-0.001090830782496456,7.685568706151349,35.01420474126218,-104.0
1772318526.109189,-3.884144633275278e-06,1.366842762061487,-8.823346393148086,-0.22494224495605286,-1.5001847304265747,9.718585876719406,0.0010888212400439522,0.0010928366297451835,-0.001090830782496456,7.43556912959051,35.01374461149622,-105.5625
1772318526.1572447,-3.884144633275278e-06,1.366842762061487,-8.823346393148086,-0.22571047892335686,-1.5002636912274976,9.719058916753557,-0.0010908289348945679,-2.0076948506157248e-06,0.001090830782496456,7.43556912959051,35.01374461149622,-105.5625
1772318526.2064118,-3.884144633275278e-06,1.366842762061487,-8.823346393148086,-0.22571047892335686,-1.5002636912274976,9.719058916753557,-0.0010908289348945679,-2.0076948506157248e-06,0.001090830782496456,7.43556912959051,35.01374461149622,-105.5625
1772318526.2242281,-3.884144633275278e-06,1.366842762061487,-8.823346393148086,-0.22621557330499392,-1.503661344799976,9.719373719612081,4.0153897012314496e-06,-0.0021816578697891357,0.001090830782496456,6.68706582164737,34.19986559837561,-104.875
1772318526.2518265,-3.884144633275278e-06,1.366842762061487,-8.823346393148086,-0.2298968140152137,-1.5059286020400513,9.72292832910517,-4.0153897012314496e-06,0.0021816578697891357,-0.001090830782496456,6.68706582164737,34.19986559837561,-104.875
1772318526.2738752,-3.884144633275278e-06,1.366842762061487,-8.823346393148086,-0.22565642650268333,-1.5074251229226625,9.72529388201523,-0.0010888212400439522,-0.0010928366297451835,-0.002181661564992912,6.68706582164737,34.19986559837561,-104.875
1772318526.2983148,-3.884144633275278e-06,1.366842762061487,-8.823346393148086,-0.2228283392394586,-1.5117661468943207,9.726868131051917,0.0,0.0,0.0,6.6876409838548225,33.88736612767456,-105.5625
1772318526.3346999,-3.884144633275278e-06,1.366842762061487,-8.823346393148086,-0.22095243549945529,-1.51130994381353,9.72791577620032,2.0076948506157248e-06,-0.0010908289348945679,0.0,6.6876409838548225,33.88736612767456,-105.5625
1772318526.3565571,-3.884144633275278e-06,1.366842762061487,-8.823346393148086,-0.22095243549945529,-1.51130994381353,9.72791577620032,2.0076948506157248e-06,-0.0010908289348945679,0.0,6.6876409838548225,33.88736612767456,-105.5625
1772318526.3795612,-3.884144633275278e-06,1.366842762061487,-8.823346393148086,-0.21969788577383284,-1.5143514518009003,9.731958084050937,-0.0010968520194464151,0.0032704791098330877,0.0,6.68706582164737,34.19986559837561,-105.25
1772318526.4208302,-3.884144633275278e-06,1.366842762061487,-8.823346393148086,-0.21886915368753782,-1.5130304353491106,9.737993306477305,2.0076948506157248e-06,-0.0010908289348945679,0.0,6.68706582164737,34.19986559837561,-105.25
1772318526.4381058,-3.884144633275278e-06,1.366842762061487,-8.823346393148086,-0.2183237984835205,-1.508806207615651,9.742009679584202,-0.0021816578697891357,-4.0153897012314496e-06,0.001090830782496456,7.437064551329885,34.201245987673495,-104.75
1772318526.4530697,-3.884144633275278e-06,1.366842762061487,-8.823346393148086,-0.2183237984835205,-1.508806207615651,9.742009679584202,-0.0021816578697891357,-4.0153897012314496e-06,0.001090830782496456,7.437064551329885,34.201245987673495,-104.75
1772318526.4772608,-3.884144633275278e-06,1.366842762061487,-8.823346393148086,-0.21461576464574958,-1.5059888745048813,9.734647195899056,-0.0010908289348945679,-2.0076948506157248e-06,0.0,7.437064551329885,34.201245987673495,-104.75
1772318526.5004864,-3.884144633275278e-06,1.366842762061487,-8.823346393148086,-0.21214810954816504,-1.504113970791337,9.729747545250923,2.0076948506157248e-06,-0.0010908289348945679,0.0,7.437064551329885,34.201245987673495,-104.75
1772318526.5423434,-3.884144633275278e-06,1.366842762061487,-8.823346393148086,-0.21049975590436812,-1.5062113493555345,9.726486882477275,0.0010888212400439522,0.0010928366297451835,-0.003272492347489368,6.686375626998427,34.57486496321687,-104.75
1772318526.5637252,-3.884144633275278e-06,1.366842762061487,-8.823346393148086,-0.21274790100925217,-1.5076132881026219,9.724316947825402,-2.0076948506157248e-06,0.0010908289348945679,-0.001090830782496456,6.686375626998427,34.57486496321687,-104.75
1772318526.6087852,-3.884144633275278e-06,1.366842762061487,-8.823346393148086,-0.21424401646312616,-1.5085462626781267,9.726217992261658,-0.0010908289348945679,-2.0076948506157248e-06,-0.002181661564992912,6.6876409838548225,33.88736612767456,-104.75
1772318526.6458647,-3.884144633275278e-06,1.366842762061487,-8.823346393148086,-0.21858477062648884,-1.5091733035779844,9.730828227805247,0.0010908289348945679,2.0076948506157248e-06,0.001090830782496456,6.6876409838548225,33.88736612767456,-104.75
1772318526.685941,-3.884144633275278e-06,1.366842762061487,-8.823346393148086,-0.2214734940328055,-1.5095905922923338,9.730551176352481,0.0010948443245957992,-0.00217965017493852,0.0,7.436374356680942,34.57624535251475,-104.75
1772318526.7310638,-3.884144633275278e-06,1.366842762061487,-8.823346393148086,-0.2214734940328055,-1.5095905922923338,9.730551176352481,0.0010948443245957992,-0.00217965017493852,0.0,7.436374356680942,34.57624535251475,-104.75
1772318526.7524147,-3.884144633275278e-06,1.366842762061487,-8.823346393148086,-0.22691163636042502,-1.5044859606671137,9.730244102437588,-0.0010908289348945679,-2.0076948506157248e-06,-0.001090830782496456,7.436374356680942,34.57624535251475,-104.75
1772318526.7931087,-3.884144633275278e-06,1.366842762061487,-8.823346393148086,-0.22702108690342307,-1.5031261119046864,9.73350755915273,-2.0076948506157248e-06,0.0010908289348945679,0.001090830782496456,7.436374356680942,34.57624535251475,-104.0
1772318526.8349316,-3.884144633275278e-06,1.366842762061487,-8.823346393148086,-0.22702108690342307,-1.5031261119046864,9.73350755915273,-2.0076948506157248e-06,0.0010908289348945679,0.001090830782496456,7.436374356680942,34.57624535251475,-104.0
1772318526.8823292,-3.884144633275278e-06,1.366842762061487,-8.823346393148086,-0.2237488189756314,-1.502214991001929,9.735679353141458,-0.0021836655646397516,0.0010868135451933363,0.0,7.436374356680942,34.57624535251475,-104.0
1772318526.9949558,-3.884144633275278e-06,1.366842762061487,-8.823346393148086,-0.22011170033037172,-1.506776373946142,9.72137275332897,-0.0010888212400439522,-0.0010928366297451835,0.001090830782496456,8.49956275171345,34.203201539178835,-106.0
1772318527.0401313,-3.884144633275278e-06,1.366842762061487,-8.823346393148086,-0.22011170033037172,-1.506776373946142,9.72137275332897,-0.0010888212400439522,-0.0010928366297451835,0.001090830782496456,8.49956275171345,34.203201539178835,-106.0
1772318527.0757747,-3.884144633275278e-06,1.366842762061487,-8.823346393148086,-0.21914454265230296,-1.507989305655933,9.72091355200577,0.0,0.0,0.001090830782496456,6.999565292348418,34.200440760583064,-104.875
1772318527.1239815,-3.884144633275278e-06,1.366842762061487,-8.823346393148086,-0.2185009100214074,-1.508796498159464,9.720607958654796,-0.0010908289348945679,-2.0076948506157248e-06,-0.001090830782496456,6.999565292348418,34.200440760583064,-104.875
1772318527.1415596,-3.884144633275278e-06,1.366842762061487,-8.823346393148086,-0.2185009100214074,-1.508796498159464,9.720607958654796,-0.0010908289348945679,-2.0076948506157248e-06,-0.001090830782496456,6.999565292348418,34.200440760583064,-104.875
1772318527.189868,-3.884144633275278e-06,1.366842762061487,-8.823346393148086,-0.21807257969539395,-1.5093336757536326,9.717059477986105,0.0,0.0,0.0,6.68706582164737,34.19986559837561,-105.1875
1772318527.2227747,-3.884144633275278e-06,1.366842762061487,-8.823346393148086,-0.2211326366897095,-1.5096973181837532,9.714698003740217,-0.0010928366297451835,0.001088821240043952,0.001090830782496456,6.68706582164737,34.19986559837561,-105.1875
1772318527.2768917,-3.884144633275278e-06,1.366842762061487,-8.823346393148086,-0.22316907043635006,-1.5099393181588463,9.719816692423613,2.0076948506157248e-06,-0.0010908289348945679,0.0,6.310110905300776,35.26167360411023,-104.75
1772318527.319478,-3.884144633275278e-06,1.366842762061487,-8.823346393148086,-0.22316907043635006,-1.5099393181588463,9.719816692423613,2.0076948506157248e-06,-0.0010908289348945679,0.0,6.310110905300776,35.26167360411023,-104.75
1772318527.3610406,-3.884144633275278e-06,1.366842762061487,-8.823346393148086,-0.2245304510881519,-1.5067552603974397,9.723223122562914,2.0076948506157248e-06,-0.0010908289348945679,0.0,6.310110905300776,35.26167360411023,-104.75
1772318527.4305832,-3.884144633275278e-06,1.366842762061487,-8.823346393148086,-0.22543643470430766,-1.5046363055254792,9.7254900637683,-0.0010868135451933365,-0.002183665564639751,0.0,6.310110905300776,35.26167360411023,-105.1875
1772318527.4589317,-3.884144633275278e-06,1.366842762061487,-8.823346393148086,-0.22269425063884504,-1.5032200079865983,9.726998687817092,0.0,0.0,0.0,6.310110905300776,35.26167360411023,-105.1875
1772318527.5143175,-3.884144633275278e-06,1.366842762061487,-8.823346393148086,-0.2175180949921006,-1.5056164270951997,9.728002660269128,0.0010908289348945679,2.0076948506157248e-06,-0.001090830782496456,7.000830649204813,33.51294192504076,-105.25
1772318527.5596855,-3.884144633275278e-06,1.366842762061487,-8.823346393148086,-0.21407342123063933,-1.507211217242218,9.728670792720852,2.0076948506157248e-06,-0.0010908289348945679,0.001090830782496456,7.000830649204813,33.51294192504076,-105.25
1772318527.6338089,-3.884144633275278e-06,1.366842762061487,-8.823346393148086,-0.2169518369392493,-1.505646033007688,9.731637461292523,-0.0010928366297451835,0.001088821240043952,0.0,6.688331178503765,33.5123667628333,-104.5
1772318527.7076285,-3.884144633275278e-06,1.366842762061487,-8.823346393148086,-0.2169518369392493,-1.505646033007688,9.731637461292523,-0.0010928366297451835,0.001088821240043952,0.0,6.688331178503765,33.5123667628333,-104.5
1772318527.7641652,-3.884144633275278e-06,1.366842762061487,-8.823346393148086,-0.22039295164688014,-1.5038981270884813,9.727744600491214,-0.0010948443245957992,0.00217965017493852,0.001090830782496456,6.998875097699475,34.57544012542432,-105.5625
1772318527.804823,-3.884144633275278e-06,1.366842762061487,-8.823346393148086,-0.2159989197038781,-1.4993774956993875,9.721808833406728,-2.0076948506157248e-06,0.0010908289348945679,-0.002181661564992912,6.998875097699475,34.57544012542432,-105.5625
1772318527.8223922,-3.884144633275278e-06,1.366842762061487,-8.823346393148086,-0.2130747405303632,-1.496369066008707,9.721203758426185,0.0010868135451933365,0.002183665564639751,-0.001090830782496456,7.6876392900981765,33.88920664673841,-105.25
1772318527.8420284,-3.884144633275278e-06,1.366842762061487,-8.823346393148086,-0.21780663055490307,-1.5010695152226852,9.730836422907721,-0.00217965017493852,-0.0010948443245957992,-0.001090830782496456,7.6876392900981765,33.88920664673841,-105.25
1772318527.887202,-3.884144633275278e-06,1.366842762061487,-8.823346393148086,-0.22095565050755936,-1.5041976116671296,9.737246853516272,-0.0010888212400439522,-0.0010928366297451835,-0.003272492347489368,7.43556912959051,35.01374461149622,-104.0625
1772318527.924499,-3.884144633275278e-06,1.366842762061487,-8.823346393148086,-0.21971233880954816,-1.5029280621243983,9.73816781176974,0.0,0.0,-0.001090830782496456,7.43556912959051,35.01374461149622,-104.0625
1772318527.9511547,-3.884144633275278e-06,1.366842762061487,-8.823346393148086,-0.21888492876322344,-1.5020831910855081,9.732090475785007,0.0,0.0,-0.001090830782496456,7.43556912959051,35.01374461149622,-104.0625
1772318527.970359,-3.884144633275278e-06,1.366842762061487,-8.823346393148086,-0.21888492876322344,-1.5020831910855081,9.732090475785007,0.0,0.0,-0.001090830782496456,7.43556912959051,35.01374461149622,-104.0625
1772318528.0109425,-3.884144633275278e-06,1.366842762061487,-8.823346393148086,-0.21833429662017015,-1.5015209388469548,9.734736299990097,2.0076948506157248e-06,-0.0010908289348945679,0.001090830782496456,7.436374356680942,34.57624535251475,-105.1875
1772318528.0491729,-3.884144633275278e-06,1.366842762061487,-8.823346393148086,-0.21462275103841807,-1.5011406095210984,9.733151954735472,0.0010888212400439522,0.0010928366297451835,0.0,7.436374356680942,34.57624535251475,-105.1875
1772318528.0841107,-3.884144633275278e-06,1.366842762061487,-8.823346393148086,-0.21462275103841807,-1.5011406095210984,9.733151954735472,0.0010888212400439522,0.0010928366297451835,0.0,7.436374356680942,34.57624535251475,-105.1875
1772318528.1090603,-3.884144633275278e-06,1.366842762061487,-8.823346393148086,-0.21549170821408897,-1.5042387673866804,9.735442702374135,0.0010908289348945679,2.0076948506157248e-06,0.001090830782496456,6.998069870609043,35.01293938440579,-103.5625
1772318528.1253257,0.6672934467313832,0.29125488287015644,125.19625648167755,-0.21608230299134631,-1.4996103447545055,9.736967169338337,0.0010848058503427206,0.0032744944995343195,0.001090830782496456,6.998069870609043,35.01293938440579,-103.5625
1772318528.13837,0.6672934467313832,0.29125488287015644,125.19625648167755,-0.21608230299134631,-1.4996103447545055,9.736967169338337,0.0010848058503427206,0.0032744944995343195,0.001090830782496456,6.998069870609043,35.01293938440579,-103.5625
1772318528.163007,-3.884144633275278e-06,1.366842762061487,-8.823346393148086,-0.21980812977601336,-1.5032265500205582,9.737981685073601,6.023084551847175e-06,-0.0032724868046837036,-0.002181661564992912,6.998069870609043,35.01293938440579,-103.5625
1772318528.2127867,-3.884144633275278e-06,1.366842762061487,-8.823346393148086,-0.22228762588099696,-1.5056330942294565,9.735311722255217,0.0010948443245957992,-0.00217965017493852,0.001090830782496456,6.999565292348418,34.200440760583064,-105.25
1772318528.2449522,-3.884144633275278e-06,1.366842762061487,-8.823346393148086,-0.2239315460992092,-1.5105797285591325,9.730189780117701,-0.0010948443245957992,0.00217965017493852,-0.002181661564992912,6.999565292348418,34.200440760583064,-105.25
1772318528.2763891,-3.884144633275278e-06,1.366842762061487,-8.823346393148086,-0.2250255566406374,-1.5138716584480056,9.726781184841029,-0.0010908289348945679,-2.0076948506157248e-06,0.0,7.686373933241781,34.576705482280715,-104.5
1772318528.3436322,-3.884144633275278e-06,1.366842762061487,-8.823346393148086,-0.22576592191879538,-1.5093721889327558,9.727857914468226,-2.0076948506157248e-06,0.0010908289348945679,0.002181661564992912,7.686373933241781,34.576705482280715,-104.5
1772318528.3716497,-3.884144633275278e-06,1.366842762061487,-8.823346393148086,-0.22576592191879538,-1.5093721889327558,9.727857914468226,-2.0076948506157248e-06,0.0010908289348945679,0.002181661564992912,7.686373933241781,34.576705482280715,-104.5
1772318528.3949473,-3.884144633275278e-06,1.366842762061487,-8.823346393148086,-0.22291352069947326,-1.506371685490857,9.728574466007268,0.0010908289348945679,2.0076948506157248e-06,-0.001090830782496456,7.4376397135373375,33.888746516972446,-105.1875
1772318528.4293818,-3.884144633275278e-06,1.366842762061487,-8.823346393148086,-0.224366542334806,-1.5010359346684468,9.729051323052095,0.0010888212400439522,0.0010928366297451835,-0.002181661564992912,7.4376397135373375,33.888746516972446,-105.1875
1772318528.4513762,-3.884144633275278e-06,1.366842762061487,-8.823346393148086,-0.224366542334806,-1.5010359346684468,9.729051323052095,0.0010888212400439522,0.0010928366297451835,-0.002181661564992912,7.4376397135373375,33.888746516972446,-105.1875
1772318528.4831483,-3.884144633275278e-06,1.366842762061487,-8.823346393148086,-0.22198840596029054,-1.4974788953585068,9.732713777795905,-0.0010948443245957992,0.00217965017493852,-0.001090830782496456,6.998875097699475,34.57544012542432,-105.5625
1772318528.5115793,-3.884144633275278e-06,1.366842762061487,-8.823346393148086,-0.22373857532635263,-1.5018080942573708,9.73515110051561,0.0010868135451933365,0.002183665564639751,0.0,6.998875097699475,34.57544012542432,-105.5625
1772318528.5694335,-3.884144633275278e-06,1.366842762061487,-8.823346393148086,-0.22155818744727993,-1.5046829710223766,9.736773111558895,0.005452136979622223,0.0011008674091476465,-0.007635815477475192,6.312066456806113,34.19917540372667,-104.0625
1772318528.625282,0.020382948417696174,1.3754298788636998,-8.823109584122891,-0.21676205762877135,-1.506590012653142,9.721126983252553,-0.00871860069975408,-0.004379377298383197,0.017453292519943295,6.312066456806113,34.19917540372667,-104.0625
1772318528.649018,0.006971115983176919,1.367380807325759,-8.823263654136461,-0.2102067105437162,-1.5178882889380403,9.690643989399472,0.009823483498602957,-0.0032544175510281622,-0.013089969389957472,7.436374356680942,34.57624535251475,-105.25
1772318528.664406,0.006971115983176919,1.367380807325759,-8.823263654136461,-0.2102067105437162,-1.5178882889380403,9.690643989399472,0.009823483498602957,-0.0032544175510281622,-0.013089969389957472,7.436374356680942,34.57624535251475,-105.25
1772318528.700084,0.006432921351753192,1.3743538172277627,-8.823276102930217,-0.20918930632815125,-1.5254133223374922,9.6703578975076,-0.005472213928128381,0.009807421939798031,-0.002181661564992912,7.436374356680942,34.57624535251475,-105.25
1772318528.7213955,0.0065161163703656875,1.374366290195064,-8.816301058904578,-0.19178670498027156,-1.5303903642953567,9.653512618256734,-0.0032744944995343195,0.0010848058503427206,-0.001090830782496456,6.6876409838548225,33.88736612767456,-105.5625
1772318528.74235,0.013491194288388566,1.3749039041064244,-8.816217829993581,-0.1902469430494629,-1.5303758943052035,9.679098501869895,-0.007643833323664437,0.0043492618756239615,0.003272492347489368,6.6876409838548225,33.88736612767456,-105.5625
1772318528.7572563,0.013491194288388566,1.3749039041064244,-8.816217829993581,-0.1902469430494629,-1.5303758943052035,9.679098501869895,-0.007643833323664437,0.0043492618756239615,0.003272492347489368,6.6876409838548225,33.88736612767456,-105.5625
1772318528.7836452,0.013574457065476437,1.3749159450764972,-8.809242718209468,-0.18926534587785368,-1.5069505223977977,9.722886515259962,0.012017187537495786,-0.009795375770694337,0.008726646259971648,6.6876409838548225,33.88736612767456,-105.5625
1772318528.8069038,0.02628162957287964,1.3899138870902958,-8.823048788063671,-0.18856900673223045,-1.5147769413625687,9.752026949026892,-0.016372472497671594,0.005424029251713603,-0.002181661564992912,7.00014045455587,33.887941289882015,-105.25
1772318528.8319554,0.04023171011905167,1.3909898898846265,-8.822880187690947,-0.2182115551830639,-1.5200407464336076,9.724588018276338,-0.007629779459710127,-0.0032865406686380136,0.016362461737446838,7.00014045455587,33.887941289882015,-105.25
1772318528.8496947,0.04712232329072081,1.3915177936655787,-8.829770800862612,-0.18776174942541793,-1.5234513987798084,9.706327716374783,-0.0032564252458787777,-0.00873265456370839,0.006544984694978736,7.00014045455587,33.887941289882015,-105.25
1772318528.8690867,0.04712232329072081,1.3915177936655787,-8.829770800862612,-0.18776174942541793,-1.5234513987798084,9.706327716374783,-0.0032564252458787777,-0.00873265456370839,0.006544984694978736,7.00014045455587,33.887941289882015,-105.25
1772318528.9012094,0.06796264376381528,1.3931241291053826,-8.836492170019422,-0.21098412238000672,-1.525801187461006,9.67745013090364,-0.003262448330430625,-0.005460167759024686,0.02399827721492203,6.999565292348418,34.200440760583064,-106.0625
1772318528.9170408,0.07493756380252924,1.3936629177120679,-8.836407513132507,-0.22646297913785443,-1.5139845214134269,9.664922643771,-0.0021816578697891357,-4.0153897012314496e-06,-0.006544984694978736,6.999565292348418,34.200440760583064,-106.0625
1772318528.942534,0.07493756380252924,1.3936629177120679,-8.836407513132507,-0.22646297913785443,-1.5139845214134269,9.664922643771,-0.0021816578697891357,-4.0153897012314496e-06,-0.006544984694978736,6.999565292348418,34.200440760583064,-106.0625
1772318528.9670434,0.060987725596553896,1.3925853301598607,-8.83657676128367,-0.23673320169070244,-1.5228461923671426,9.646550405903469,-0.005456152369323454,0.0010807904606414892,-0.015271630954950384,6.999565292348418,34.200440760583064,-106.0625
1772318529.0099618,0.04014734543879269,1.3909793857316324,-8.829855197296114,-0.20006577308524917,-1.5548647356229577,9.666316795467209,0.007621748680307665,0.007649856408216285,-0.013089969389957472,7.001405811412265,33.20044245433971,-105.25
1772318529.0388443,0.04014734543879269,1.3909793857316324,-8.829855197296114,-0.20006577308524917,-1.5548647356229577,9.666316795467209,0.007621748680307665,0.007649856408216285,-0.013089969389957472,7.001405811412265,33.20044245433971,-105.25
1772318529.062906,0.04720675352389503,1.3915278758505463,-8.822795789211014,-0.25261721635394835,-1.550113085680351,9.687619538771434,0.004357292655026424,0.0032805175840861663,0.014180800172453928,7.001405811412265,33.20044245433971,-105.25
1772318529.1018462,0.03342527339940644,1.3904737153972513,-8.809014309086523,-0.20399890422453507,-1.5267263609271684,9.70179627647316,0.008722616089455312,0.002197719428594061,-0.007635815477475192,8.125138549079642,33.89001187382884,-104.75
1772318529.1220033,0.11210494230822499,1.375402850669158,-8.779627871562523,-0.23190512328674234,-1.4845127298722693,9.724611183878402,0.005482252402381459,-0.015261566614270871,0.04036073895236887,8.125138549079642,33.89001187382884,-104.75
1772318529.1518514,0.11210494230822499,1.375402850669158,-8.779627871562523,-0.23190512328674234,-1.4845127298722693,9.724611183878402,0.005482252402381459,-0.015261566614270871,0.04036073895236887,8.125138549079642,33.89001187382884,-104.75
1772318529.177022,0.1684725681744777,1.3658069860920041,-8.82133728785132,-0.1902644915924932,-1.4563092086087666,9.739794249897374,-0.03599735485152074,-6.625393007031891e-05,0.032724923474893676,6.999565292348418,34.200440760583064,-104.5
1772318529.201379,0.44466234837015695,1.337807580994517,-8.782721361696503,-0.10242740199520153,-1.390597774327058,9.716447293653847,0.029566819848638425,-0.06212304152802374,0.24652775684419906,6.999565292348418,34.200440760583064,-104.5
1772318529.2160077,0.8184049652385932,1.317202041444014,-8.750589764339974,-0.04421906974750681,-1.2130633071968304,9.700910155076368,0.01976140560369101,-0.06868608439104669,0.32834006553143325,6.999565292348418,34.200440760583064,-104.5
1772318529.2285576,0.8184049652385932,1.317202041444014,-8.750589764339974,-0.04421906974750681,-1.2130633071968304,9.700910155076368,0.01976140560369101,-0.06868608439104669,0.32834006553143325,6.999565292348418,34.200440760583064,-104.5
1772318529.2446327,1.3092799554884318,1.234946884534929,-8.69698996695064,-0.005482074866342089,-1.0949161025116065,9.824374831207042,0.05267298927163531,-0.17007294449072302,0.4406956361285682,7.436374356680942,34.57624535251475,-104.0625
1772318529.2654355,1.3092799554884318,1.234946884534929,-8.69698996695064,-0.005482074866342089,-1.0949161025116065,9.824374831207042,0.05267298927163531,-0.17007294449072302,0.4406956361285682,7.436374356680942,34.57624535251475,-104.0625
1772318529.2964196,1.940781187953277,1.1487799838248043,-8.636291774858009,-0.026245155206914752,-1.1735966359216623,9.906539193981205,-0.02174430168326919,-0.03930999555321676,0.27598018797160334,7.436374356680942,34.57624535251475,-104.0625
1772318529.3220332,2.21745041996852,1.2711708688271846,-8.806707237291954,-0.07002094580355647,-1.3062956076600598,10.021430670303086,-0.07652265642037023,0.08930743402181146,0.03599741582238305,5.188908881346187,33.19710651353649,-104.5
1772318529.3571494,2.3256691825878226,1.3220428024871032,-8.825984325578956,-0.09914093195426336,-1.4012955030903496,9.954049860958682,0.03159589290978077,0.020783972913664645,0.12544553998709243,5.188908881346187,33.19710651353649,-104.5
1772318529.3957217,2.3256691825878226,1.3220428024871032,-8.825984325578956,-0.09914093195426336,-1.4012955030903496,9.954049860958682,0.03159589290978077,0.020783972913664645,0.12544553998709243,5.188908881346187,33.19710651353649,-104.5
1772318529.4410856,3.282405699345105,1.199663564601937,-8.826930051601952,-0.0716884728648007,-1.4644306778946896,9.96273047235005,0.019813605669807017,-0.09704763669830545,0.15707963267948966,6.313906975869959,33.199177097483314,-103.5625
1772318529.4745924,3.282405699345105,1.199663564601937,-8.826930051601952,-0.0716884728648007,-1.4644306778946896,9.96273047235005,0.019813605669807017,-0.09704763669830545,0.15707963267948966,6.313906975869959,33.199177097483314,-103.5625
1772318529.5247624,4.407036908531671,1.0950109231234741,-8.765948298773711,0.02351827095000166,-1.5063048263978995,9.914985534945112,0.007742210371344608,-0.05779987968545778,0.35561083509384467,6.313906975869959,33.199177097483314,-103.5625
1772318529.5541701,5.752444683717954,1.220058416372771,-8.77214718196576,0.11345959824767977,-1.437114275323042,9.863141142204107,-0.06553606697225053,0.04678518250942947,0.6359543461954338,4.813334354297478,33.50891578958859,-103.5625
1772318529.5717537,5.752444683717954,1.220058416372771,-8.77214718196576,0.11345959824767977,-1.437114275323042,9.863141142204107,-0.06553606697225053,0.04678518250942947,0.6359543461954338,4.813334354297478,33.50891578958859,-103.5625
1772318529.629183,9.129259341623687,1.9232341025704507,-8.838831200273427,0.169796416309044,-1.4340983153196145,9.849165124936395,0.06452956122108185,-0.09260200546985194,0.8377580409572782,3.6863807082683677,34.569343406025325,-104.0625
1772318529.661883,11.31119853949747,2.046154076922254,-8.840870624928622,0.1273138672334137,-1.4628079002600354,9.943107527776279,-0.11330968597919319,-0.07438516783729465,1.0395617357191225,3.6863807082683677,34.569343406025325,-104.0625
1772318529.6953511,13.528992674397246,2.2207594691774837,-8.771037780042086,-0.0977834145220704,-1.7733012817127565,10.025695817704738,-0.038058551030272926,-0.06552000541344562,0.9719302272043423,5.1876435244897925,33.88460534907879,-104.0625
1772318529.7346258,13.528992674397246,2.2207594691774837,-8.771037780042086,-0.0977834145220704,-1.7733012817127565,10.025695817704738,-0.038058551030272926,-0.06552000541344562,0.9719302272043423,5.1876435244897925,33.88460534907879,-104.0625
1772318529.766794,16.333594479051357,2.583741324112364,-8.664738218749545,-0.2480202697015799,-1.7424286296837013,10.08065740208048,-0.07190637112961439,-0.04812898099550162,1.0493792127615906,5.1876435244897925,33.88460534907879,-104.0625
1772318529.7975564,16.333594479051357,2.583741324112364,-8.664738218749545,-0.2480202697015799,-1.7424286296837013,10.08065740208048,-0.07190637112961439,-0.04812898099550162,1.0493792127615906,5.1876435244897925,33.88460534907879,-104.0625
1772318529.824888,20.24281441426506,2.8334910132095215,-8.402094385114225,-0.1238791137864558,-1.721470722923328,10.003499924472552,0.05587319906169685,-0.1307970797499667,1.205368014658584,1.9315523097999014,37.1911180515524,-104.0625
1772318529.8585465,22.682120547885447,2.9965605013004124,-8.264256520379899,-0.04162165230086106,-1.5135073196816347,9.748100670883492,0.09505871753417541,-0.08490998746977271,1.066832505281534,1.9315523097999014,37.1911180515524,-104.0625
1772318529.8804424,22.682120547885447,2.9965605013004124,-8.264256520379899,-0.04162165230086106,-1.5135073196816347,9.748100670883492,0.09505871753417541,-0.08490998746977271,1.066832505281534,1.9315523097999014,37.1911180515524,-104.0625
1772318529.9151688,24.82345238799786,3.164423114403695,-8.204405741791444,-0.18424148700758752,-1.3754732456979313,9.578135320616571,-0.06966448241430678,-0.08084983365263743,0.954476934684399,1.4927876939620397,37.87781166000427,-103.25
1772318529.9430115,26.841958625488402,3.2162015871896563,-8.183471348044415,-0.27915339383697135,-1.2836131114034157,9.465025278651302,-0.15254941221263837,-0.09081987887533532,0.8693921336496754,1.4927876939620397,37.87781166000427,-103.25
1772318529.9596708,27.867010496375915,3.2212738683384727,-8.200167321631676,-0.5228903664195438,-1.2562647426513665,9.710882533148036,-0.09796781157089768,-0.1125360728306959,0.8944812416470939,1.4927876939620397,37.87781166000427,-103.25
1772318529.9814944,30.156137653227855,3.029495638109807,-8.244070900289735,-0.49776866062806646,-1.237719931203565,9.52995128375623,-0.05636774262595855,-0.1931811216085705,0.7864889941799448,-0.009970543998760883,39.37504834077353,-103.25
1772318530.0422084,31.78418158082439,2.7330572828263846,-8.309669969505212,-0.4811120134703598,-1.1919275059290286,9.506551797932731,0.010295291788497652,-0.25959921725125157,0.7243116395776468,-0.009970543998760883,39.37504834077353,-103.25
1772318530.0779727,32.87839068351888,2.5215609145954385,-8.412059366482413,-0.409839919074063,-1.147961912924051,9.393971461994315,-0.12722143102284006,-0.22058234514622474,0.6174102228929941,-3.9495344587787926,40.49279939148341,-102.75
1772318530.1681528,34.81600995222956,2.2796649560142153,-8.502519010950728,-0.32919818893249936,-0.9881825988693588,9.141759585544126,0.046170177254130834,-0.19299239829261264,0.5879577917655898,-3.9495344587787926,40.49279939148341,-102.75
1772318530.228697,36.02499385996325,2.286633337419268,-8.586298337512448,-0.14148766375701866,-1.0120641161621804,8.90032294159676,-0.07173370937246143,-0.14194026939643445,0.5988660995905544,-7.261453686002448,40.174203201383364,-102.875
1772318530.2650802,38.988877661301615,2.3659396360284015,-8.395739668034347,-0.009650394584549943,-1.1517136091988145,8.736304440366501,-0.08597070098190805,-0.11142315925244456,0.5759586531581288,-7.261453686002448,40.174203201383364,-102.875
1772318530.313826,39.92936257007954,2.455829290098234,-8.41329964165511,0.07838751568246749,-1.408558982861838,8.627151960004474,0.028301321461740293,0.03277706811295304,0.4559672670835186,-8.448146447575997,39.73451832601358,-101.6875
1772318530.350829,40.633349495338074,2.4275908593194235,-8.263065510217041,0.13697576151727162,-1.5794867098837613,8.979341390466203,0.05021828490216243,-0.021724224734763032,0.38724492778624187,-8.448146447575997,39.73451832601358,-101.6875
1772318530.3884065,40.633349495338074,2.4275908593194235,-8.263065510217041,0.13697576151727162,-1.5794867098837613,8.979341390466203,0.05021828490216243,-0.021724224734763032,0.38724492778624187,-8.448146447575997,39.73451832601358,-101.6875
1772318530.4377995,43.04443774166761,2.560683284143954,-8.241606623811812,0.22587743536913293,-1.5493052919159012,9.213719522224766,-0.08834911294705752,-0.004525939022478145,0.38069994309126315,-9.571764152801887,38.98244901238424,-101.25
1772318530.4680095,44.154030971239806,2.682035685544574,-8.207171063785943,0.38536290375686494,-1.5123096629432085,9.172333960002963,0.0971299521871807,-0.02491038066087026,0.755945732270044,-9.571764152801887,38.98244901238424,-101.25
1772318530.520941,45.4405313098127,2.9695393641096466,-8.026812441849156,0.49149870139948515,-1.4876894851301354,9.144792330651375,0.05885657780789188,0.02628830995940288,0.8355763793922852,-9.571764152801887,38.98244901238424,-101.25
1772318530.5642602,51.39643354870939,3.8034915191834298,-7.396487252671883,0.4699346603645523,-1.5553689094921395,9.246928025434658,0.02737713119944683,-0.0577637411781467,1.1879147221386406,-11.323141578025638,39.72922683370502,-98.875
1772318530.616887,54.29720197170897,3.9283586066923752,-7.163699778719092,-0.09103032862397663,-1.5743876731076816,9.435281890852854,-0.15044806213687387,-0.04718270608985139,0.9261153343394911,-12.449520061847297,40.477154979440705,-98.5
1772318530.6700137,55.6884470483632,3.971372017159075,-7.122874593462418,-0.4644878674692882,-1.510107008885488,9.774716433506565,-0.14827644274133783,-0.041724546025677316,0.7330382858376184,-12.449520061847297,40.477154979440705,-98.5
1772318530.7402492,59.893722509498204,3.3449600716566192,-7.399535765486094,-0.691014697646782,-1.5109420301059164,10.1141964037961,-0.14136807636400897,-0.2391525370724904,0.7308566242726255,-15.078541751188263,42.65981991180544,-96.5
1772318530.7985065,62.74175102912875,2.839790977957731,-7.58432221871727,-0.6763647868203325,-1.5110262431971595,10.17634978228847,-0.035543615815281586,-0.24659359321624266,0.8628471489546967,-16.14173014622077,43.03286372514137,-93.375
1772318530.847857,64.42180451035159,2.764297466455913,-7.219586016611972,-0.5365564874179247,-1.2934102804373842,9.796228086254171,0.30327855162859846,-0.014713465920052777,0.96647607329186,-16.14173014622077,43.03286372514137,-93.375
1772318530.8847857,64.42180451035159,2.764297466455913,-7.219586016611972,-0.5365564874179247,-1.2934102804373842,9.796228086254171,0.30327855162859846,-0.014713465920052777,0.96647607329186,-16.14173014622077,43.03286372514137,-93.375
1772318530.9317186,66.72935586531159,2.8508836918441784,-7.1759655194721965,-0.4435156259266576,-1.1485892881503394,9.255581736951449,0.3396613838914374,-0.22408636748973948,0.9261153343394911,-21.27074760117012,45.21092735984649,-92.1875
1772318530.957463,68.25684145576965,2.796348686250734,-7.103220911358118,-0.38255842367015336,-0.5303759930635804,8.895787630905927,0.3448163820331685,-0.0615428177161958,0.6032294227205401,-21.27074760117012,45.21092735984649,-92.1875
1772318530.9838984,69.53020057565385,2.835539626461966,-6.928820304970016,-0.47449109888956376,-0.8283707015540728,8.967444061276847,0.22055022202861488,-0.10976816806452697,0.8148505945248526,-23.585314268304703,46.33166925403511,-91.0
1772318531.0206587,70.88200030374479,2.553775915378234,-6.782465809121691,-0.45538872229646943,-1.0265350894306553,9.01513061523392,0.009224539802109242,-0.2705095142950479,0.5912302841130791,-23.585314268304703,46.33166925403511,-91.0
1772318531.051194,71.55301634525294,2.3951127377482724,-6.659715619682888,-0.4426393636100853,-1.1784819121703494,9.04686548419864,0.007938964466704949,-0.16470111530512543,0.5410520681182421,-23.585314268304703,46.33166925403511,-91.0
1772318531.075952,73.7767265639776,1.7909014936135508,-6.170913155902671,-0.43382850050496,-1.4568914455466426,9.335593621578498,0.06250651124449134,-0.17878150671622403,0.5137812985558308,-24.274308525586385,47.14290252100144,-89.75
1772318531.1548984,74.83765246851094,1.2497033924905288,-5.843721582727078,-0.29783214123224033,-1.4646391468371942,9.527738971700167,0.09423089662471153,-0.22781058563581172,0.35997415822383044,-24.274308525586385,47.14290252100144,-89.75
1772318531.2060108,75.9894195023098,1.0568657396491825,-5.644874025022963,-0.19719425732068854,-1.5232983819371853,9.508424640679886,0.06781208650001862,-0.09805012705977292,0.43196898986859655,-24.960311939389314,46.329138540322326,-90.5625
1772318531.2409475,75.9894195023098,1.0568657396491825,-5.644874025022963,-0.19719425732068854,-1.5232983819371853,9.508424640679886,0.06781208650001862,-0.09805012705977292,0.43196898986859655,-24.960311939389314,46.329138540322326,-90.5625
1772318531.2670367,75.9894195023098,1.0568657396491825,-5.644874025022963,-0.19719425732068854,-1.5232983819371853,9.508424640679886,0.06781208650001862,-0.09805012705977292,0.43196898986859655,-24.960311939389314,46.329138540322326,-90.5625
1772318531.3165193,77.61004431085965,1.0698382984549055,-5.601932449345631,-0.13041172877428342,-1.4586371603426982,9.488880945726464,-0.03274695269019381,0.011938887438321773,0.4537856055185257,-24.960311939389314,46.329138540322326,-90.5625
1772318531.3473604,79.3279870550427,1.4035194800662583,-5.73341654425429,-0.08601179922945151,-1.3921900973941408,9.482565058466978,-0.0809241183621102,0.11002515300540579,0.6621342849753488,-24.275573882442778,47.830401356543746,-90.0625
1772318531.3630614,80.46141206687122,1.665376121970252,-5.821189456135513,-0.056605747160041325,-1.2710328803093776,9.50846791141475,-0.05030863117044014,0.07081152680501858,0.7101308394051928,-24.275573882442778,47.830401356543746,-90.0625
1772318531.4045358,82.29824155629397,1.626200728163752,-5.695412037894628,0.006591635607675084,-1.2672615070648046,9.719722449722187,0.05483256249806767,-0.15806981081718155,0.5835944686356039,-24.592904715686426,50.4548217482251,-90.0625
1772318531.4304745,82.29824155629397,1.626200728163752,-5.695412037894628,0.006591635607675084,-1.2672615070648046,9.719722449722187,0.05483256249806767,-0.15806981081718155,0.5835944686356039,-24.592904715686426,50.4548217482251,-90.0625
1772318531.4481995,83.65086270085007,1.1176956488901786,-5.504336871577709,0.055462134798957015,-1.3316415076460884,9.86030998509797,0.13466986731498456,-0.2702786293872271,0.5912302841130791,-24.592904715686426,50.4548217482251,-90.0625
1772318531.4684086,84.32898075046683,0.7529045542016914,-5.412878955838247,0.08802800328458511,-1.3979014211518037,9.930453637473645,0.16313381205962468,-0.32585870500073405,0.5934119456780721,-24.592904715686426,50.4548217482251,-90.0625
1772318531.4970038,85.32152435697154,0.11631335386852765,-5.159411582588429,0.12303755195016408,-1.4185562841600536,9.930301890671249,0.22111036889193666,-0.4141094409001114,0.5563236990731926,-24.282935958698165,51.83039458151716,-90.0625
1772318531.522493,85.32152435697154,0.11631335386852765,-5.159411582588429,0.12303755195016408,-1.4185562841600536,9.930301890671249,0.22111036889193666,-0.4141094409001114,0.5563236990731926,-24.282935958698165,51.83039458151716,-90.0625
1772318531.5474746,86.58995715744832,-0.5943178831013036,-4.678873462163056,0.1296535824903286,-1.4557483907620454,9.80977688340588,0.21772946656531972,-0.3552107015003566,0.5399612373357457,-24.282935958698165,51.83039458151716,-90.0625
1772318531.5620813,87.12037771455887,-0.879524997970219,-4.490281211865364,0.17077260572127634,-1.4369452195423853,9.729568837423324,0.16962056251832425,-0.2942126197196879,0.4385139745635753,-24.282935958698165,51.83039458151716,-90.0625
1772318531.5951204,87.76662449270708,-1.2556227021089827,-4.279178507765033,0.19805681870760175,-1.3809455406012023,9.652775496853279,0.13136927278239222,-0.255013047383255,0.36324665057131983,-24.595435429399213,51.82981941930971,-89.75
1772318531.6135309,88.34412891124003,-1.3759383843940687,-4.179481431033399,0.2998418087032268,-1.3435244612765465,9.46786591824896,0.0699094211860819,-0.052231296404499854,0.3239767424014474,-24.595435429399213,51.82981941930971,-89.75
1772318531.6422431,88.34412891124003,-1.3759383843940687,-4.179481431033399,0.2998418087032268,-1.3435244612765465,9.46786591824896,0.0699094211860819,-0.052231296404499854,0.3239767424014474,-24.595435429399213,51.82981941930971,-89.75
1772318531.6582875,88.86113069343492,-1.46013338911646,-4.110268616237184,0.37446581035528165,-1.4256522308515522,9.34481065926312,0.06445929190131029,-0.05442299274854206,0.20180369476184434,-24.971124988889414,52.20412858950203,-89.375
1772318531.6863968,88.97547183479122,-1.4708758713639571,-4.116384681678123,0.43750767401606233,-1.480282717108948,9.249538312196078,-0.009825491193453573,0.00434524648592273,0.08290313946973066,-24.971124988889414,52.20412858950203,-89.375
1772318531.7013516,89.11188277345654,-1.4066985706954758,-4.128578174870804,0.48929347570145,-1.4062317258551547,9.430328784119128,-0.016424672563787605,0.033785581558972363,0.10144726277217041,-24.971124988889414,52.20412858950203,-89.375
1772318531.7261298,89.11188277345654,-1.4066985706954758,-4.128578174870804,0.48929347570145,-1.4062317258551547,9.430328784119128,-0.016424672563787605,0.033785581558972363,0.10144726277217041,-24.971124988889414,52.20412858950203,-89.375
1772318531.7566004,89.29804064178488,-1.3166866316980381,-4.2451796109925395,0.5705447356258893,-1.3334496817027766,9.510501483134187,-0.029580873712592735,0.06975884407228572,0.07744898555724837,-24.969744599591532,51.45412985981951,-88.5625
1772318531.8109756,89.46401914637318,-1.217377946759963,-4.3814632026250475,0.6245549740508791,-1.2515629839329323,9.61068708264345,-0.02300779237531671,0.05449928515286546,0.08835729338221293,-24.969744599591532,51.45412985981951,-88.5625
1772318531.8322654,89.5957683003819,-1.0997735375494186,-4.655398916377658,0.6404090779141253,-1.1870699236281164,9.630527916067916,-0.06565853635813809,0.11332574753799811,0.05999569303730508,-23.59543712315586,51.831659938373555,-89.0
1772318531.8556354,89.5957683003819,-1.0997735375494186,-4.655398916377658,0.6404090779141253,-1.1870699236281164,9.630527916067916,-0.06565853635813809,0.11332574753799811,0.05999569303730508,-23.59543712315586,51.831659938373555,-89.0
1772318531.925372,89.76235760884943,-0.9005635079360947,-4.840636985309798,0.5706772619368305,-1.1442982742347825,9.62366109883135,-0.08426888218141608,0.14928897157705837,0.12217304763960307,-23.59543712315586,51.831659938373555,-89.0
1772318531.9421868,90.44583718010125,-0.18723963610421465,-5.299328089222385,0.5008557750687653,-1.1158773165472249,9.619091308667791,-0.0831760455516709,0.14820015033701445,0.21707532571679475,-22.47112922328103,52.20872988716164,-90.1875
1772318531.9699712,90.69944488066483,0.00324446960704699,-5.397792997689062,0.444453545260527,-1.1505036535788862,9.619395276069163,-0.08208722431162695,0.1492929869667596,0.24652775684419906,-22.47112922328103,52.20872988716164,-90.1875
1772318532.0275471,91.17208008544581,0.5580460796695401,-5.6847916757290236,0.39377818014413024,-1.3040308566584535,9.622942674686557,-0.10835144193282242,0.1950596175559167,0.16580627893946132,-22.4738900018768,53.70872734652667,-90.5625
1772318532.0500927,91.2918950108174,0.9789849290482959,-6.051572408173607,0.36005429074008777,-1.4062014952966748,9.64871921079063,-0.10948242476472932,0.21687418855895743,0.05999569303730508,-22.4738900018768,53.70872734652667,-90.5625
1772318532.0635734,91.2918950108174,0.9789849290482959,-6.051572408173607,0.36005429074008777,-1.4062014952966748,9.64871921079063,-0.10948242476472932,0.21687418855895743,0.05999569303730508,-22.4738900018768,53.70872734652667,-90.5625
1772318532.090895,91.34633980523701,1.4005148371880578,-6.274802000403384,0.2807446163564846,-1.474299578601351,9.709359659820265,-0.10395399538078369,0.17652355644211148,0.038179077387375956,-22.788460056524677,54.83315027884299,-91.0
1772318532.1190221,91.34633980523701,1.4005148371880578,-6.274802000403384,0.2807446163564846,-1.474299578601351,9.709359659820265,-0.10395399538078369,0.17652355644211148,0.038179077387375956,-22.788460056524677,54.83315027884299,-91.0
1772318532.152568,91.3244771251778,1.6685006627781465,-6.430528709995185,0.1878236415031391,-1.5196919732375953,9.749715201251288,-0.0448805865290253,0.08500234143290104,-0.001090830782496456,-22.788460056524677,54.83315027884299,-91.0
1772318532.1884518,91.25949892986343,1.7214801380976819,-6.61478818478852,-0.037824097995494715,-1.5211948912379172,9.759826464816264,-0.013146162674552054,0.03051911783884051,-0.02399827721492203,-21.665532545947734,55.96021895731359,-91.375
1772318532.2539256,91.20397212168038,1.8780010865251382,-6.732924979474197,0.002451277500493966,-1.4806037991355212,9.703017615249308,-0.05254650449604652,0.10135072159236526,-0.006544984694978736,-20.97872390505437,56.336483679011245,-91.75
1772318532.3086226,91.18424792616925,2.0769155278160203,-6.910020447088284,0.02925408998765105,-1.4535908807735856,9.665211960458931,-0.006633312182794499,0.047984426966257286,0.009817477042468103,-20.97872390505437,56.336483679011245,-91.75
1772318532.326077,91.21413029277602,2.0641879399143077,-6.944164759214531,-0.07316652317325396,-1.5261535911859192,9.566460261951743,-0.09375908833481683,-0.028534214064411718,0.009817477042468103,-20.97872390505437,56.336483679011245,-91.75
1772318532.3385847,91.21413029277602,2.0641879399143077,-6.944164759214531,-0.07316652317325396,-1.5261535911859192,9.566460261951743,-0.09375908833481683,-0.028534214064411718,0.009817477042468103,-20.97872390505437,56.336483679011245,-91.75
1772318532.3552916,91.21835216838284,2.0697267018550183,-6.969023358722738,-0.22809588171634612,-1.6849918390452776,9.637891689724057,-0.029468442800958256,0.008672423718189918,-0.028361600344907856,-20.97872390505437,56.336483679011245,-91.75
1772318532.370087,91.1947658271461,2.0580164533203167,-6.939634865700722,-0.3314028116340849,-1.6803084192862234,9.6854285069652,0.031664154534701706,-0.01630421087275066,-0.009817477042468103,-20.97872390505437,56.336483679011245,-91.75
1772318532.3973658,91.1947658271461,2.0580164533203167,-6.939634865700722,-0.3314028116340849,-1.6803084192862234,9.6854285069652,0.031664154534701706,-0.01630421087275066,-0.009817477042468103,-20.97872390505437,56.336483679011245,-91.75
1772318532.423757,91.2044600732235,2.058697186541539,-6.949329111778106,-0.17932616680543748,-1.7035461591226242,9.717063727818138,-0.018562161146863192,0.009783329601590642,0.002181661564992912,-19.47930160789679,56.651743928308065,-92.0625
1772318532.4598823,91.19903966150106,2.053929765828756,-6.994210432738409,-0.07812085847940613,-1.7190106154011862,9.687939938297406,-0.03273490652109011,0.005393913828954367,-0.017453292519943295,-19.47930160789679,56.651743928308065,-92.0625
1772318532.4966438,91.1880096591954,2.0634463387578204,-7.0239422285666935,-0.01746006840883068,-1.7293143517890097,9.655177934876127,-0.022939530750395776,0.017411101366450153,-0.004363323129985824,-19.47930160789679,56.651743928308065,-92.0625
1772318532.5166187,91.168596569854,2.066891129426121,-6.989698482136571,-0.00040206792113082427,-1.7930812731536463,9.646755634404101,0.0261638328786647,0.00877481615557132,-0.028361600344907856,-19.85430097273805,56.65105373365912,-92.5
1772318532.5406866,91.168596569854,2.066891129426121,-6.989698482136571,-0.00040206792113082427,-1.7930812731536463,9.646755634404101,0.0261638328786647,0.00877481615557132,-0.028361600344907856,-19.85430097273805,56.65105373365912,-92.5
1772318532.5590508,91.13508673384399,2.0642281432083545,-6.930776031305635,0.03407005953401705,-1.6749092598128694,9.69467247484034,0.02071571128874371,0.005492290876634538,-0.015271630954950384,-19.85430097273805,56.65105373365912,-92.5
1772318532.5955312,91.15465852101644,2.0655000124404514,-6.9402867724661315,-0.1301242040503636,-1.7003101698340153,9.729905708591795,-0.009823483498602957,0.0032544175510281622,0.007635815477475192,-20.290534874863123,55.96274967102638,-92.0625
1772318532.6112173,91.15465852101644,2.0655000124404514,-6.9402867724661315,-0.1301242040503636,-1.7003101698340153,9.729905708591795,-0.009823483498602957,0.0032544175510281622,0.007635815477475192,-20.290534874863123,55.96274967102638,-92.0625
1772318532.626013,91.13490340157925,2.0643060550964307,-6.940653653992876,-0.1557967849671498,-1.7003347429520594,9.75335303207238,0.008724623784305927,0.0011068904936994935,-0.018544123302439753,-20.290534874863123,55.96274967102638,-92.0625
1772318532.640836,91.13490340157925,2.0643060550964307,-6.940653653992876,-0.1557967849671498,-1.7003347429520594,9.75335303207238,0.008724623784305927,0.0011068904936994935,-0.018544123302439753,-20.290534874863123,55.96274967102638,-92.0625
1772318532.6554418,91.13527005457418,2.0641501989204896,-6.920898306023838,-0.17288160078575138,-1.7003510960876183,9.698709618071236,0.01090226626439383,0.003292563753189861,-0.006544984694978736,-20.290534874863123,55.96274967102638,-92.0625
1772318532.680278,91.13600322197742,2.063838097820636,-6.881386381857552,-0.1843006087980772,-1.6736011305845424,9.662345036460405,0.027262692592961733,0.004413508110843664,-0.008726646259971648,-19.85223038879122,55.52605563913535,-92.5625
1772318532.7197511,91.13600322197742,2.063838097820636,-6.881386381857552,-0.1843006087980772,-1.6736011305845424,9.662345036460405,0.027262692592961733,0.004413508110843664,-0.008726646259971648,-19.85223038879122,55.52605563913535,-92.5625
1772318532.7521968,91.13561522183515,2.0688129983057597,-6.886286412175048,-0.14841345253191793,-1.6557192897146553,9.651525260446668,-0.013095970303286662,0.003248394466476315,0.007635815477475192,-19.85223038879122,55.52605563913535,-92.5625
1772318532.784639,168.79363472916887,35.460072682788635,136.58632436698434,-0.18804486851828525,-1.6673518447550881,9.644324820374344,0.005450129284771607,0.0021916963440422143,-0.007635815477475192,-20.603034345564172,55.96217450881893,-90.5625
1772318532.812955,91.12176321596553,2.0481669969828067,-6.8962968925527335,-0.15086211835651864,-1.6749762020948498,9.639533007940397,0.0032724868046837036,6.023084551847175e-06,0.003272492347489368,-20.603034345564172,55.96217450881893,-90.5625
1772318532.8346677,91.11712125933381,2.033421738904968,-6.931371785443458,-0.1998513514586745,-1.6032481361010789,9.673140339074171,-0.0021776424800879044,-0.002185673259490367,0.008726646259971648,-21.29122337575542,56.33590851680379,-91.375
1772318532.8581736,91.11712125933381,2.033421738904968,-6.931371785443458,-0.17893144217834123,-1.5554154015673338,9.69550564252521,0.0021816578697891357,4.0153897012314496e-06,-0.00545415391248228,-21.29122337575542,56.33590851680379,-91.375
1772318532.8962336,91.11712125933381,2.033421738904968,-6.931371785443458,-0.17893144217834123,-1.5554154015673338,9.69550564252521,0.0021816578697891357,4.0153897012314496e-06,-0.00545415391248228,-21.29122337575542,56.33590851680379,-91.375
1772318532.9279366,91.11756795334205,2.0188062764712473,-6.956180345424775,-0.18173500645054916,-1.523614034771122,9.710389502135067,0.005448121589920992,0.003282525278936782,-0.002181661564992912,-19.47872644568934,56.339244457607016,-93.75
1772318532.9657807,91.11439709023334,1.9745953668041745,-7.011238711497001,-0.16374818300589394,-1.4493289242942837,9.74917122417517,-0.005454144674472839,-1.0038474253078624e-05,0.00545415391248228,-19.47872644568934,56.339244457607016,-93.75
1772318533.007715,91.10984515712728,1.9358106079454862,-7.130453933660201,-0.16152151805244483,-1.493137471482073,9.732722900410012,0.00435930034987704,0.0021896886491915984,-0.00545415391248228,-19.478036251040397,55.96424509276576,-92.0625
1772318533.0267143,91.10984515712728,1.9358106079454862,-7.130453933660201,-0.16152151805244483,-1.493137471482073,9.732722900410012,0.00435930034987704,0.0021896886491915984,-0.00545415391248228,-19.478036251040397,55.96424509276576,-92.0625
1772318533.049672,91.11083815151748,1.9065810401897405,-7.180061467549002,-0.16003969739940177,-1.52229157026201,9.721776724684116,0.003262448330430625,0.005460167759024686,-0.002181661564992912,-19.478036251040397,55.96424509276576,-92.0625
1772318533.107354,91.10340062758625,1.8379486403954277,-7.299885959740439,-0.15304139735629227,-1.437598704331139,9.748643098528945,-0.0010888212400439522,-0.0010928366297451835,-0.001090830782496456,-20.97929906726182,56.64898314971229,-92.5
1772318533.1442633,91.10431802669456,1.808795904317606,-7.359360522682158,-0.15114967363364143,-1.431803287725648,9.745751885521276,0.0021776424800879044,0.002185673259490367,-0.001090830782496456,-20.97929906726182,56.64898314971229,-92.5
1772318533.1866295,91.10108240753118,1.7742819166852364,-7.394583165824371,-0.14989075262815593,-1.4279465027137392,9.743827815561637,-0.0021776424800879044,-0.002185673259490367,0.0,-19.85430097273805,56.65105373365912,-92.5
1772318533.2308693,91.10108240753118,1.7742819166852364,-7.394583165824371,-0.14989075262815593,-1.4279465027137392,9.743827815561637,-0.0021776424800879044,-0.002185673259490367,0.0,-19.85430097273805,56.65105373365912,-92.5
1772318533.2608874,91.10165792112537,1.750103012847438,-7.4589516451450315,-0.16243337892813117,-1.4254044823388974,9.742547368496767,-0.0010948443245957992,0.00217965017493852,-0.001090830782496456,-19.85430097273805,56.65105373365912,-92.5
1772318533.3240929,91.09934994435885,1.6865101480912035,-7.563510123619454,-0.15508507050434672,-1.4682605507341484,9.731081011680825,-0.0032704791098330877,-0.001096852019446415,0.001090830782496456,-19.853725810530598,56.33855426295807,-92.5625
1772318533.362113,91.09541029124357,1.6619298819313346,-7.60852655393069,-0.1557932539071808,-1.485665621148594,9.727374289490578,-0.0010928366297451835,0.001088821240043952,0.0,-19.478036251040397,55.96424509276576,-92.5
1772318533.4182398,91.09541029124357,1.6619298819313346,-7.60852655393069,-0.1557932539071808,-1.485665621148594,9.727374289490578,-0.0010928366297451835,0.001088821240043952,0.0,-19.478036251040397,55.96424509276576,-92.5
1772318533.4579926,91.09653467934207,1.6375256518368688,-7.643268014602781,-0.1562645420508399,-1.4972485010820313,9.724907507279768,-0.0021836655646397516,0.0010868135451933363,0.001090830782496456,-19.478036251040397,55.96424509276576,-92.5
1772318533.507478,91.09248671371475,1.6130161298856949,-7.6981544259462,-0.15992328508732573,-1.5049629350303553,9.723265891274238,0.0,0.0,0.001090830782496456,-19.478036251040397,55.96424509276576,-92.0625
1772318533.5411575,91.09338362456093,1.5935085220633103,-7.727919706994916,-0.15904997211696328,-1.490020011656138,9.72217341416061,-0.0021836655646397516,0.0010868135451933363,0.0,-19.478036251040397,55.96424509276576,-92.0625
1772318533.5918999,91.08939308536816,1.5737386889320812,-7.758088836203939,-0.16177695768103822,-1.5001524560649409,9.714756159430621,0.0010908289348945679,2.0076948506157248e-06,0.002181661564992912,-20.291225069512066,56.33774903586764,-92.5
1772318533.6203563,91.08990507731106,1.5592024452511217,-7.792750307453424,-0.1636040495952414,-1.5002052725491504,9.716510282678616,0.0010868135451933365,0.002183665564639751,-0.001090830782496456,-20.291225069512066,56.33774903586764,-92.5
1772318533.6519303,91.08990507731106,1.5592024452511217,-7.792750307453424,-0.1636040495952414,-1.5002052725491504,9.716510282678616,0.0010868135451933365,0.002183665564639751,-0.001090830782496456,-20.291225069512066,56.33774903586764,-92.5
1772318533.6811156,91.09056469646065,1.5445913397516242,-7.81754009295858,-0.16481995885418962,-1.500240421329393,9.717677632105316,0.0021776424800879044,0.002185673259490367,-0.001090830782496456,-20.28972964777269,55.52525041204491,-92.5625
1772318533.7104928,91.08660250625744,1.5248163600717028,-7.847708672272635,-0.1683937598641569,-1.5002834762224175,9.718971480431776,0.0010888212400439522,0.0010928366297451835,0.0,-20.28972964777269,55.52525041204491,-92.5625
1772318533.7468855,91.08660250625744,1.5248163600717028,-7.847708672272635,-0.1683937598641569,-1.5002834762224175,9.718971480431776,0.0010888212400439522,0.0010928366297451835,0.0,-20.28972964777269,55.52525041204491,-92.5625
1772318533.7662375,91.08727663574834,1.510205095479817,-7.872497498249223,-0.16800745753358343,-1.50029246500036,9.719315531716664,0.0010888212400439522,0.0010928366297451835,0.0,-20.60498989706951,57.02467270920249,-92.5
1772318533.7976046,91.08809172277944,1.4955187917682091,-7.887415914921009,-0.16776269113160258,-1.4936082348486412,9.72288960571077,0.0010908289348945679,2.0076948506157248e-06,0.0,-20.60498989706951,57.02467270920249,-92.5
1772318533.8258026,91.08809172277944,1.4955187917682091,-7.887415914921009,-0.16776269113160258,-1.4936082348486412,9.72288960571077,0.0010908289348945679,2.0076948506157248e-06,0.0,-20.60498989706951,57.02467270920249,-92.5
1772318533.8464186,91.08347254148299,1.4856058102902172,-7.917508443777374,-0.1675998018253042,-1.4891599543504157,9.725268112028827,-2.0076948506157248e-06,0.0010908289348945679,0.0,-20.60498989706951,57.02467270920249,-93.25
1772318533.8658242,91.08374682277179,1.4807102358017532,-7.922481065837413,-0.1674914008115554,-1.4861996733693954,9.726850981413836,0.0010948443245957992,-0.00217965017493852,0.0,-20.60498989706951,57.02467270920249,-93.25
1772318533.887525,91.08374682277179,1.4807102358017532,-7.922481065837413,-0.1674914008115554,-1.4861996733693954,9.726850981413836,0.0010948443245957992,-0.00217965017493852,0.0,-20.60498989706951,57.02467270920249,-93.25
1772318533.9310365,91.08388856378014,1.4758901492621552,-7.9373233485164,-0.16741926114782424,-1.4842296394450318,9.731249475015069,-6.023084551847175e-06,0.0032724868046837036,0.0,-20.60498989706951,57.02467270920249,-93.25
1772318533.9506423,91.08458474426625,1.4612795563824277,-7.962110238404659,-0.167371253007464,-1.4829186038750886,9.734176623372297,0.0021836655646397516,-0.0010868135451933363,0.0,-20.601538923824794,55.149675884996206,-93.25
1772318534.012794,91.08513962943626,1.4514891249113278,-7.97205506930394,-0.16734546086820834,-1.4787010183070042,9.736124607905642,0.0032684714149824722,0.0021876809543409825,0.0,-20.601538923824794,55.149675884996206,-93.25
1772318534.0479856,91.08556614121841,1.4417746114548506,-7.9918687948646765,-0.17067340252916496,-1.4759004189668299,9.734075858144852,0.0010928366297451835,-0.001088821240043952,0.13962634015954636,-21.29122337575542,56.33590851680379,-92.1875
1772318534.078876,91.08109938394783,1.4317801261592,-8.012091717739041,-0.16954300448747323,-1.4740304946488205,9.73271243806508,0.0005139698817576255,-0.2792522073330094,-0.001090830782496456,-21.29122337575542,56.33590851680379,-92.1875
1772318534.1196542,91.08138004653414,1.4268848498303868,-8.017063933055855,-0.16877842373436483,-1.4794762929866367,9.728459985525074,4.0153897012314496e-06,-0.0021816578697891357,0.0,-19.85499116738699,57.02605309850038,-93.25
1772318534.135685,91.08194264051913,1.4170944440941007,-8.027008329087508,-0.16491834100071562,-1.4864393602465462,9.725630025862706,-0.0021836655646397516,0.0010868135451933363,0.001090830782496456,-19.85499116738699,57.02605309850038,-93.25
1772318534.154055,91.08181468600803,1.4171699446025179,-8.036877107555217,-0.16235565580328956,-1.4877280976839442,9.720401607612802,-0.0010868135451933365,-0.002183665564639751,0.001090830782496456,-19.85499116738699,57.02605309850038,-93.25
1772318534.1694472,91.08181468600803,1.4171699446025179,-8.036877107555217,-0.16235565580328956,-1.4877280976839442,9.720401607612802,-0.0010868135451933365,-0.002183665564639751,0.001090830782496456,-19.85499116738699,57.02605309850038,-93.25
1772318534.2087848,91.08266300035761,1.402484849210376,-8.051793402710667,-0.16398300998925006,-1.4952821068772881,9.726957488794707,4.0153897012314496e-06,-0.0021816578697891357,0.0,-19.104302243055535,56.652434122957004,-93.0
1772318534.2353978,91.08266300035761,1.402484849210376,-8.051793402710667,-0.1650783095050054,-1.4936190035286188,9.727975242779955,-0.0010868135451933365,-0.002183665564639751,0.001090830782496456,-19.104302243055535,56.652434122957004,-93.0
1772318534.2570143,91.08310477735755,1.3927707520555577,-8.071605846739256,-0.16580106235557532,-1.495857332869675,9.72865254668808,-0.0010908289348945679,-2.0076948506157248e-06,-0.001090830782496456,-19.104302243055535,56.652434122957004,-93.0
1772318534.2940586,91.0786536026287,1.3827711472180044,-8.091828842059035,-0.16628204630395121,-1.497346916042371,9.722413061458319,0.0010948443245957992,-0.00217965017493852,0.0,-20.291800231719517,56.65024850656869,-91.75
1772318534.3182628,91.0786536026287,1.3827711472180044,-8.091828842059035,-0.16628204630395121,-1.497346916042371,9.722413061458319,0.0010948443245957992,-0.00217965017493852,0.0,-20.291800231719517,56.65024850656869,-91.75
1772318534.3530967,91.07893980532738,1.377876086689069,-8.096800736103061,-0.16994724179016682,-1.4983443737459337,9.71826075373753,0.0,0.0,-0.001090830782496456,-20.291800231719517,56.65024850656869,-91.75
1772318534.37488,91.07881520194485,1.3779514907303931,-8.106669015946009,-0.17238023170145902,-1.5023532767468364,9.71884255104098,-0.0010888212400439522,-0.0010928366297451835,-0.001090830782496456,-20.291800231719517,56.65024850656869,-92.0625
1772318534.3950124,91.07881520194485,1.3779514907303931,-8.106669015946009,-0.17238023170145902,-1.5023532767468364,9.71884255104098,-0.0010888212400439522,-0.0010928366297451835,-0.001090830782496456,-20.291800231719517,56.65024850656869,-92.0625
1772318534.4233577,91.07938971000834,1.368161617526312,-8.1166126280906,-0.1739993593091459,-1.5050211569115561,9.719229730647324,-0.0021816578697891357,-4.0153897012314496e-06,-0.001090830782496456,-20.291800231719517,56.65024850656869,-92.0625
1772318534.455915,91.07955423457642,1.3633422851634787,-8.131452363368213,-0.17173176460370682,-1.5067904446171352,9.719487394350267,0.0,0.0,-0.001090830782496456,-20.291225069512066,56.33774903586764,-93.0
1772318534.495879,91.08013211348309,1.3535528115403541,-8.141395766335483,-0.17022886239979773,-1.504622779779445,9.723003978373603,2.0076948506157248e-06,-0.0010908289348945679,0.0,-20.291225069512066,56.33774903586764,-93.0
1772318534.5187104,91.08042168708384,1.3486581503063837,-8.14636745127939,-0.16924101125534988,-1.4964900109613366,9.725344225758315,-0.0010888212400439522,-0.0010928366297451835,-0.001090830782496456,-20.60498989706951,57.02467270920249,-93.0
1772318534.5557654,91.08042168708384,1.3486581503063837,-8.14636745127939,-0.16924101125534988,-1.4964900109613366,9.725344225758315,-0.0010888212400439522,-0.0010928366297451835,-0.001090830782496456,-20.60498989706951,57.02467270920249,-93.0
1772318534.5946934,91.08058997622781,1.343839244347113,-8.161206665250427,-0.16858360735374023,-1.491077744161866,9.726901634250565,0.0,0.0,-0.001090830782496456,-20.60498989706951,57.02467270920249,-93.0
1772318534.6132016,91.08058997622781,1.343839244347113,-8.161206665250427,-0.16814611240090171,-1.4874759410657998,9.724592960497445,-2.0076948506157248e-06,0.0010908289348945679,0.002181661564992912,-19.47872644568934,56.339244457607016,-91.75
1772318534.6267874,91.08058997622781,1.343839244347113,-8.161206665250427,-0.16814611240090171,-1.4874759410657998,9.724592960497445,-2.0076948506157248e-06,0.0010908289348945679,0.002181661564992912,-19.47872644568934,56.339244457607016,-91.75
1772318534.6466625,91.08058997622781,1.343839244347113,-8.161206665250427,-0.16784880765505855,-1.4884240873816588,9.723056563904318,-4.0153897012314496e-06,0.0021816578697891357,-0.002181661564992912,-19.47872644568934,56.339244457607016,-91.75
1772318534.6798666,91.08058997622781,1.343839244347113,-8.161206665250427,-0.1709899039674577,-1.4924063309467568,9.718688997426948,0.0,0.0,-0.001090830782496456,-19.47872644568934,56.339244457607016,-91.75
1772318534.7262716,91.08058997622781,1.343839244347113,-8.161206665250427,-0.16639005639198604,-1.4950441560710184,9.715782430725174,0.0,0.0,0.001090830782496456,-19.853035615881655,55.96355489811681,-93.0
1772318534.771025,91.08058997622781,1.343839244347113,-8.161206665250427,-0.16667401525568806,-1.4968057559666448,9.7105030313463,0.0010868135451933365,0.002183665564639751,0.0,-19.853035615881655,55.96355489811681,-93.0
1772318534.8283675,91.08058997622781,1.343839244347113,-8.161206665250427,-0.16686914344932147,-1.49463297497731,9.706989650034416,2.0076948506157248e-06,-0.0010908289348945679,0.0,-20.603034345564172,55.96217450881893,-92.0625
1772318534.8458424,91.08058997622781,1.343839244347113,-8.161206665250427,-0.16686914344932147,-1.49463297497731,9.706989650034416,2.0076948506157248e-06,-0.0010908289348945679,0.0,-20.603034345564172,55.96217450881893,-92.0625
1772318534.8740091,91.08058997622781,1.343839244347113,-8.161206665250427,-0.16699899908245971,-1.4931870135004615,9.707996645725716,0.0,0.0,0.0,-20.603034345564172,55.96217450881893,-92.0625
1772318534.9117348,91.08058997622781,1.343839244347113,-8.161206665250427,-0.16708541655573078,-1.492224742290067,9.708666790109397,0.0010888212400439522,0.0010928366297451835,-0.002181661564992912,-20.603724540213115,56.337173873660184,-92.0625
1772318534.931846,91.08058997622781,1.343839244347113,-8.161206665250427,-0.16714292641884623,-1.4915843615488231,9.709112763710735,-0.0010928366297451835,0.001088821240043952,-0.002181661564992912,-20.603724540213115,56.337173873660184,-92.0625
1772318534.9463356,91.08058997622781,1.343839244347113,-8.161206665250427,-0.16714292641884623,-1.4915843615488231,9.709112763710735,-0.0010928366297451835,0.001088821240043952,-0.002181661564992912,-20.603724540213115,56.337173873660184,-92.0625
1772318534.9655068,91.08058997622781,1.343839244347113,-8.161206665250427,-0.16717504184845425,-1.4945033013605613,9.706064442453254,-0.00217965017493852,-0.0010948443245957992,-0.001090830782496456,-20.603724540213115,56.337173873660184,-92.0625
1772318534.9822526,91.08058997622781,1.343839244347113,-8.161206665250427,-0.1672025710499736,-1.4931007171570645,9.707380930415699,0.0010848058503427206,0.0032744944995343195,-0.001090830782496456,-20.291225069512066,56.33774903586764,-92.5
1772318535.009421,91.08058997622781,1.343839244347113,-8.161206665250427,-0.16722089142606336,-1.4921673130375295,9.708257038448572,-0.0010928366297451835,0.001088821240043952,0.0,-20.291225069512066,56.33774903586764,-92.5
1772318535.0356522,91.08058997622781,1.343839244347113,-8.161206665250427,-0.1672330834316991,-1.4915461430227863,9.71553030197232,0.0010888212400439522,0.0010928366297451835,-0.001090830782496456,-20.291225069512066,56.33774903586764,-92.5
1772318535.0523195,91.08058997622781,1.343839244347113,-8.161206665250427,-0.1672330834316991,-1.4915461430227863,9.71553030197232,0.0010888212400439522,0.0010928366297451835,-0.001090830782496456,-20.291225069512066,56.33774903586764,-92.5
1772318535.0792208,91.08058997622781,1.343839244347113,-8.161206665250427,-0.16724119707525606,-1.4911327613168983,9.723715689307017,-0.0021756347852372885,-0.003276502194384935,0.001090830782496456,-19.103036886199142,55.9649352874147,-92.5
1772318535.1071675,91.08058997622781,1.343839244347113,-8.161206665250427,-0.1705978593977901,-1.48751871110976,9.72916297314149,-4.0153897012314496e-06,0.0021816578697891357,-0.001090830782496456,-19.103036886199142,55.9649352874147,-92.5
1772318535.1270835,91.08058997622781,1.343839244347113,-8.161206665250427,-0.17283168067706148,-1.4851136010684955,9.732788079683184,-0.00217965017493852,-0.0010948443245957992,0.001090830782496456,-19.103036886199142,55.9649352874147,-92.5
1772318535.1592302,91.08058997622781,1.343839244347113,-8.161206665250427,-0.17431826378499787,-1.4835130272028734,9.72516521246963,0.0,0.0,-0.001090830782496456,-20.291800231719517,56.65024850656869,-91.75
1772318535.1917775,91.08058997622781,1.343839244347113,-8.161206665250427,-0.17865267427862233,-1.4824540199167517,9.726782502906655,-0.0010868135451933365,-0.002183665564639751,-0.002181661564992912,-20.291800231719517,56.65024850656869,-91.75
1772318535.2150462,91.08058997622781,1.343839244347113,-8.161206665250427,-0.17865267427862233,-1.4824540199167517,9.726782502906655,-0.0010868135451933365,-0.002183665564639751,-0.002181661564992912,-20.291800231719517,56.65024850656869,-91.75
1772318535.2408423,91.08058997622781,1.343839244347113,-8.161206665250427,-0.17818591326020947,-1.4850882116973705,9.727858791626177,2.0076948506157248e-06,-0.0010908289348945679,-0.001090830782496456,-20.291800231719517,56.65024850656869,-91.75
1772318535.257018,91.08058997622781,1.343839244347113,-8.161206665250427,-0.17787528901651792,-1.4868412369015218,9.728575049746086,-0.0010908289348945679,-2.0076948506157248e-06,0.0,-20.603724540213115,56.337173873660184,-92.5
1772318535.284117,91.08058997622781,1.343839244347113,-8.161206665250427,-0.17432346601072715,-1.4880016988504419,9.722361488109119,2.0076948506157248e-06,-0.0010908289348945679,-0.001090830782496456,-20.603724540213115,56.337173873660184,-92.5
1772318535.2973776,91.08058997622781,1.343839244347113,-8.161206665250427,-0.17432346601072715,-1.4880016988504419,9.722361488109119,2.0076948506157248e-06,-0.0010908289348945679,-0.001090830782496456,-20.603724540213115,56.337173873660184,-92.5
1772318535.310228,91.08058997622781,1.343839244347113,-8.161206665250427,-0.1719597674768361,-1.4887739733142387,9.718226432249748,-0.0010868135451933365,-0.002183665564639751,0.001090830782496456,-20.603724540213115,56.337173873660184,-92.5
1772318535.3299656,91.08058997622781,1.343839244347113,-8.161206665250427,-0.1719597674768361,-1.4887739733142387,9.718226432249748,-0.0010868135451933365,-0.002183665564639751,0.001090830782496456,-20.603724540213115,56.337173873660184,-92.5
1772318535.3461742,91.08058997622781,1.343839244347113,-8.161206665250427,-0.17038675250677432,-1.4892879133430248,9.715474598766939,8.030779402462899e-06,-0.0043633157395782714,0.001090830782496456,-20.603724540213115,56.337173873660184,-93.0
1772318535.3620517,91.08058997622781,1.343839244347113,-8.161206665250427,-0.17038675250677432,-1.4892879133430248,9.715474598766939,8.030779402462899e-06,-0.0043633157395782714,0.001090830782496456,-20.603724540213115,56.337173873660184,-93.0
1772318535.3999262,91.08058997622781,1.343839244347113,-8.161206665250427,-0.17268503465744095,-1.4896360914329634,9.713643284324123,0.0010928366297451835,-0.001088821240043952,0.0,-20.603724540213115,56.337173873660184,-93.0
1772318535.419313,91.08058997622781,1.343839244347113,-8.161206665250427,-0.1708755664555696,-1.4865165372790312,9.71576967672687,-0.0010888212400439522,-0.0010928366297451835,-0.001090830782496456,-19.85499116738699,57.02605309850038,-93.75
1772318535.435824,91.08058997622781,1.343839244347113,-8.161206665250427,-0.1708755664555696,-1.4865165372790312,9.71576967672687,-0.0010888212400439522,-0.0010928366297451835,-0.001090830782496456,-19.85499116738699,57.02605309850038,-93.75
1772318535.4579656,91.08058997622781,1.343839244347113,-8.161206665250427,-0.16967138558030842,-1.4844405088372927,9.717184767117539,-0.0010888212400439522,-0.0010928366297451835,0.0,-19.85499116738699,57.02605309850038,-93.75
1772318535.5137413,91.08058997622781,1.343839244347113,-8.161206665250427,-0.1655187538760217,-1.486397884399719,9.724816717379573,-0.0010868135451933365,-0.002183665564639751,0.0,-19.85499116738699,57.02605309850038,-93.75
1772318535.5299726,91.08058997622781,1.343839244347113,-8.161206665250427,-0.16274906712288645,-1.4910456020127103,9.729895695024487,0.0,0.0,-0.001090830782496456,-20.291225069512066,56.33774903586764,-93.25
1772318535.5611098,91.08058997622781,1.343839244347113,-8.161206665250427,-0.1642509775696174,-1.4941447629076163,9.72658547449664,2.0076948506157248e-06,-0.0010908289348945679,-0.002181661564992912,-20.291225069512066,56.33774903586764,-93.25
1772318535.596254,91.08058997622781,1.343839244347113,-8.161206665250427,-0.1642509775696174,-1.4941447629076163,9.72658547449664,2.0076948506157248e-06,-0.0010908289348945679,-0.002181661564992912,-20.291225069512066,56.33774903586764,-93.25
1772318535.6198983,91.08058997622781,1.343839244347113,-8.161206665250427,-0.16525048219447785,-1.496207219863281,9.724382559712943,0.0010968520194464151,-0.0032704791098330877,0.0,-20.603724540213115,56.337173873660184,-91.75
1772318535.6359673,91.08058997622781,1.343839244347113,-8.161206665250427,-0.1625766920574781,-1.4942284991447397,9.722916544532564,-0.0010908289348945679,-2.0076948506157248e-06,-0.001090830782496456,-20.603724540213115,56.337173873660184,-91.75
1772318535.6520765,91.08058997622781,1.343839244347113,-8.161206665250427,-0.1625766920574781,-1.4942284991447397,9.722916544532564,-0.0010908289348945679,-2.0076948506157248e-06,-0.001090830782496456,-20.603724540213115,56.337173873660184,-91.75
1772318535.6702425,91.08058997622781,1.343839244347113,-8.161206665250427,-0.1608034713313656,-1.4895665765687949,9.725286039513804,-0.0010848058503427206,-0.0032744944995343195,0.002181661564992912,-20.603724540213115,56.337173873660184,-91.75
1772318535.6934192,91.08058997622781,1.343839244347113,-8.161206665250427,-0.1608034713313656,-1.4895665765687949,9.725286039513804,-0.0010848058503427206,-0.0032744944995343195,0.002181661564992912,-20.603724540213115,56.337173873660184,-91.75
1772318535.738554,91.08058997622781,1.343839244347113,-8.161206665250427,-0.1596234127463112,-1.486464119171591,9.726862911954825,4.0153897012314496e-06,-0.0021816578697891357,-0.001090830782496456,-20.97872390505437,56.336483679011245,-93.0
1772318535.759855,91.08058997622781,1.343839244347113,-8.161206665250427,-0.1621832029815898,-1.4844056251723399,9.727912302949505,0.0010908289348945679,2.0076948506157248e-06,0.002181661564992912,-20.97872390505437,56.336483679011245,-93.0
1772318535.7977808,91.08058997622781,1.343839244347113,-8.161206665250427,-0.15719034596354073,-1.4863685129685011,9.72526554922668,-0.0010888212400439522,-0.0010928366297451835,-0.001090830782496456,-19.102231659108707,55.527436028433236,-93.0
1772318535.8241956,91.08058997622781,1.343839244347113,-8.161206665250427,-0.1538738121337645,-1.4843296868284386,9.726849275897637,-2.0076948506157248e-06,0.0010908289348945679,-0.001090830782496456,-19.102231659108707,55.527436028433236,-93.0
1772318535.8499272,91.08058997622781,1.343839244347113,-8.161206665250427,-0.1538738121337645,-1.4843296868284386,9.726849275897637,-2.0076948506157248e-06,0.0010908289348945679,-0.001090830782496456,-19.102231659108707,55.527436028433236,-93.0
1772318535.8688912,91.08058997622781,1.343839244347113,-8.161206665250427,-0.15166053917629072,-1.4863179768489216,9.724558116598452,-0.0010908289348945679,-2.0076948506157248e-06,0.001090830782496456,-20.291800231719517,56.65024850656869,-93.0
1772318535.8919888,91.08058997622781,1.343839244347113,-8.161206665250427,-0.15166053917629072,-1.4863179768489216,9.724558116598452,-0.0010908289348945679,-2.0076948506157248e-06,0.001090830782496456,-20.291800231719517,56.65024850656869,-93.0
1772318535.9306097,91.08058997622781,1.343839244347113,-8.161206665250427,-0.15687784282999928,-1.4876534751306343,9.72303337567877,4.0153897012314496e-06,-0.0021816578697891357,0.001090830782496456,-20.291800231719517,56.65024850656869,-93.0
1772318536.1439826,91.08058997622781,1.343839244347113,-8.161206665250427,-0.16344541369130952,-1.4843877879673861,9.717292062210719,0.0010948443245957992,-0.00217965017493852,-0.001090830782496456,-20.603034345564172,55.96217450881893,-91.75
1772318536.1785033,91.08058997622781,1.343839244347113,-8.161206665250427,-0.16344541369130952,-1.4843877879673861,9.717292062210719,0.0010948443245957992,-0.00217965017493852,-0.001090830782496456,-20.603034345564172,55.96217450881893,-91.75
1772318536.2343173,91.08058997622781,1.343839244347113,-8.161206665250427,-0.16472670191593813,-1.4830238499500807,9.718197897650882,-0.0010928366297451835,0.001088821240043952,0.0,-20.603034345564172,55.96217450881893,-91.75
1772318536.2590146,91.08058997622781,1.343839244347113,-8.161206665250427,-0.16558554165836922,-1.4787710583942357,9.722145832724783,0.0,0.0,-0.001090830782496456,-19.47872644568934,56.339244457607016,-93.0
1772318536.3136232,91.08058997622781,1.343839244347113,-8.161206665250427,-0.16613861968748453,-1.4859761912451581,9.72477313941514,-0.0010988597142970308,0.004361308044727655,-0.002181661564992912,-19.47872644568934,56.339244457607016,-93.0
1772318536.338661,91.08058997622781,1.343839244347113,-8.161206665250427,-0.16651284367944236,-1.4874260206293248,9.719831359253995,2.0076948506157248e-06,-0.0010908289348945679,0.0,-19.47872644568934,56.339244457607016,-93.0
1772318536.376106,91.08058997622781,1.343839244347113,-8.161206665250427,-0.1701069916072486,-1.4883970226307006,9.716542659760055,2.0076948506157248e-06,-0.0010908289348945679,0.0,-19.85430097273805,56.65105373365912,-93.25
1772318536.4150276,91.08058997622781,1.343839244347113,-8.161206665250427,-0.17250501364580859,-1.485698107574299,9.717699178691339,6.023084551847175e-06,-0.0032724868046837036,0.0,-19.85430097273805,56.65105373365912,-93.25
1772318536.4601786,91.08058997622781,1.343839244347113,-8.161206665250427,-0.1741008705248089,-1.4839020097531201,9.718468829120944,2.0076948506157248e-06,-0.0010908289348945679,0.002181661564992912,-20.291800231719517,56.65024850656869,-93.6875
1772318536.540115,91.08058997622781,1.343839244347113,-8.161206665250427,-0.1741008705248089,-1.4839020097531201,9.718468829120944,2.0076948506157248e-06,-0.0010908289348945679,0.002181661564992912,-20.291800231719517,56.65024850656869,-93.6875
1772318536.560408,91.08058997622781,1.343839244347113,-8.161206665250427,-0.17516289545089422,-1.4827067267168532,9.718981022884288,-0.0010928366297451835,0.001088821240043952,-0.001090830782496456,-20.291800231719517,56.65024850656869,-93.6875
1772318536.6377506,91.08058997622781,1.343839244347113,-8.161206665250427,-0.17251839839222602,-1.4852502285080498,9.726012105526852,-0.0010948443245957992,0.00217965017493852,-0.001090830782496456,-20.977228483314992,55.52398505518852,-93.0
1772318536.6611724,91.08058997622781,1.343839244347113,-8.161206665250427,-0.17251839839222602,-1.4852502285080498,9.726012105526852,-0.0010948443245957992,0.00217965017493852,-0.001090830782496456,-20.977228483314992,55.52398505518852,-93.0
1772318536.770582,91.08058997622781,1.343839244347113,-8.161206665250427,-0.16959142973884822,-1.48584322416106,9.72711488247886,0.0010848058503427206,0.0032744944995343195,0.0,-19.85499116738699,57.02605309850038,-93.0
1772318536.822146,91.08058997622781,1.343839244347113,-8.161206665250427,-0.1688168069400774,-1.4839924264786832,9.724734874811237,0.0010928366297451835,-0.001088821240043952,-0.001090830782496456,-19.85499116738699,57.02605309850038,-93.0
1772318536.851117,91.08058997622781,1.343839244347113,-8.161206665250427,-0.1688168069400774,-1.4839924264786832,9.724734874811237,0.0010928366297451835,-0.001088821240043952,-0.001090830782496456,-19.85499116738699,57.02605309850038,-93.0
1772318536.9217958,91.08058997622781,1.343839244347113,-8.161206665250427,-0.16829514737873105,-1.4861058473373403,9.723151006294861,-0.0010888212400439522,-0.0010928366297451835,0.001090830782496456,-20.291225069512066,56.33774903586764,-92.5625
1772318536.934977,91.08058997622781,1.343839244347113,-8.161206665250427,-0.16829514737873105,-1.4861058473373403,9.723151006294861,-0.0010888212400439522,-0.0010928366297451835,0.001090830782496456,-20.291225069512066,56.33774903586764,-92.5625
1772318537.0213878,91.08058997622781,1.343839244347113,-8.161206665250427,-0.16771489909160106,-1.4895672627183405,9.725847772063895,0.0010868135451933365,0.002183665564639751,-0.001090830782496456,-20.603034345564172,55.96217450881893,-92.875
1772318537.0430026,91.08058997622781,1.343839244347113,-8.161206665250427,-0.16771489909160106,-1.4895672627183405,9.725847772063895,0.0010868135451933365,0.002183665564639751,-0.001090830782496456,-20.603034345564172,55.96217450881893,-92.875
1772318537.0922909,91.08058997622781,1.343839244347113,-8.161206665250427,-0.16756799675655526,-1.486470732538317,9.727236738691948,0.0,0.0,0.001090830782496456,-20.603034345564172,55.96217450881893,-92.875
1772318537.1194186,91.08058997622781,1.343839244347113,-8.161206665250427,-0.16756799675655526,-1.486470732538317,9.727236738691948,0.0,0.0,0.001090830782496456,-20.603034345564172,55.96217450881893,-92.875
1772318537.2058957,91.08058997622781,1.343839244347113,-8.161206665250427,-0.16406006942434212,-1.483032492566169,9.723204973411766,2.0076948506157248e-06,-0.0010908289348945679,0.0,-20.979989261910763,57.02398251455355,-93.0
1772318537.2387946,91.08058997622781,1.343839244347113,-8.161206665250427,-0.16513574844011691,-1.4821219160002126,9.722132874003632,4.0153897012314496e-06,-0.0021816578697891357,0.0,-20.28972964777269,55.52525041204491,-93.0
1772318537.3379483,91.08058997622781,1.343839244347113,-8.161206665250427,-0.16583928732525707,-1.4882061495504035,9.721419403823655,0.0,0.0,0.001090830782496456,-20.28972964777269,55.52525041204491,-93.0
1772318537.3654282,91.08058997622781,1.343839244347113,-8.161206665250427,-0.16583928732525707,-1.4882061495504035,9.721419403823655,0.0,0.0,0.001090830782496456,-20.28972964777269,55.52525041204491,-93.0
1772318537.414159,91.08058997622781,1.343839244347113,-8.161206665250427,-0.16663957261630954,-1.483807222779987,9.722854753484318,-0.0010928366297451835,0.001088821240043952,0.0,-18.790537415498093,55.96551044962215,-93.6875
1772318537.449442,91.08058997622781,1.343839244347113,-8.161206665250427,-0.16685237899943256,-1.482637490303205,9.725244918261447,-0.0010948443245957992,0.00217965017493852,-0.001090830782496456,-19.853035615881655,55.96355489811681,-91.0
1772318537.5171545,91.08058997622781,1.343839244347113,-8.161206665250427,-0.16699399927019787,-1.481859046406674,9.730180657928056,0.0,0.0,-0.001090830782496456,-19.853035615881655,55.96355489811681,-91.0
1772318537.551119,91.08058997622781,1.343839244347113,-8.161206665250427,-0.1670882459783901,-1.481341000689321,9.733465337540359,2.0076948506157248e-06,-0.0010908289348945679,-0.001090830782496456,-20.604299702420565,56.64967334436123,-93.0
1772318537.5866663,91.08058997622781,1.343839244347113,-8.161206665250427,-0.1670882459783901,-1.481341000689321,9.733465337540359,2.0076948506157248e-06,-0.0010908289348945679,-0.001090830782496456,-20.604299702420565,56.64967334436123,-93.0
1772318537.6144023,91.08058997622781,1.343839244347113,-8.161206665250427,-0.1670882459783901,-1.481341000689321,9.733465337540359,0.0010908289348945679,2.0076948506157248e-06,0.001090830782496456,-20.604299702420565,56.64967334436123,-93.0
1772318537.648269,91.08058997622781,1.343839244347113,-8.161206665250427,-0.1671509661098873,-1.4809962470513724,9.732306143422752,-2.0076948506157248e-06,0.0010908289348945679,0.002181661564992912,-20.97929906726182,56.64898314971229,-93.0
1772318537.7514784,91.08058997622781,1.343839244347113,-8.161206665250427,-0.1671509661098873,-1.4809962470513724,9.732306143422752,-2.0076948506157248e-06,0.0010908289348945679,0.002181661564992912,-20.97929906726182,56.64898314971229,-93.0
1772318537.7735682,91.08058997622781,1.343839244347113,-8.161206665250427,-0.1705378116982831,-1.480772974098336,9.731534712686532,0.0010928366297451835,-0.001088821240043952,0.0,-20.97929906726182,56.64898314971229,-93.0
1772318537.7937343,91.08058997622781,1.343839244347113,-8.161206665250427,-0.16944045682043413,-1.4839633377418588,9.734366445856342,-0.0010928366297451835,0.001088821240043952,0.0,-19.853725810530598,56.33855426295807,-92.5
1772318537.8186567,91.08058997622781,1.343839244347113,-8.161206665250427,-0.17204297196526097,-1.4927828579328228,9.73625093264832,0.0010888212400439522,0.0010928366297451835,0.0,-19.853725810530598,56.33855426295807,-92.5
1772318537.8494391,91.08058997622781,1.343839244347113,-8.161206665250427,-0.17204297196526097,-1.4927828579328228,9.73625093264832,0.0010888212400439522,0.0010928366297451835,0.0,-19.853725810530598,56.33855426295807,-92.5
1772318537.8916833,91.08058997622781,1.343839244347113,-8.161206665250427,-0.16709701812285183,-1.491949624532649,9.734159925849964,-2.0076948506157248e-06,0.0010908289348945679,-0.001090830782496456,-20.291800231719517,56.65024850656869,-93.0
1772318537.9498959,91.08058997622781,1.343839244347113,-8.161206665250427,-0.16713833364843123,-1.4980914858375565,9.732768384183734,0.0010888212400439522,0.0010928366297451835,-0.002181661564992912,-20.291800231719517,56.65024850656869,-93.0
1772318537.9706733,91.04667275127044,1.3316476538485578,-8.171924135832505,-0.16718429889478373,-1.4921435078023437,9.731842328749398,-0.0010948443245957992,0.00217965017493852,0.0,-20.290534874863123,55.96274967102638,-92.5
1772318538.001129,90.88890242666501,1.3108162083446766,-8.223233650788842,-0.170541524068676,-1.4982266697295883,9.731226049202563,-0.06655662658737356,0.008604162093268983,-0.2378011105842274,-20.290534874863123,55.96274967102638,-92.5
1772318538.0258038,90.58319602906447,1.2839646144831274,-8.241642301579146,-0.4033602373346017,-1.626468684763717,9.714090363511842,0.007589625562697813,0.02510311936652937,-0.28579766501407144,-20.290534874863123,55.96274967102638,-92.5
1772318538.051679,90.32377646336134,1.2854736996278573,-8.373518880353311,-0.5576828160708373,-2.046322917363176,9.655855192200347,0.04252225151238198,0.01098658944811969,-0.04908738521234052,-20.28972964777269,55.52525041204491,-92.0625
1772318538.0746527,90.32377646336134,1.2854736996278573,-8.373518880353311,-0.5576828160708373,-2.046322917363176,9.655855192200347,0.04252225151238198,0.01098658944811969,-0.04908738521234052,-20.28972964777269,55.52525041204491,-92.0625
1772318538.0896773,90.41552859151258,1.2670018723954435,-8.268232100135073,-0.14919721815877268,-1.990278633421804,9.617100336222036,0.05022230029186366,-0.023905882604552165,0.09817477042468103,-20.28972964777269,55.52525041204491,-92.0625
1772318538.1035514,90.41552859151258,1.2670018723954435,-8.268232100135073,-0.14919721815877268,-1.990278633421804,9.617100336222036,0.05022230029186366,-0.023905882604552165,0.09817477042468103,-20.28972964777269,55.52525041204491,-92.0625
1772318538.1244044,90.5900206744348,1.2692124790108217,-8.1672757929955,0.12228829314024618,-1.7589656381066703,9.601344747610534,0.07310963097614342,-0.01295543166374356,0.1505346479845109,-20.28972964777269,55.52525041204491,-92.0625
1772318538.1483033,90.57174024175862,1.2384036532324694,-8.226801646213493,-0.008172934094157014,-1.5855313644045537,9.590859579391038,-0.027210492526845723,-0.03277506041810242,-0.05235987755982989,-19.85223038879122,55.52605563913535,-92.0625
1772318538.179474,90.64881322201788,1.2592760642715513,-8.300577325296588,-0.09499342347125456,-1.4701127926435755,9.50694424779962,-0.04911540979816417,0.015181258820246242,0.03381575425739013,-19.85223038879122,55.52605563913535,-92.0625
1772318538.2147107,90.64881322201788,1.2592760642715513,-8.300577325296588,-0.09499342347125456,-1.4701127926435755,9.50694424779962,-0.04911540979816417,0.015181258820246242,0.03381575425739013,-19.85223038879122,55.52605563913535,-92.0625
1772318538.241153,90.8041254662444,1.2453557063508434,-8.244335202049307,-0.15277148930329937,-1.3933030224465706,9.451099532021207,0.02729080032087035,-0.010858096977680285,0.07853981633974483,-20.290534874863123,55.96274967102638,-93.0
1772318538.334127,90.99071536288207,1.2548157171854855,-8.356408106242737,-0.09770078259180681,-1.2650771506746858,9.59122641798495,-0.057805902770009625,-0.004469723566660905,0.10144726277217041,-20.290534874863123,55.96274967102638,-93.0
1772318538.399949,91.78461529970922,1.313416477702393,-8.387403105934212,-0.15136970557629414,-1.1799104974177743,9.684479295273942,-0.023990205788278027,-0.004407485026291817,0.13199052468207118,-19.47872644568934,56.339244457607016,-91.375
1772318538.5472858,93.12292354112412,1.3232778507529985,-8.413447130274148,-0.18687644507780576,-1.2369666464606357,9.716432038040995,-0.02722655408565065,-0.024048428938945883,0.1538071403320003,-19.47872644568934,56.339244457607016,-91.375
1772318538.644114,93.92103413912099,1.3327162435632731,-8.41560064287908,-0.21041958919364048,-1.3217683608709125,9.737696231416946,-0.015239481970914098,-0.017481370686221704,0.18871372537188688,-20.609016032521673,59.212169004109825,-89.375
1772318538.7018595,94.81663783961287,1.3653093889726868,-8.440940476839343,-0.20262844912490108,-1.401575599611255,9.78864354335255,0.004403469636590586,-0.021808547918488894,0.17889624832941878,-20.609016032521673,59.212169004109825,-89.375
1772318538.7387447,95.5249151274263,1.3845449222010149,-8.4687066402404,-0.1974065919906841,-1.4747570617367678,9.82254841032693,-0.019608820795044214,-0.014216914660940464,0.18980455615438332,-21.298585452010805,60.33590174177721,-88.1875
1772318538.7649102,95.5249151274263,1.3845449222010149,-8.4687066402404,-0.1974065919906841,-1.4747570617367678,9.82254841032693,-0.019608820795044214,-0.014216914660940464,0.18980455615438332,-21.298585452010805,60.33590174177721,-88.1875
1772318538.8622987,97.02419788505986,1.390794995945734,-8.52597471660177,-0.22730788351886758,-1.555934461692756,9.776558658747174,0.008772808460720705,-0.025073003943770135,0.16907877128695067,-20.988156565256585,61.46147499850843,-87.75
1772318538.928287,97.02419788505986,1.390794995945734,-8.52597471660177,-0.22730788351886758,-1.555934461692756,9.776558658747174,0.008772808460720705,-0.025073003943770135,0.16907877128695067,-20.988156565256585,61.46147499850843,-87.75
1772318538.9690566,97.42727602674067,1.3818630869608832,-8.53337931401407,-0.18041020318672094,-1.5606940625242847,9.75094893217999,0.0022278348513532975,-0.02508505011287383,0.17889624832941878,-20.988156565256585,61.46147499850843,-87.75
1772318539.0296474,98.23698553895022,1.3920506373695047,-8.517056770563874,-0.17522651738289707,-1.5660555628666892,9.706945626499454,0.006579104421827874,-0.01853204572410396,0.1505346479845109,-19.488849300540497,61.83923514194546,-85.375
1772318539.0726678,98.23698553895022,1.3920506373695047,-8.517056770563874,-0.17522651738289707,-1.5660555628666892,9.706945626499454,0.006579104421827874,-0.01853204572410396,0.1505346479845109,-19.488849300540497,61.83923514194546,-85.375
1772318539.1173935,99.0742340452529,1.42935035853305,-8.568111857227592,-0.1725484245935343,-1.5474081599812881,9.704622236847655,-0.02178646327513212,-0.01640258792043083,0.16471544815696484,-19.86591924932858,62.96354304182029,-83.875
1772318539.1724424,99.58199718957877,1.434105673402781,-8.579945241169876,-0.17076618375847005,-1.5349985216661926,9.703076046988345,-0.00434524648592273,-0.009825491193453573,0.17016960206944712,-19.86591924932858,62.96354304182029,-83.875
1772318539.1926434,99.9592573304699,1.4471134180662124,-8.571377205811592,-0.17624570750722574,-1.5401327836420324,9.702047074909048,4.01538970123145e-05,-0.021816578697891355,0.1712604328519436,-20.30410870295899,63.337737179571114,-83.0
1772318539.2437148,99.9592573304699,1.4471134180662124,-8.571377205811592,-0.17624570750722574,-1.5401327836420324,9.702047074909048,4.01538970123145e-05,-0.021816578697891355,0.1712604328519436,-20.30410870295899,63.337737179571114,-83.0
1772318539.314107,101.31219526503862,1.4733306660782965,-8.601014326638134,-0.18238673968503377,-1.5090272494100587,9.65633662963253,0.009853598921362193,-0.01961685157444668,0.16144295580947549,-20.617183335867495,63.64966148806471,-81.75
1772318539.4468005,102.25033570348019,1.4549617639908026,-8.59760615976113,-0.19175603253585596,-1.510917500548665,9.697376306717898,-0.006506827407205708,-0.020737795932100483,0.17453292519943295,-21.307442950005566,65.14839359057335,-81.5
1772318539.471943,102.54535998203667,1.4486624803224735,-8.607082196157204,-0.18686295461321972,-1.527446082390596,9.714979519965931,-0.003218279043717079,-0.029458404326705177,0.17562375598192942,-20.619944114463262,65.14965894742974,-80.5625
1772318539.5386815,102.99375121825076,1.4583013269246339,-8.60902094539029,-0.18360666591496713,-1.5384456689700439,9.756800267107597,-0.005422021556862987,-0.017463301432566164,0.16689710972195776,-20.619944114463262,65.14965894742974,-80.5625
1772318539.6192813,103.87287548660406,1.4603254629685056,-8.64555825759352,-0.15131521756217642,-1.5557456784129637,9.791321730576657,0.007665917967021211,-0.016348380159464205,0.16144295580947549,-20.622704893059034,66.64965640679478,-78.5625
1772318539.6712213,103.87287548660406,1.4603254629685056,-8.64555825759352,-0.15131521756217642,-1.5557456784129637,9.791321730576657,0.007665917967021211,-0.016348380159464205,0.16144295580947549,-20.622704893059034,66.64965640679478,-78.5625
1772318539.7668667,104.4306309921553,1.4883240849263517,-8.645160796586339,-0.1331707254440218,-1.5672647981853267,9.807605155470664,0.019675074725114535,-0.021780440190580272,0.14944381720201447,-20.622704893059034,66.64965640679478,-78.5625
1772318539.8000503,104.4306309921553,1.4883240849263517,-8.645160796586339,-0.1331707254440218,-1.5672647981853267,9.807605155470664,0.019675074725114535,-0.021780440190580272,0.14944381720201447,-20.622704893059034,66.64965640679478,-78.5625
1772318539.8393676,105.27910795701857,1.5130663855319673,-8.63911194113862,-0.12110808211038357,-1.568240431633807,9.82513181625449,-0.006514858186608171,-0.01637448019252221,0.136353847812057,-20.622704893059034,66.64965640679478,-77.0625
1772318539.8633597,105.27910795701857,1.5130663855319673,-8.63911194113862,-0.12110808211038357,-1.568240431633807,9.82513181625449,-0.006514858186608171,-0.01637448019252221,0.136353847812057,-20.622704893059034,66.64965640679478,-77.0625
1772318539.9123394,105.27910795701857,1.5130663855319673,-8.63911194113862,-0.12110808211038357,-1.568240431633807,9.82513181625449,-0.006514858186608171,-0.01637448019252221,0.136353847812057,-20.622704893059034,66.64965640679478,-77.0625
1772318539.9627507,106.07582743456221,1.5618171269977255,-8.68977708098572,-0.12981221466984144,-1.5655753824630567,9.806689607854622,-0.0021896886491915984,0.00435930034987704,0.12980886311707826,-18.81078312520041,66.96549181829904,-76.6875
1772318539.986946,106.52949599300703,1.5920641082413907,-8.689129792008059,-0.1356047176566291,-1.5638018220104721,9.868008981738503,0.0022137809873989875,-0.017449247568611853,0.11999138607461016,-18.81078312520041,66.96549181829904,-76.6875
1772318540.0287938,106.7680257772458,1.6271226578838718,-8.698671029068914,-0.13946572042970617,-1.5592764312997314,9.7817020951978,-0.00217965017493852,-0.0010948443245957992,0.11344640137963143,-20.31078058456544,66.96273103970327,-75.0625
1772318540.1218197,107.22292345074261,1.6447309171280322,-8.679524838708714,-0.14202901790309397,-1.5596099403751742,9.7142304911941,-0.008708562225501001,-0.009833521972856035,0.13853550937704992,-20.31078058456544,66.96273103970327,-75.0625
1772318540.1914828,107.65410655111462,1.6526223339696913,-8.707363247233364,-0.1537393981529271,-1.576575887372516,9.669328892436837,-0.01524751275031656,-0.013118054946643434,0.07963064712224129,-19.499662350040598,67.71422519112517,-73.0625
1772318540.2118661,107.99110886117765,1.6411470674718247,-8.75341834845467,-0.16153252539567234,-1.5878665355772008,9.639447380047603,-0.007621748680307665,-0.007649856408216285,0.09708393964218458,-19.499662350040598,67.71422519112517,-73.0625
1772318540.2330825,108.18162137122079,1.648483979012947,-8.736836498341013,-0.17010081101350624,-1.575315856325397,9.616216455643613,-0.003248394466476315,-0.013095970303286662,0.11671889372712078,-19.875466941972288,68.15103425545769,-72.6875
1772318540.2476919,108.18162137122079,1.648483979012947,-8.736836498341013,-0.17010081101350624,-1.575315856325397,9.616216455643613,-0.003248394466476315,-0.013095970303286662,0.11671889372712078,-19.875466941972288,68.15103425545769,-72.6875
1772318540.2694812,108.26673279894402,1.6524539036975279,-8.751105392959765,-0.1758029093781529,-1.5669635194835951,9.600756534959187,1.6061558804925798e-05,-0.008726631479156543,0.07308566242726255,-19.875466941972288,68.15103425545769,-72.6875
1772318540.3383992,108.54328488950377,1.647416472040822,-8.771356713195054,-0.17964068933628904,-1.5379893903264927,9.587123018735012,-0.004347254180773346,-0.008734662258559005,0.10144726277217041,-18.374664255516826,67.71629577507198,-72.0
1772318540.3800652,108.91987976836616,1.6559167296476591,-8.794513297198884,-0.21552261460539912,-1.5856711192836348,9.614846294764693,-0.007613717900905202,-0.012013172147794555,0.07853981633974483,-18.374664255516826,67.71629577507198,-72.0
1772318540.4372523,109.17695937495021,1.6496474472647178,-8.81531549903959,-0.17254876814928347,-1.5905187940953265,9.63329582527316,-0.009797383465544951,-0.01092635860260122,0.0916297857297023,-18.00104527997345,68.46698469940344,-70.0
