timestamp,yaw,pitch,roll,ax,ay,az,gx,gy,gz,mx,my,mz
1774557329.1660929,0.0,0.0,0.0,-0.14105427612013005,-1.1848559194090924,5.017667560979075,0.0,0.001090830782496456,0.001090830782496456,27.375,19.375,-33.375
1774557329.5338094,-0.12136356184887,1.400636489765237,-9.904444703844415,-0.1915433660699043,-1.5340668687236814,8.352637882777035,-0.001090830782496456,0.003272492347489368,0.0,27.0,20.875,-32.1875
1774557329.774552,-0.12136356184887,1.400636489765237,-9.904444703844415,-0.21296850356236738,-1.6209410549381666,9.132261695942875,0.0,0.001090830782496456,0.001090830782496456,26.25,20.875,-32.5625
1774557329.7899272,-0.12136356184887,1.400636489765237,-9.904444703844415,-0.21296850356236738,-1.6209410549381666,9.132261695942875,0.0,0.001090830782496456,0.001090830782496456,26.25,20.875,-32.5625
1774557329.8076448,0.0,0.0,0.0,-0.22201084108235608,-1.6473871552076325,9.345592282653625,0.003272492347489368,0.003272492347489368,-0.002181661564992912,27.0,19.0625,-33.375
1774557329.8241298,0.0,0.0,0.0,-0.22201084108235608,-1.6473871552076325,9.345592282653625,0.003272492347489368,0.003272492347489368,-0.002181661564992912,27.0,19.0625,-33.375
1774557329.8480477,0.0,0.0,0.0,-0.22133819227774126,-1.6683318512219845,9.484216293343511,-0.002181661564992912,0.0,0.001090830782496456,27.0,19.0625,-33.375
1774557329.8625693,-0.12136356184887,1.400636489765237,-9.904444703844415,-0.2175454403049302,-1.682270312451951,9.573123912218648,0.0,-0.001090830782496456,0.0,27.0,19.0625,-33.375
1774557329.8774145,-0.12136356184887,1.400636489765237,-9.904444703844415,-0.2175454403049302,-1.682270312451951,9.573123912218648,0.0,-0.001090830782496456,0.0,27.0,19.0625,-33.375
1774557330.1121173,-0.12136356184887,1.400636489765237,-9.904444703844415,-0.21502140623484003,-1.6848559792830409,9.632290939416873,-0.001090830782496456,0.004363323129985824,0.0,27.0,19.0625,-33.375
1774557330.13123,0.0,0.0,0.0,-0.21334168975650303,-1.6865767116753403,9.67501104678561,0.001090830782496456,0.001090830782496456,-0.001090830782496456,27.375,19.375,-32.5625
1774557330.1427777,0.0,0.0,0.0,-0.21334168975650303,-1.6865767116753403,9.67501104678561,0.001090830782496456,0.001090830782496456,-0.001090830782496456,27.375,19.375,-32.5625
1774557330.1546528,60.440360315517566,1.4015473116728743,-9.900227274832059,-0.21222385720383227,-1.6877218398605751,9.703440801024637,-0.001090830782496456,0.001090830782496456,0.0,27.375,19.375,-32.5625
1774557330.1711147,60.440360315517566,1.4015473116728743,-9.900227274832059,-0.21222385720383227,-1.6877218398605751,9.703440801024637,-0.001090830782496456,0.001090830782496456,0.0,27.375,19.375,-32.5625
1774557330.1851122,60.440360315517566,1.4015473116728743,-9.900227274832059,-0.21147995212703768,-1.688483909875929,9.725705596596866,0.001090830782496456,0.001090830782496456,0.0,27.375,19.375,-32.5625
1774557330.4421208,60.440360315517566,1.4015473116728743,-9.900227274832059,-0.2109848916083951,-1.6856459472509477,9.74052256933612,0.0,0.003272492347489368,-0.001090830782496456,27.0,20.875,-34.5625
1774557330.462246,0.0,0.0,0.0,-0.2106554343634268,-1.6837573148261424,9.750383099177665,-0.001090830782496456,0.003272492347489368,-0.001090830782496456,27.0,20.875,-34.5625
1774557330.4739692,0.0,0.0,0.0,-0.2106554343634268,-1.6837573148261424,9.750383099177665,-0.001090830782496456,0.003272492347489368,-0.001090830782496456,27.0,20.875,-34.5625
1774557330.4892435,0.0,0.0,0.0,-0.2106554343634268,-1.6837573148261424,9.750383099177665,-0.001090830782496456,0.003272492347489368,-0.001090830782496456,27.0,20.875,-34.5625
1774557330.5167422,60.936795872044684,1.4011672687335235,-9.903225678655101,-0.21043618424717894,-1.6825004510448411,9.756945171637875,0.002181661564992912,-0.001090830782496456,0.0,27.75,18.6875,-33.0
1774557330.5328417,60.936795872044684,1.4011672687335235,-9.903225678655101,-0.21043618424717894,-1.6825004510448411,9.756945171637875,0.002181661564992912,-0.001090830782496456,0.0,27.75,18.6875,-33.0
1774557330.750467,60.936795872044684,1.4011672687335235,-9.903225678655101,-0.21029027574400028,-1.6883542456531122,9.754621934142355,-0.001090830782496456,0.003272492347489368,0.0,27.75,18.6875,-33.0
1774557330.7623243,60.936795872044684,1.4011672687335235,-9.903225678655101,-0.21029027574400028,-1.6883542456531122,9.754621934142355,-0.001090830782496456,0.003272492347489368,0.0,27.75,18.6875,-33.0
1774557330.7798038,0.0,0.0,0.0,-0.21353828697235905,-1.6922498805737463,9.75307584554135,-0.001090830782496456,0.0,0.001090830782496456,25.875,19.375,-33.0
1774557330.7922592,0.0,0.0,0.0,-0.21569980216216905,-1.6948423820963348,9.752046940848322,0.001090830782496456,0.0,0.003272492347489368,25.875,19.375,-33.0
1774557330.8141465,60.94418185001263,1.4019636509187992,-9.902899673160514,-0.2204833780826002,-1.689877439484839,9.75805243968337,-0.001090830782496456,0.001090830782496456,-0.001090830782496456,25.875,19.375,-33.0
1774557330.8253388,60.94418185001263,1.4019636509187992,-9.902899673160514,-0.2204833780826002,-1.689877439484839,9.75805243968337,-0.001090830782496456,0.001090830782496456,-0.001090830782496456,25.875,19.375,-33.0
1774557330.8400402,60.94418185001263,1.4019636509187992,-9.902899673160514,-0.22032168271428346,-1.6865733256389317,9.755358808657638,0.0,-0.002181661564992912,0.0,25.875,19.375,-33.0
1774557331.015347,60.94418185001263,1.4019636509187992,-9.902899673160514,-0.22032168271428346,-1.6865733256389317,9.755358808657638,0.0,-0.002181661564992912,0.0,25.875,19.375,-33.0
1774557331.026815,60.94418185001263,1.4019636509187992,-9.902899673160514,-0.22032168271428346,-1.6865733256389317,9.755358808657638,0.0,-0.002181661564992912,0.0,25.875,19.375,-33.0
1774557331.038726,0.0,0.0,0.0,-0.22355918796024365,-1.681029363076531,9.753566227299842,-0.002181661564992912,0.004363323129985824,-0.001090830782496456,27.375,19.75,-33.75
1774557331.0535774,0.0,0.0,0.0,-0.22355918796024365,-1.681029363076531,9.753566227299842,-0.002181661564992912,0.004363323129985824,-0.001090830782496456,27.375,19.75,-33.75
1774557331.067331,0.0,0.0,0.0,-0.2257137115361269,-1.6907203647506506,9.752373284430675,0.0,-0.001090830782496456,0.001090830782496456,27.375,19.75,-33.75
1774557331.0792565,60.944068822556915,1.3984228481232566,-9.896792344472377,-0.2271475229082719,-1.6737538361579596,9.738198947448012,0.0,0.001090830782496456,-0.001090830782496456,27.375,19.75,-33.75
1774557331.0924377,60.944068822556915,1.3984228481232566,-9.896792344472377,-0.2271475229082719,-1.6737538361579596,9.738198947448012,0.0,0.001090830782496456,-0.001090830782496456,27.375,19.75,-33.75
1774557331.1056828,60.944068822556915,1.3984228481232566,-9.896792344472377,-0.2281017083597119,-1.6791883594446635,9.72876608452377,0.001090830782496456,0.002181661564992912,0.001090830782496456,27.375,19.75,-33.75
1774557331.1169996,60.944068822556915,1.3984228481232566,-9.896792344472377,-0.22873670811869534,-1.6794598622770427,9.72248861961967,0.0,0.0,0.0,27.375,19.75,-33.75
1774557331.3017626,60.944068822556915,1.3984228481232566,-9.896792344472377,-0.22873670811869534,-1.6794598622770427,9.72248861961967,0.0,0.0,0.0,27.375,19.75,-33.75
1774557331.3131897,0.0,0.0,0.0,-0.2124337348282898,-1.6796405443791056,9.718311036849869,0.0,0.0,0.0,27.0,18.6875,-33.5
1774557331.324573,0.0,0.0,0.0,-0.2124337348282898,-1.6796405443791056,9.718311036849869,0.0,0.0,0.0,27.0,18.6875,-33.5
1774557331.3356357,0.0,0.0,0.0,-0.20158428821966934,-1.679760786299677,9.698805343646626,0.0,0.002181661564992912,0.0,27.0,18.6875,-33.5
1774557331.3473816,0.0,0.0,0.0,-0.20158428821966934,-1.679760786299677,9.698805343646626,0.0,0.002181661564992912,0.0,27.0,18.6875,-33.5
1774557331.358503,0.0,0.0,0.0,-0.19770921440521155,-1.6831859176619466,9.685824522712737,-0.001090830782496456,0.002181661564992912,0.002181661564992912,27.0,18.6875,-33.5
1774557331.3697536,0.0,0.0,0.0,-0.19770921440521155,-1.6831859176619466,9.685824522712737,-0.001090830782496456,0.002181661564992912,0.002181661564992912,27.0,18.6875,-33.5
1774557331.383653,60.944068822556915,1.3984228481232566,-9.896792344472377,-0.20182061948373947,-1.6854653043223127,9.683876154801144,0.0,-0.002181661564992912,0.0,27.0,18.6875,-33.5
1774557331.3972766,60.944068822556915,1.3984228481232566,-9.896792344472377,-0.2045567136360958,-1.6869822106823689,9.692614872842634,-0.001090830782496456,0.003272492347489368,0.0,27.0,18.6875,-33.5
1774557331.5750487,60.944068822556915,1.3984228481232566,-9.896792344472377,-0.2045567136360958,-1.6869822106823689,9.692614872842634,-0.001090830782496456,0.003272492347489368,0.0,27.0,18.6875,-33.5
1774557331.58671,0.0,0.0,0.0,-0.20637755373031458,-1.6746112480907545,9.68839505695941,0.0,0.0,0.0,27.0,19.375,-33.0625
1774557331.598096,0.0,0.0,0.0,-0.20637755373031458,-1.6746112480907545,9.68839505695941,0.0,0.0,0.0,27.0,19.375,-33.0625
1774557331.6094594,0.0,0.0,0.0,-0.2042441907655812,-1.6797589575080196,9.678896593212917,-0.001090830782496456,0.003272492347489368,0.001090830782496456,27.0,19.375,-33.0625
1774557331.6225843,0.0,0.0,0.0,-0.2042441907655812,-1.6797589575080196,9.678896593212917,-0.001090830782496456,0.003272492347489368,0.001090830782496456,27.0,19.375,-33.0625
1774557331.6353285,0.0,0.0,0.0,-0.20282446154377695,-1.6831847006215275,9.672575471694419,-0.001090830782496456,0.001090830782496456,0.003272492347489368,27.0,19.375,-33.0625
1774557331.6472442,0.0,0.0,0.0,-0.20282446154377695,-1.6831847006215275,9.672575471694419,-0.001090830782496456,0.001090830782496456,0.003272492347489368,27.0,19.375,-33.0625
1774557331.660198,60.944068822556915,1.3984228481232566,-9.896792344472377,-0.2018796476060808,-1.685464494395509,9.68174928276469,-0.003272492347489368,0.001090830782496456,-0.001090830782496456,27.0,19.375,-33.0625
1774557331.6719751,60.944068822556915,1.3984228481232566,-9.896792344472377,-0.2012508844848072,-1.6769463365631705,9.691199463261091,0.0,0.001090830782496456,0.001090830782496456,27.0,19.375,-33.0625
1774557331.8499377,60.944068822556915,1.3984228481232566,-9.896792344472377,-0.2012508844848072,-1.6769463365631705,9.691199463261091,0.0,0.001090830782496456,0.001090830782496456,27.0,19.375,-33.0625
1774557331.8612165,0.0,0.0,0.0,-0.19748733794402457,-1.6712775976798069,9.694143341108694,0.001090830782496456,-0.1407171709420428,0.007635815477475192,27.375,19.375,-33.5
1774557331.8723133,0.0,0.0,0.0,-0.19748733794402457,-1.6712775976798069,9.694143341108694,0.001090830782496456,-0.1407171709420428,0.007635815477475192,27.375,19.375,-33.5
1774557331.883299,0.0,0.0,0.0,-0.19832785147002263,-1.667505115276891,9.679376900394406,0.0,0.0,0.001090830782496456,27.375,19.375,-33.5
1774557331.8951306,0.0,0.0,0.0,-0.19832785147002263,-1.667505115276891,9.679376900394406,0.0,0.0,0.001090830782496456,27.375,19.375,-33.5
1774557331.9068878,0.0,0.0,0.0,-0.20557742724706182,-1.6683396820864593,9.669549999050998,0.0,0.001090830782496456,0.002181661564992912,27.375,19.375,-33.5
1774557331.918803,0.0,0.0,0.0,-0.20557742724706182,-1.6683396820864593,9.669549999050998,0.0,0.001090830782496456,0.002181661564992912,27.375,19.375,-33.5
1774557331.9319777,60.944068822556915,1.3984228481232566,-9.896792344472377,-0.2137470506509331,-1.6722401886828244,9.676390752809917,-0.001090830782496456,0.0,-0.001090830782496456,27.375,19.375,-33.5
1774557331.9442155,60.944068822556915,1.3984228481232566,-9.896792344472377,-0.21918384376553637,-1.6781810439585112,9.68763342143489,0.0,0.001090830782496456,0.001090830782496456,27.375,19.375,-33.5
1774557332.1225543,60.944068822556915,1.3984228481232566,-9.896792344472377,-0.21918384376553637,-1.6781810439585112,9.68763342143489,0.0,0.001090830782496456,0.001090830782496456,27.375,19.375,-33.5
1774557332.1350012,60.944068822556915,1.3984228481232566,-9.896792344472377,-0.21918384376553637,-1.6781810439585112,9.68763342143489,0.0,0.001090830782496456,0.001090830782496456,27.375,19.375,-33.5
1774557332.153858,0.0,0.0,0.0,-0.22280196885034637,-1.682134616780779,9.695115291815974,-0.001090830782496456,0.003272492347489368,0.0,26.25,19.0625,-33.75
1774557332.1655335,0.0,0.0,0.0,-0.20848423214058504,-1.6847656753296958,9.683368834440019,-0.001090830782496456,0.002181661564992912,0.002181661564992912,26.25,19.0625,-33.75
1774557332.1787407,0.0,0.0,0.0,-0.20848423214058504,-1.6847656753296958,9.683368834440019,-0.001090830782496456,0.002181661564992912,0.002181661564992912,26.25,19.0625,-33.75
1774557332.1936607,0.0,0.0,0.0,-0.19895593829983763,-1.6764812802811921,9.675551698272848,0.0,0.001090830782496456,0.001090830782496456,26.25,19.0625,-33.75
1774557332.2060401,0.0,0.0,0.0,-0.19895593829983763,-1.6764812802811921,9.675551698272848,0.0,0.001090830782496456,0.001090830782496456,26.25,19.0625,-33.75
1774557332.2182813,60.944068822556915,1.3984228481232566,-9.896792344472377,-0.19596007689415593,-1.6709681079191694,9.673694593184047,0.0,0.003272492347489368,-0.003272492347489368,26.25,19.0625,-33.75
1774557332.3940325,60.944068822556915,1.3984228481232566,-9.896792344472377,-0.19596007689415593,-1.6709681079191694,9.673694593184047,0.0,0.003272492347489368,-0.003272492347489368,26.25,19.0625,-33.75
1774557332.4056835,0.0,0.0,0.0,-0.19396636459463945,-1.6672991532984138,9.672458710492673,-0.001090830782496456,0.004363323129985824,0.004363323129985824,27.0,18.6875,-34.5625
1774557332.4170618,0.0,0.0,0.0,-0.19396636459463945,-1.6672991532984138,9.672458710492673,-0.001090830782496456,0.004363323129985824,0.004363323129985824,27.0,18.6875,-34.5625
1774557332.4312375,0.0,0.0,0.0,-0.20267490645249506,-1.6648575049832095,9.66829113265996,0.001090830782496456,0.001090830782496456,0.0,27.0,18.6875,-34.5625
1774557332.4427085,0.0,0.0,0.0,-0.20267490645249506,-1.6648575049832095,9.66829113265996,0.001090830782496456,0.001090830782496456,0.0,27.0,18.6875,-34.5625
1774557332.453998,0.0,0.0,0.0,-0.2084703437781113,-1.6632326153044399,9.665517656167182,0.0,-0.001090830782496456,-0.001090830782496456,27.0,18.6875,-34.5625
1774557332.4666998,0.0,0.0,0.0,-0.2084703437781113,-1.6632326153044399,9.665517656167182,0.0,-0.001090830782496456,-0.001090830782496456,27.0,18.6875,-34.5625
1774557332.4835236,60.944068822556915,1.3984228481232566,-9.896792344472377,-0.21232714257903207,-1.6621512693744258,9.683742608786918,-0.002181661564992912,0.0,-0.003272492347489368,27.0,18.6875,-34.5625
1774557332.6695516,60.944068822556915,1.3984228481232566,-9.896792344472377,-0.2182389108050987,-1.661431645737427,9.699216222876611,0.0,0.004363323129985824,0.003272492347489368,27.0,18.6875,-34.5625
1774557332.682513,0.0,0.0,0.0,-0.19541223286221282,-1.660952744245727,9.706168628494387,-0.002181661564992912,0.003272492347489368,-0.002181661564992912,27.75,18.25,-33.875
1774557332.6937695,0.0,0.0,0.0,-0.19541223286221282,-1.660952744245727,9.706168628494387,-0.002181661564992912,0.003272492347489368,-0.002181661564992912,27.75,18.25,-33.875
1774557332.705001,0.0,0.0,0.0,-0.20698222734047766,-1.6773595991892776,9.690724706525641,-0.001090830782496456,0.0,0.002181661564992912,27.75,18.25,-33.875
1774557332.7179012,0.0,0.0,0.0,-0.20698222734047766,-1.6773595991892776,9.690724706525641,-0.001090830782496456,0.0,0.002181661564992912,27.75,18.25,-33.875
1774557332.7295566,0.0,0.0,0.0,-0.20799170600581732,-1.6682075076337157,9.680446948975353,0.0,0.004363323129985824,0.0,27.75,18.25,-33.875
1774557332.7414994,0.0,0.0,0.0,-0.20799170600581732,-1.6682075076337157,9.680446948975353,0.0,0.004363323129985824,0.0,27.75,18.25,-33.875
1774557332.753064,60.944068822556915,1.3984228481232566,-9.896792344472377,-0.20866350278098528,-1.6688071163536895,9.68364255125767,0.0,0.003272492347489368,0.0,27.75,18.25,-33.875
1774557332.764663,60.944068822556915,1.3984228481232566,-9.896792344472377,-0.20911057603039787,-1.6692061492587638,9.692459412293974,0.001090830782496456,0.003272492347489368,0.001090830782496456,27.75,18.25,-33.875
1774557332.9434988,60.944068822556915,1.3984228481232566,-9.896792344472377,-0.20911057603039787,-1.6692061492587638,9.692459412293974,0.001090830782496456,0.003272492347489368,0.001090830782496456,27.75,18.25,-33.875
1774557332.9555,0.0,0.0,0.0,-0.20606298657642716,-1.6694717011996012,9.698326934822843,0.0,0.0,0.0,27.0,19.75,-33.5
1774557332.966607,0.0,0.0,0.0,-0.20606298657642716,-1.6694717011996012,9.698326934822843,0.0,0.0,0.0,27.0,19.75,-33.5
1774557332.980624,0.0,0.0,0.0,-0.20403484983861447,-1.6663033113424996,9.675470811862729,0.0,0.002181661564992912,0.0,27.0,19.75,-33.5
1774557332.9920208,0.0,0.0,0.0,-0.20403484983861447,-1.6663033113424996,9.675470811862729,0.0,0.002181661564992912,0.0,27.0,19.75,-33.5
1774557333.0035048,0.0,0.0,0.0,-0.20603025920269136,-1.6641947832858321,9.660260317352396,-0.001090830782496456,0.0,-0.001090830782496456,27.0,19.75,-33.5
1774557333.0157986,0.0,0.0,0.0,-0.20603025920269136,-1.6641947832858321,9.660260317352396,-0.001090830782496456,0.0,-0.001090830782496456,27.0,19.75,-33.5
1774557333.0285738,60.944068822556915,1.3984228481232566,-9.896792344472377,-0.2107032935516208,-1.666136693125241,9.670208573412042,0.0,0.001090830782496456,0.0,27.0,19.75,-33.5
1774557333.0399637,60.944068822556915,1.3984228481232566,-9.896792344472377,-0.2138131457096193,-1.6707741241381329,9.686864361812393,0.0,0.001090830782496456,-0.001090830782496456,27.0,19.75,-33.5
1774557333.2199907,60.944068822556915,1.3984228481232566,-9.896792344472377,-0.2138131457096193,-1.6707741241381329,9.686864361812393,0.0,0.001090830782496456,-0.001090830782496456,27.0,19.75,-33.5
1774557333.2313519,0.0,0.0,0.0,-0.21253760587412307,-1.6738602826737135,9.68791326781352,0.0,0.0,0.0,26.25,19.0625,-33.0625
1774557333.2425818,0.0,0.0,0.0,-0.21253760587412307,-1.6738602826737135,9.68791326781352,0.0,0.0,0.0,26.25,19.0625,-33.0625
1774557333.2538452,0.0,0.0,0.0,-0.2116887483623139,-1.6725689749971733,9.675230856210947,0.0,0.001090830782496456,0.002181661564992912,26.25,19.0625,-33.0625
1774557333.2686758,0.0,0.0,0.0,-0.20777873146324527,-1.6683645124559685,9.666790852961254,-0.001090830782496456,0.001090830782496456,0.0,26.25,19.0625,-33.0625
1774557333.279669,0.0,0.0,0.0,-0.20777873146324527,-1.6683645124559685,9.666790852961254,-0.001090830782496456,0.001090830782496456,0.0,26.25,19.0625,-33.0625
1774557333.2921772,60.944068822556915,1.3984228481232566,-9.896792344472377,-0.20852177060198512,-1.66891160130904,9.681244795323513,-0.001090830782496456,0.001090830782496456,-0.001090830782496456,26.25,19.0625,-33.0625
1774557333.303433,60.944068822556915,1.3984228481232566,-9.896792344472377,-0.20852177060198512,-1.66891160130904,9.681244795323513,-0.001090830782496456,0.001090830782496456,-0.001090830782496456,26.25,19.0625,-33.0625
1774557333.3147342,60.944068822556915,1.3984228481232566,-9.896792344472377,-0.20901625484852546,-1.6793110179513342,9.6942088442118,-0.001090830782496456,0.001090830782496456,0.002181661564992912,26.25,19.0625,-33.0625
1774557333.4915292,60.944068822556915,1.3984228481232566,-9.896792344472377,-0.20901625484852546,-1.6793110179513342,9.6942088442118,-0.001090830782496456,0.001090830782496456,0.002181661564992912,26.25,19.0625,-33.0625
1774557333.5062842,0.0,0.0,0.0,-0.20934532859084706,-1.6862317135576854,9.70283627392904,0.0,0.0,0.0,27.75,19.375,-33.5
1774557333.5195289,0.0,0.0,0.0,-0.20934532859084706,-1.6862317135576854,9.70283627392904,0.0,0.0,0.0,27.75,19.375,-33.5
1774557333.5353916,0.0,0.0,0.0,-0.21290943519768693,-1.6874922474671574,9.685161950079925,-0.001090830782496456,0.002181661564992912,-0.002181661564992912,27.75,19.375,-33.5
1774557333.5481725,0.0,0.0,0.0,-0.2052459732089012,-1.6816408952881858,9.673399884993472,-0.002181661564992912,-0.002181661564992912,0.001090830782496456,27.75,19.375,-33.5
1774557333.5597916,0.0,0.0,0.0,-0.2052459732089012,-1.6816408952881858,9.673399884993472,-0.002181661564992912,-0.002181661564992912,0.001090830782496456,27.75,19.375,-33.5
1774557333.5719686,60.944068822556915,1.3984228481232566,-9.896792344472377,-0.2001460248618439,-1.6777468857769668,9.67895280889859,0.0,0.001090830782496456,-0.001090830782496456,27.75,19.375,-33.5
1774557333.584891,60.944068822556915,1.3984228481232566,-9.896792344472377,-0.19675206620703314,-1.6751554659461871,9.685993329434542,-0.001090830782496456,0.001090830782496456,0.002181661564992912,27.75,19.375,-33.5
1774557333.7651622,60.944068822556915,1.3984228481232566,-9.896792344472377,-0.19675206620703314,-1.6751554659461871,9.685993329434542,-0.001090830782496456,0.001090830782496456,0.002181661564992912,27.75,19.375,-33.5
1774557333.777597,0.0,0.0,0.0,-0.19114831292793955,-1.67008579328954,9.69067871720345,0.0,0.0,0.0,26.5625,19.0625,-33.5
1774557333.7891815,0.0,0.0,0.0,-0.19114831292793955,-1.67008579328954,9.69067871720345,0.0,0.0,0.0,26.5625,19.0625,-33.5
1774557333.8029993,0.0,0.0,0.0,-0.19076418942604786,-1.6734022061831344,9.680416343595171,0.001090830782496456,0.003272492347489368,-0.002181661564992912,26.5625,19.0625,-33.5
1774557333.8168387,0.0,0.0,0.0,-0.20054389464843778,-1.6689190185024234,9.673586848597084,-0.001090830782496456,0.001090830782496456,0.001090830782496456,26.5625,19.0625,-33.5
1774557333.8279781,0.0,0.0,0.0,-0.20054389464843778,-1.6689190185024234,9.673586848597084,-0.001090830782496456,0.001090830782496456,0.001090830782496456,26.5625,19.0625,-33.5
1774557333.8398447,60.944068822556915,1.3984228481232566,-9.896792344472377,-0.2070521792274728,-1.6692806188887173,9.679077231088273,-0.001090830782496456,0.001090830782496456,-0.001090830782496456,26.5625,19.0625,-33.5
1774557333.8513544,60.944068822556915,1.3984228481232566,-9.896792344472377,-0.2070521792274728,-1.6692806188887173,9.679077231088273,-0.001090830782496456,0.001090830782496456,-0.001090830782496456,26.5625,19.0625,-33.5
1774557333.8629856,60.944068822556915,1.3984228481232566,-9.896792344472377,-0.2080382582051988,-1.6695212599064548,9.699456577841167,-0.001090830782496456,0.001090830782496456,0.0,26.5625,19.0625,-33.5
1774557334.0400376,60.944068822556915,1.3984228481232566,-9.896792344472377,-0.2080382582051988,-1.6695212599064548,9.699456577841167,-0.001090830782496456,0.001090830782496456,0.0,26.5625,19.0625,-33.5
1774557334.0531824,0.0,0.0,0.0,-0.20200425933501276,-1.669681403815623,9.696293246916401,0.0,0.0,0.0,27.375,19.0625,-33.5
1774557334.0645056,0.0,0.0,0.0,-0.20200425933501276,-1.669681403815623,9.696293246916401,0.0,0.0,0.0,27.375,19.0625,-33.5
1774557334.0798578,0.0,0.0,0.0,-0.19798870049108785,-1.6764782012128883,9.690842973815371,0.0,0.004363323129985824,0.002181661564992912,27.375,19.0625,-33.5
1774557334.0919907,0.0,0.0,0.0,-0.19798870049108785,-1.6764782012128883,9.690842973815371,0.0,0.004363323129985824,0.002181661564992912,27.375,19.0625,-33.5
1774557334.104015,0.0,0.0,0.0,-0.19866150264450663,-1.6709660588336086,9.687215877950175,-0.001090830782496456,-0.001090830782496456,0.002181661564992912,27.375,19.0625,-33.5
1774557334.1165054,60.944068822556915,1.3984228481232566,-9.896792344472377,-0.19910924496191432,-1.677333124776821,9.684802086169203,0.0,0.002181661564992912,-0.004363323129985824,27.375,19.0625,-33.5
1774557334.1281767,60.944068822556915,1.3984228481232566,-9.896792344472377,-0.19910924496191432,-1.677333124776821,9.684802086169203,0.0,0.002181661564992912,-0.004363323129985824,27.375,19.0625,-33.5
1774557334.3119392,60.944068822556915,1.3984228481232566,-9.896792344472377,-0.2060974358871785,-1.681570336037242,9.703266404946703,-0.001090830782496456,0.002181661564992912,0.002181661564992912,27.375,19.0625,-33.5
1774557334.323891,0.0,0.0,0.0,-0.2040577754700955,-1.684390152798301,9.715554202833175,0.0,0.0,0.0,27.0,19.375,-34.6875
1774557334.335912,0.0,0.0,0.0,-0.2040577754700955,-1.684390152798301,9.715554202833175,0.0,0.0,0.0,27.0,19.375,-34.6875
1774557334.3481853,0.0,0.0,0.0,-0.21273573936898466,-1.6795764859387299,9.70031581311169,-0.001090830782496456,0.003272492347489368,-0.004363323129985824,27.0,19.375,-34.6875
1774557334.3596613,0.0,0.0,0.0,-0.21273573936898466,-1.6795764859387299,9.70031581311169,-0.001090830782496456,0.003272492347489368,-0.004363323129985824,27.0,19.375,-34.6875
1774557334.370982,0.0,0.0,0.0,-0.20513038057520938,-1.6763730444158673,9.690174834976007,0.0,-0.002181661564992912,-0.002181661564992912,27.0,19.375,-34.6875
1774557334.3839686,60.944068822556915,1.3984228481232566,-9.896792344472377,-0.2000690992553763,-1.674241189867189,9.696806574138137,0.001090830782496456,0.003272492347489368,0.002181661564992912,27.0,19.375,-34.6875
1774557334.3959079,60.944068822556915,1.3984228481232566,-9.896792344472377,-0.2000690992553763,-1.674241189867189,9.696806574138137,0.001090830782496456,0.003272492347489368,0.002181661564992912,27.0,19.375,-34.6875
1774557334.4079077,60.944068822556915,1.3984228481232566,-9.896792344472377,-0.19670087307524428,-1.6694773527720999,9.701219922469154,-0.002181661564992912,0.0,0.001090830782496456,27.0,19.375,-34.6875
1774557334.5834985,60.944068822556915,1.3984228481232566,-9.896792344472377,-0.19670087307524428,-1.6694773527720999,9.701219922469154,-0.002181661564992912,0.0,0.001090830782496456,27.0,19.375,-34.6875
1774557334.5947309,0.0,0.0,0.0,-0.1911142444705988,-1.6629619606935457,9.704156956483114,-0.004363323129985824,0.003272492347489368,0.0,27.0,18.6875,-33.875
1774557334.6056235,0.0,0.0,0.0,-0.1911142444705988,-1.6629619606935457,9.704156956483114,-0.004363323129985824,0.003272492347489368,0.0,27.0,18.6875,-33.875
1774557334.616783,0.0,0.0,0.0,-0.19074151724825722,-1.6586260400469663,9.696076184688627,-0.001090830782496456,0.004363323129985824,0.0,27.0,18.6875,-33.875
1774557334.6289961,0.0,0.0,0.0,-0.19074151724825722,-1.6586260400469663,9.696076184688627,-0.001090830782496456,0.004363323129985824,0.0,27.0,18.6875,-33.875
1774557334.64146,0.0,0.0,0.0,-0.20052880656738292,-1.6691209801213525,9.690698521327532,0.0,0.002181661564992912,0.001090830782496456,27.0,18.6875,-33.875
1774557334.6538272,0.0,0.0,0.0,-0.20052880656738292,-1.6691209801213525,9.690698521327532,0.0,0.002181661564992912,0.001090830782496456,27.0,18.6875,-33.875
1774557334.6667306,60.944068822556915,1.3984228481232566,-9.896792344472377,-0.21038724998539507,-1.6761052455046943,9.700500193262435,-0.001090830782496456,0.002181661564992912,0.001090830782496456,27.0,18.6875,-33.875
1774557334.6787615,60.944068822556915,1.3984228481232566,-9.896792344472377,-0.2169479339540534,-1.6774080843906325,9.707023096443265,0.0,0.002181661564992912,-0.002181661564992912,27.0,18.6875,-33.875
1774557334.8532546,60.944068822556915,1.3984228481232566,-9.896792344472377,-0.2169479339540534,-1.6774080843906325,9.707023096443265,0.0,0.002181661564992912,-0.002181661564992912,27.0,18.6875,-33.875
1774557334.8651817,0.0,0.0,0.0,-0.2213139958475536,-1.674929997408241,9.711364015644504,0.0,0.0,0.0,27.0,18.6875,-34.25
1774557334.876515,0.0,0.0,0.0,-0.2213139958475536,-1.674929997408241,9.711364015644504,0.0,0.0,0.0,27.0,18.6875,-34.25
1774557334.8901706,0.0,0.0,0.0,-0.21752933785093215,-1.6732808582035048,9.697527290345088,0.001090830782496456,0.001090830782496456,0.0,27.0,18.6875,-34.25
1774557334.9021213,0.0,0.0,0.0,-0.21752933785093215,-1.6732808582035048,9.697527290345088,0.001090830782496456,0.001090830782496456,0.0,27.0,18.6875,-34.25
1774557334.9134674,0.0,0.0,0.0,-0.21166557852426116,-1.6721833744848449,9.688319104224675,-0.001090830782496456,0.002181661564992912,0.001090830782496456,27.0,18.6875,-34.25
1774557334.9250832,0.0,0.0,0.0,-0.21166557852426116,-1.6721833744848449,9.688319104224675,-0.001090830782496456,0.002181661564992912,0.001090830782496456,27.0,18.6875,-34.25
1774557334.9364219,60.944068822556915,1.3984228481232566,-9.896792344472377,-0.21110842390216458,-1.6747981230370925,9.698916717760316,-0.001090830782496456,-0.002181661564992912,0.0,27.0,18.6875,-34.25
1774557334.9489567,60.944068822556915,1.3984228481232566,-9.896792344472377,-0.217427867139623,-1.676538208989958,9.709314422892504,0.001090830782496456,0.002181661564992912,-0.002181661564992912,27.0,18.6875,-34.25
1774557335.1248822,60.944068822556915,1.3984228481232566,-9.896792344472377,-0.217427867139623,-1.676538208989958,9.709314422892504,0.001090830782496456,0.002181661564992912,-0.002181661564992912,27.0,18.6875,-34.25
1774557335.1366792,0.0,0.0,0.0,-0.2216333860213452,-1.6710059933389179,9.712888867800679,0.0,0.0,0.0,28.0625,19.0625,-33.875
1774557335.1485918,0.0,0.0,0.0,-0.2216333860213452,-1.6710059933389179,9.712888867800679,0.0,0.0,0.0,28.0625,19.0625,-33.875
1774557335.1637294,0.0,0.0,0.0,-0.21439677673644905,-1.6673243656220487,9.691851839006668,-0.002181661564992912,0.003272492347489368,-0.003272492347489368,28.0625,19.0625,-33.875
1774557335.1759777,0.0,0.0,0.0,-0.20623578238825377,-1.6648742835029484,9.677851931343262,0.0,-0.001090830782496456,0.001090830782496456,28.0625,19.0625,-33.875
1774557335.1874437,0.0,0.0,0.0,-0.20623578238825377,-1.6648742835029484,9.677851931343262,0.0,-0.001090830782496456,0.001090830782496456,28.0625,19.0625,-33.875
1774557335.1987414,60.944068822556915,1.3984228481232566,-9.896792344472377,-0.20080473181381,-1.6699340046365365,9.691950931133718,0.001090830782496456,0.001090830782496456,0.0,28.0625,19.0625,-33.875
1774557335.2100463,60.944068822556915,1.3984228481232566,-9.896792344472377,-0.20080473181381,-1.6699340046365365,9.691950931133718,0.001090830782496456,0.001090830782496456,0.0,28.0625,19.0625,-33.875
1774557335.2217019,60.944068822556915,1.3984228481232566,-9.896792344472377,-0.1971904283253278,-1.6733011925301509,9.701333657998118,0.0,0.004363323129985824,-0.001090830782496456,28.0625,19.0625,-33.875
1774557335.3960054,60.944068822556915,1.3984228481232566,-9.896792344472377,-0.1971904283253278,-1.6733011925301509,9.701333657998118,0.0,0.004363323129985824,-0.001090830782496456,28.0625,19.0625,-33.875
1774557335.4085898,0.0,0.0,0.0,-0.19144003802083892,-1.6688517950447592,9.700887534499811,-0.001090830782496456,0.004363323129985824,0.001090830782496456,26.5625,18.6875,-33.875
1774557335.421014,0.0,0.0,0.0,-0.19144003802083892,-1.6688517950447592,9.700887534499811,-0.001090830782496456,0.004363323129985824,0.001090830782496456,26.5625,18.6875,-33.875
1774557335.4365563,0.0,0.0,0.0,-0.19430344092390897,-1.6658907707212578,9.700590644295215,-0.001090830782496456,0.001090830782496456,0.003272492347489368,26.5625,18.6875,-33.875
1774557335.4489818,0.0,0.0,0.0,-0.19430344092390897,-1.6658907707212578,9.700590644295215,-0.001090830782496456,0.001090830782496456,0.003272492347489368,26.5625,18.6875,-33.875
1774557335.4610093,0.0,0.0,0.0,-0.20624433869155398,-1.6706104655254153,9.700393067180537,-0.001090830782496456,0.0,-0.001090830782496456,26.5625,18.6875,-33.875
1774557335.47229,0.0,0.0,0.0,-0.20624433869155398,-1.6706104655254153,9.700393067180537,-0.001090830782496456,0.0,-0.001090830782496456,26.5625,18.6875,-33.875
1774557335.4840963,60.944068822556915,1.3984228481232566,-9.896792344472377,-0.21419087276735368,-1.6737513696951365,9.700261581817799,0.001090830782496456,-0.001090830782496456,0.001090830782496456,26.5625,18.6875,-33.875
1774557335.4976473,60.944068822556915,1.3984228481232566,-9.896792344472377,-0.21419087276735368,-1.6737513696951365,9.700261581817799,0.001090830782496456,-0.001090830782496456,0.001090830782496456,26.5625,18.6875,-33.875
1774557335.664185,60.944068822556915,1.3984228481232566,-9.896792344472377,-0.21419087276735368,-1.6737513696951365,9.700261581817799,0.001090830782496456,-0.001090830782496456,0.001090830782496456,26.5625,18.6875,-33.875
1774557335.6753936,0.0,0.0,0.0,-0.2127889790115576,-1.6758416063338875,9.700174079777685,0.0,0.0,0.0,27.0,19.75,-33.0625
1774557335.6870255,0.0,0.0,0.0,-0.2127889790115576,-1.6758416063338875,9.700174079777685,0.0,0.0,0.0,27.0,19.75,-33.0625
1774557335.6981874,0.0,0.0,0.0,-0.2051658109626159,-1.667197300345545,9.680045177903535,0.0,0.001090830782496456,0.0,27.0,19.75,-33.0625
1774557335.7113419,0.0,0.0,0.0,-0.2051658109626159,-1.667197300345545,9.680045177903535,0.0,0.001090830782496456,0.0,27.0,19.75,-33.0625
1774557335.7229261,0.0,0.0,0.0,-0.200092677782412,-1.661444611273528,9.666649618560855,0.0,0.0,0.001090830782496456,27.0,19.75,-33.0625
1774557335.73531,0.0,0.0,0.0,-0.200092677782412,-1.661444611273528,9.666649618560855,0.0,0.0,0.001090830782496456,27.0,19.75,-33.0625
1774557335.7465892,60.944068822556915,1.3984228481232566,-9.896792344472377,-0.20006167602891653,-1.6609613726651675,9.6744605819931,0.0,0.002181661564992912,-0.001090830782496456,27.0,19.75,-33.0625
1774557335.7602866,60.944068822556915,1.3984228481232566,-9.896792344472377,-0.20673126812291634,-1.6706751178913908,9.68969402602504,-0.001090830782496456,0.003272492347489368,-0.001090830782496456,27.0,19.75,-33.0625
1774557335.9383075,60.944068822556915,1.3984228481232566,-9.896792344472377,-0.20673126812291634,-1.6706751178913908,9.68969402602504,-0.001090830782496456,0.003272492347489368,-0.001090830782496456,27.0,19.75,-33.0625
1774557335.9500906,0.0,0.0,0.0,-0.21116980715724779,-1.6671041717078403,9.689796377737617,0.0,0.0,0.0,26.5625,19.375,-33.875
1774557335.962105,0.0,0.0,0.0,-0.21116980715724779,-1.6671041717078403,9.689796377737617,0.0,0.0,0.0,26.5625,19.375,-33.875
1774557335.9741204,0.0,0.0,0.0,-0.217468717010185,-1.66472774691277,9.663103598000438,0.0,0.0,-0.003272492347489368,26.5625,19.375,-33.875
1774557335.9868436,0.0,0.0,0.0,-0.217468717010185,-1.66472774691277,9.663103598000438,0.0,0.0,-0.003272492347489368,26.5625,19.375,-33.875
1774557335.9993796,0.0,0.0,0.0,-0.2116252360319231,-1.663146262758055,9.645339851263232,0.0,0.001090830782496456,0.002181661564992912,26.5625,19.375,-33.875
1774557336.011434,60.944068822556915,1.3984228481232566,-9.896792344472377,-0.2077364647168494,-1.6654389144267472,9.66362428160955,-0.001090830782496456,0.002181661564992912,-0.003272492347489368,26.5625,19.375,-33.875
1774557336.024492,60.944068822556915,1.3984228481232566,-9.896792344472377,-0.2077364647168494,-1.6654389144267472,9.66362428160955,-0.001090830782496456,0.002181661564992912,-0.003272492347489368,26.5625,19.375,-33.875
1774557336.0360355,60.944068822556915,1.3984228481232566,-9.896792344472377,-0.20514853084708978,-1.6703097602089838,9.689172812583832,0.001090830782496456,0.0,0.004363323129985824,26.5625,19.375,-33.875
1774557336.2131464,60.944068822556915,1.3984228481232566,-9.896792344472377,-0.20514853084708978,-1.6703097602089838,9.689172812583832,0.001090830782496456,0.0,0.004363323129985824,26.5625,19.375,-33.875
1774557336.2245185,0.0,0.0,0.0,-0.20342628976588029,-1.6702061419588305,9.692794627722149,0.0,0.0,0.0,27.375,19.375,-33.5
1774557336.2356815,0.0,0.0,0.0,-0.20342628976588029,-1.6702061419588305,9.692794627722149,0.0,0.0,0.0,27.375,19.375,-33.5
1774557336.249627,0.0,0.0,0.0,-0.2056252692723482,-1.676827408585484,9.695204905238374,-0.001090830782496456,0.001090830782496456,0.001090830782496456,27.375,19.375,-33.5
1774557336.261247,0.0,0.0,0.0,-0.2056252692723482,-1.676827408585484,9.695204905238374,-0.001090830782496456,0.001090830782496456,0.001090830782496456,27.375,19.375,-33.5
1774557336.2726781,0.0,0.0,0.0,-0.21043377727701137,-1.6711984524391692,9.680083359464259,0.0,0.002181661564992912,-0.001090830782496456,27.375,19.375,-33.5
1774557336.2858858,60.944068822556915,1.3984228481232566,-9.896792344472377,-0.21363378563956076,-1.677487780125315,9.686745698206916,0.0,0.0,0.002181661564992912,27.375,19.375,-33.5
1774557336.2975464,60.944068822556915,1.3984228481232566,-9.896792344472377,-0.21363378563956076,-1.677487780125315,9.686745698206916,0.0,0.0,0.002181661564992912,27.375,19.375,-33.5
1774557336.3102686,60.944068822556915,1.3984228481232566,-9.896792344472377,-0.21576335545840178,-1.6816732574440512,9.694524521924276,0.0,0.001090830782496456,0.0,27.375,19.375,-33.5
1774557336.4837985,60.944068822556915,1.3984228481232566,-9.896792344472377,-0.21576335545840178,-1.6816732574440512,9.694524521924276,0.0,0.001090830782496456,0.0,27.375,19.375,-33.5
1774557336.4976501,0.0,0.0,0.0,-0.21718056038398686,-1.684458645844825,9.699701242213022,0.0,0.0,0.004363323129985824,25.875,19.0625,-32.6875
1774557336.511042,0.0,0.0,0.0,-0.21718056038398686,-1.684458645844825,9.699701242213022,0.0,0.0,0.004363323129985824,25.875,19.0625,-32.6875
1774557336.523986,0.0,0.0,0.0,-0.20808835930878927,-1.679622067296074,9.683075621493513,-0.001090830782496456,0.003272492347489368,0.0,25.875,19.0625,-32.6875
1774557336.5357296,0.0,0.0,0.0,-0.20808835930878927,-1.679622067296074,9.683075621493513,-0.001090830782496456,0.003272492347489368,0.0,25.875,19.0625,-32.6875
1774557336.5468981,0.0,0.0,0.0,-0.20203760105978621,-1.6764033783000027,9.672011456625032,-0.001090830782496456,0.002181661564992912,0.0,25.875,19.0625,-32.6875
1774557336.5583286,0.0,0.0,0.0,-0.20203760105978621,-1.6764033783000027,9.672011456625032,-0.001090830782496456,0.002181661564992912,0.0,25.875,19.0625,-32.6875
1774557336.570804,60.944068822556915,1.3984228481232566,-9.896792344472377,-0.20804622415843127,-1.6776064884355486,9.681373937036474,0.001090830782496456,0.0,0.001090830782496456,25.875,19.0625,-32.6875
1774557336.5840678,60.944068822556915,1.3984228481232566,-9.896792344472377,-0.2120448957098616,-1.6850973682057724,9.700985009993808,0.0,0.002181661564992912,0.001090830782496456,25.875,19.0625,-32.6875
1774557336.7589746,60.944068822556915,1.3984228481232566,-9.896792344472377,-0.2120448957098616,-1.6850973682057724,9.700985009993808,0.0,0.002181661564992912,0.001090830782496456,25.875,19.0625,-32.6875
1774557336.7700636,0.0,0.0,0.0,-0.21470596695925045,-1.6833922415996077,9.700655513147597,0.0,0.0,0.0,26.25,18.6875,-32.25
1774557336.7809656,0.0,0.0,0.0,-0.21470596695925045,-1.6833922415996077,9.700655513147597,0.0,0.0,0.0,26.25,18.6875,-32.25
1774557336.792324,0.0,0.0,0.0,-0.206441545027647,-1.6856026105980366,9.693746013262524,-0.001090830782496456,0.001090830782496456,0.001090830782496456,26.25,18.6875,-32.25
1774557336.8054504,0.0,0.0,0.0,-0.206441545027647,-1.6856026105980366,9.693746013262524,-0.001090830782496456,0.001090830782496456,0.001090830782496456,26.25,18.6875,-32.25
1774557336.8185449,0.0,0.0,0.0,-0.20094166455180693,-1.6870735864750517,9.689147818273181,0.0,0.001090830782496456,0.001090830782496456,26.25,18.6875,-32.25
1774557336.8327096,60.944068822556915,1.3984228481232566,-9.896792344472377,-0.19728155553282584,-1.688052504489328,9.689432882580295,0.0,-0.001090830782496456,0.0,26.25,18.6875,-32.25
1774557336.8443246,60.944068822556915,1.3984228481232566,-9.896792344472377,-0.19728155553282584,-1.688052504489328,9.689432882580295,0.0,-0.001090830782496456,0.0,26.25,18.6875,-32.25
1774557336.85613,60.944068822556915,1.3984228481232566,-9.896792344472377,-0.19484579386679066,-1.6853588517852787,9.689622589692302,-0.001090830782496456,0.002181661564992912,0.001090830782496456,26.25,18.6875,-32.25
1774557337.0310872,60.944068822556915,1.3984228481232566,-9.896792344472377,-0.19484579386679066,-1.6853588517852787,9.689622589692302,-0.001090830782496456,0.002181661564992912,0.001090830782496456,26.25,18.6875,-32.25
1774557337.0431051,0.0,0.0,0.0,-0.19322482168728486,-1.6802211442934867,9.689748837656177,0.0,0.0,0.0,25.875,18.6875,-33.0625
1774557337.0548418,0.0,0.0,0.0,-0.19322482168728486,-1.6802211442934867,9.689748837656177,0.0,0.0,0.0,25.875,18.6875,-33.0625
1774557337.0684118,0.0,0.0,0.0,-0.19883630622390822,-1.6768020573496523,9.693177965973172,0.001090830782496456,0.001090830782496456,0.0,25.875,18.6875,-33.0625
1774557337.0798328,0.0,0.0,0.0,-0.19883630622390822,-1.6768020573496523,9.693177965973172,0.001090830782496456,0.001090830782496456,0.0,25.875,18.6875,-33.0625
1774557337.0913935,0.0,0.0,0.0,-0.2126060216205997,-1.671181581474915,9.69546001256226,0.0,0.003272492347489368,0.0,25.875,18.6875,-33.0625
1774557337.1027837,0.0,0.0,0.0,-0.2126060216205997,-1.671181581474915,9.69546001256226,0.0,0.003272492347489368,0.0,25.875,18.6875,-33.0625
1774557337.115181,60.944068822556915,1.3984228481232566,-9.896792344472377,-0.2217696133992983,-1.680821664394384,9.700323800782487,-0.001090830782496456,0.001090830782496456,0.0,25.875,18.6875,-33.0625
1774557337.1281025,60.944068822556915,1.3984228481232566,-9.896792344472377,-0.2217696133992983,-1.680821664394384,9.700323800782487,-0.001090830782496456,0.001090830782496456,0.0,25.875,18.6875,-33.0625
1774557337.2982576,60.944068822556915,1.3984228481232566,-9.896792344472377,-0.2217696133992983,-1.680821664394384,9.700323800782487,-0.001090830782496456,0.001090830782496456,0.0,25.875,18.6875,-33.0625
1774557337.3100927,0.0,0.0,0.0,-0.2211776579493561,-1.6738565850612313,9.703560597510974,0.002181661564992912,0.004363323129985824,-0.003272492347489368,27.0,18.6875,-33.0625
1774557337.3214548,0.0,0.0,0.0,-0.2211776579493561,-1.6738565850612313,9.703560597510974,0.002181661564992912,0.004363323129985824,-0.003272492347489368,27.0,18.6875,-33.0625
1774557337.332937,0.0,0.0,0.0,-0.21409349479535644,-1.6826018493993296,9.695679314454434,-0.001090830782496456,0.003272492347489368,0.0,27.0,18.6875,-33.0625
1774557337.3458164,0.0,0.0,0.0,-0.21409349479535644,-1.6826018493993296,9.695679314454434,-0.001090830782496456,0.003272492347489368,0.0,27.0,18.6875,-33.0625
1774557337.357512,0.0,0.0,0.0,-0.2093790633516573,-1.685076613418011,9.690434408620007,-0.001090830782496456,0.001090830782496456,0.001090830782496456,27.0,18.6875,-33.0625
1774557337.3691983,0.0,0.0,0.0,-0.2093790633516573,-1.685076613418011,9.690434408620007,-0.001090830782496456,0.001090830782496456,0.001090830782496456,27.0,18.6875,-33.0625
1774557337.3807435,60.944068822556915,1.3984228481232566,-9.896792344472377,-0.20958677359684477,-1.686723541227518,9.686943982376633,-0.002181661564992912,0.002181661564992912,0.002181661564992912,27.0,18.6875,-33.0625
1774557337.392337,60.944068822556915,1.3984228481232566,-9.896792344472377,-0.21307011415206095,-1.6844744415800366,9.691311366116922,-0.001090830782496456,0.004363323129985824,-0.001090830782496456,27.0,18.6875,-33.0625
1774557337.5701022,60.944068822556915,1.3984228481232566,-9.896792344472377,-0.21307011415206095,-1.6844744415800366,9.691311366116922,-0.001090830782496456,0.004363323129985824,-0.001090830782496456,27.0,18.6875,-33.0625
1774557337.5816991,0.0,0.0,0.0,-0.21538823838009374,-1.6796325791814075,9.694217811209212,0.0,0.0,0.0,26.5625,19.375,-32.25
1774557337.5932527,0.0,0.0,0.0,-0.21538823838009374,-1.6796325791814075,9.694217811209212,0.0,0.0,0.0,26.5625,19.375,-32.25
1774557337.6043718,0.0,0.0,0.0,-0.2202760358660246,-1.6764103738422669,9.672736235999777,-0.002181661564992912,0.004363323129985824,0.0,26.5625,19.375,-32.25
1774557337.6164806,0.0,0.0,0.0,-0.2202760358660246,-1.6764103738422669,9.672736235999777,-0.002181661564992912,0.004363323129985824,0.0,26.5625,19.375,-32.25
1774557337.6290655,0.0,0.0,0.0,-0.21683858707799733,-1.6742660321834608,9.658440487662816,0.0,0.001090830782496456,-0.002181661564992912,26.5625,19.375,-32.25
1774557337.6413543,0.0,0.0,0.0,-0.21683858707799733,-1.6742660321834608,9.658440487662816,0.0,0.001090830782496456,-0.002181661564992912,26.5625,19.375,-32.25
1774557337.6531944,60.944068822556915,1.3984228481232566,-9.896792344472377,-0.21455100330838414,-1.6795292201780299,9.682377943911733,0.0,0.004363323129985824,0.0,26.5625,19.375,-32.25
1774557337.6655533,60.944068822556915,1.3984228481232566,-9.896792344472377,-0.20633841844905287,-1.6830318129947535,9.698308053646482,-0.001090830782496456,0.00545415391248228,-0.001090830782496456,26.5625,19.375,-32.25
1774557337.8421745,60.944068822556915,1.3984228481232566,-9.896792344472377,-0.20633841844905287,-1.6830318129947535,9.698308053646482,-0.001090830782496456,0.00545415391248228,-0.001090830782496456,26.5625,19.375,-32.25
1774557337.8533223,0.0,0.0,0.0,-0.19752792325843252,-1.682017637680438,9.688838693480054,0.0,0.0,0.0,27.6875,19.6875,-35.0625
1774557337.8648167,0.0,0.0,0.0,-0.19752792325843252,-1.682017637680438,9.688838693480054,0.0,0.0,0.0,27.6875,19.6875,-35.0625
1774557337.8782752,0.0,0.0,0.0,-0.19166463712875467,-1.681342715337842,9.682536940068982,-0.001090830782496456,0.003272492347489368,0.0,27.6875,19.6875,-35.0625
1774557337.8899798,0.0,0.0,0.0,-0.19166463712875467,-1.681342715337842,9.682536940068982,-0.001090830782496456,0.003272492347489368,0.0,27.6875,19.6875,-35.0625
1774557337.9032614,0.0,0.0,0.0,-0.20114313253592925,-1.6808935620582206,9.67834319356911,0.0,-0.002181661564992912,0.0,27.6875,19.6875,-35.0625
1774557337.9150867,60.944068822556915,1.3984228481232566,-9.896792344472377,-0.20745096534767254,-1.6805946555680036,9.692277860657262,-0.002181661564992912,0.0,-0.001090830782496456,27.6875,19.6875,-35.0625
1774557337.9269855,60.944068822556915,1.3984228481232566,-9.896792344472377,-0.20745096534767254,-1.6805946555680036,9.692277860657262,-0.002181661564992912,0.0,-0.001090830782496456,27.6875,19.6875,-35.0625
1774557337.9424255,60.944068822556915,1.3984228481232566,-9.896792344472377,-0.21164875762077826,-1.6803957366377684,9.701551225943994,-0.002181661564992912,0.004363323129985824,-0.001090830782496456,27.6875,19.6875,-35.0625
1774557338.1187298,60.944068822556915,1.3984228481232566,-9.896792344472377,-0.21164875762077826,-1.6803957366377684,9.701551225943994,-0.002181661564992912,0.004363323129985824,-0.001090830782496456,27.6875,19.6875,-35.0625
1774557338.1311252,0.0,0.0,0.0,-0.2144423414861179,-1.680263358311767,9.69434210012276,0.001090830782496456,0.002181661564992912,-0.003272492347489368,27.375,20.5,-31.5
1774557338.1427796,0.0,0.0,0.0,-0.2144423414861179,-1.680263358311767,9.69434210012276,0.001090830782496456,0.002181661564992912,-0.003272492347489368,27.375,20.5,-31.5
1774557338.1563141,0.0,0.0,0.0,-0.20961121692748616,-1.6768301503072565,9.68954450741994,0.0,0.002181661564992912,-0.001090830782496456,27.375,20.5,-31.5
1774557338.1695447,0.0,0.0,0.0,-0.20639615750091414,-1.674545388731701,9.683006651361517,-0.001090830782496456,0.002181661564992912,0.001090830782496456,27.375,20.5,-31.5
1774557338.1812813,0.0,0.0,0.0,-0.20639615750091414,-1.674545388731701,9.683006651361517,-0.001090830782496456,0.002181661564992912,0.001090830782496456,27.375,20.5,-31.5
1774557338.197406,60.944068822556915,1.3984228481232566,-9.896792344472377,-0.2042565713670975,-1.6763700171329472,9.69538133972387,0.0,0.001090830782496456,0.001090830782496456,27.375,20.0625,-33.5
1774557338.2087948,60.944068822556915,1.3984228481232566,-9.896792344472377,-0.20617781240310504,-1.6809293986588614,9.71030678000933,0.0,0.003272492347489368,0.001090830782496456,27.375,20.0625,-33.5
1774557338.3979678,60.944068822556915,1.3984228481232566,-9.896792344472377,-0.20617781240310504,-1.6809293986588614,9.71030678000933,0.0,0.003272492347489368,0.001090830782496456,27.375,20.0625,-33.5
1774557338.4101949,0.0,0.0,0.0,-0.20411126514358008,-1.6839636161327283,9.72023949379121,0.0,0.0,0.0,27.6875,19.375,-34.25
1774557338.4215457,0.0,0.0,0.0,-0.20411126514358008,-1.6839636161327283,9.72023949379121,0.0,0.0,0.0,27.6875,19.375,-34.25
1774557338.43733,0.0,0.0,0.0,-0.19939088931989232,-1.6826377422598373,9.706778933613451,0.0,0.003272492347489368,0.0,27.6875,19.375,-34.25
1774557338.4483905,0.0,0.0,0.0,-0.19624953193928107,-1.68175538800841,9.697821081179463,0.0,0.001090830782496456,-0.002181661564992912,27.6875,19.375,-34.25
1774557338.4595819,0.0,0.0,0.0,-0.19624953193928107,-1.68175538800841,9.697821081179463,0.0,0.001090830782496456,-0.002181661564992912,27.6875,19.375,-34.25
1774557338.4727628,60.944068822556915,1.3984228481232566,-9.896792344472377,-0.19750410540106492,-1.6845133028179473,9.711930400694328,-0.001090830782496456,-0.001090830782496456,0.002181661564992912,27.6875,19.375,-34.25
1774557338.4847534,60.944068822556915,1.3984228481232566,-9.896792344472377,-0.19750410540106492,-1.6845133028179473,9.711930400694328,-0.001090830782496456,-0.001090830782496456,0.002181661564992912,27.6875,19.375,-34.25
1774557338.497462,60.944068822556915,1.3984228481232566,-9.896792344472377,-0.1983390100253782,-1.6863486643157675,9.721319995220044,-0.001090830782496456,0.003272492347489368,0.002181661564992912,27.6875,19.375,-34.25
1774557338.6669228,60.944068822556915,1.3984228481232566,-9.896792344472377,-0.1983390100253782,-1.6863486643157675,9.721319995220044,-0.001090830782496456,0.003272492347489368,0.002181661564992912,27.6875,19.375,-34.25
1774557338.6783614,0.0,0.0,0.0,-0.19889462972636296,-1.6775347417682773,9.714188218658988,0.0,0.0,0.0,26.25,19.6875,-34.6875
1774557338.6893802,0.0,0.0,0.0,-0.19889462972636296,-1.6775347417682773,9.714188218658988,0.0,0.0,0.0,26.25,19.6875,-34.6875
1774557338.7018301,0.0,0.0,0.0,-0.19926438843068958,-1.6716691747708887,9.70275187761013,-0.001090830782496456,0.004363323129985824,-0.001090830782496456,26.25,19.6875,-34.6875
1774557338.714556,0.0,0.0,0.0,-0.19926438843068958,-1.6716691747708887,9.70275187761013,-0.001090830782496456,0.004363323129985824,-0.001090830782496456,26.25,19.6875,-34.6875
1774557338.7269886,0.0,0.0,0.0,-0.19951045871794357,-1.6744559288714418,9.688450896979777,-0.001090830782496456,0.002181661564992912,-0.002181661564992912,26.25,19.6875,-34.6875
1774557338.7392366,0.0,0.0,0.0,-0.19951045871794357,-1.6744559288714418,9.688450896979777,-0.001090830782496456,0.002181661564992912,-0.002181661564992912,26.25,19.6875,-34.6875
1774557338.7512214,60.944068822556915,1.3984228481232566,-9.896792344472377,-0.19967421574532587,-1.6796555943025964,9.685623977537336,-0.001090830782496456,0.001090830782496456,-0.001090830782496456,26.25,19.6875,-34.6875
1774557338.762844,60.944068822556915,1.3984228481232566,-9.896792344472377,-0.19978319421776294,-1.683115913562961,9.683742694227151,-0.001090830782496456,0.002181661564992912,0.0,26.25,19.6875,-34.6875
1774557338.938991,60.944068822556915,1.3984228481232566,-9.896792344472377,-0.19978319421776294,-1.683115913562961,9.683742694227151,-0.001090830782496456,0.002181661564992912,0.0,26.25,19.6875,-34.6875
1774557338.951066,0.0,0.0,0.0,-0.19985571817380052,-1.6854187173764348,9.682490721199535,0.0,0.0,0.0,27.375,19.6875,-34.6875
1774557338.9630527,0.0,0.0,0.0,-0.19985571817380052,-1.6854187173764348,9.682490721199535,0.0,0.0,0.0,27.375,19.6875,-34.6875
1774557338.9789126,0.0,0.0,0.0,-0.20324909376371722,-1.6802609841756586,9.674967323720473,0.0,0.001090830782496456,-0.001090830782496456,27.375,19.6875,-34.6875
1774557338.9907296,0.0,0.0,0.0,-0.20324909376371722,-1.6802609841756586,9.674967323720473,0.0,0.001090830782496456,-0.001090830782496456,27.375,19.6875,-34.6875
1774557339.0021625,0.0,0.0,0.0,-0.2055073473123177,-1.6768285703461971,9.669960586740014,0.0,0.002181661564992912,0.0,27.375,19.6875,-34.6875
1774557339.0140867,0.0,0.0,0.0,-0.2055073473123177,-1.6768285703461971,9.669960586740014,0.0,0.002181661564992912,0.0,27.375,19.6875,-34.6875
1774557339.025245,60.944068822556915,1.3984228481232566,-9.896792344472377,-0.2070101898225663,-1.6745443372852653,9.693389552866991,-0.001090830782496456,0.0,0.001090830782496456,27.375,19.6875,-34.6875
1774557339.036395,60.944068822556915,1.3984228481232566,-9.896792344472377,-0.2070101898225663,-1.6745443372852653,9.693389552866991,-0.001090830782496456,0.0,0.001090830782496456,27.375,19.6875,-34.6875
1774557339.2091928,60.944068822556915,1.3984228481232566,-9.896792344472377,-0.2070101898225663,-1.6745443372852653,9.693389552866991,-0.001090830782496456,0.0,0.001090830782496456,27.375,19.6875,-34.6875
1774557339.2208304,0.0,0.0,0.0,-0.20801031472528592,-1.6730242056997704,9.708981268105793,0.0,0.0,0.0,27.0,19.0625,-34.25
1774557339.2326217,0.0,0.0,0.0,-0.20801031472528592,-1.6730242056997704,9.708981268105793,0.0,0.0,0.0,27.0,19.0625,-34.25
1774557339.2460952,0.0,0.0,0.0,-0.20533077496859925,-1.672012575110606,9.68925137506047,-0.002181661564992912,0.001090830782496456,-0.002181661564992912,27.0,19.0625,-34.25
1774557339.2577016,0.0,0.0,0.0,-0.20533077496859925,-1.672012575110606,9.68925137506047,-0.002181661564992912,0.001090830782496456,-0.002181661564992912,27.0,19.0625,-34.25
1774557339.2709658,0.0,0.0,0.0,-0.20354757119294462,-1.6780295696688101,9.676121351636153,0.0,0.003272492347489368,0.0,27.0,19.0625,-34.25
1774557339.2826538,60.944068822556915,1.3984228481232566,-9.896792344472377,-0.20236086899993783,-1.6820338123330616,9.68410902625584,0.0,-0.001090830782496456,0.0,27.0,19.0625,-34.25
1774557339.2937222,60.944068822556915,1.3984228481232566,-9.896792344472377,-0.20236086899993783,-1.6820338123330616,9.68410902625584,0.0,-0.001090830782496456,0.0,27.0,19.0625,-34.25
1774557339.3062034,60.944068822556915,1.3984228481232566,-9.896792344472377,-0.21160646706878203,-1.6780083676811608,9.696114957901708,-0.001090830782496456,0.002181661564992912,-0.001090830782496456,27.0,19.0625,-34.25
1774557339.4806094,60.944068822556915,1.3984228481232566,-9.896792344472377,-0.21160646706878203,-1.6780083676811608,9.696114957901708,-0.001090830782496456,0.002181661564992912,-0.001090830782496456,27.0,19.0625,-34.25
1774557339.492028,0.0,0.0,0.0,-0.20772397418154206,-1.6753294792324838,9.697414547882351,0.0,0.0,0.0,27.375,18.6875,-34.6875
1774557339.5031526,0.0,0.0,0.0,-0.20772397418154206,-1.6753294792324838,9.697414547882351,0.0,0.0,0.0,27.375,18.6875,-34.6875
1774557339.5141413,0.0,0.0,0.0,-0.20514021853537118,-1.673546708895034,9.68824407537514,0.001090830782496456,0.003272492347489368,0.0,27.375,18.6875,-34.6875
1774557339.526944,0.0,0.0,0.0,-0.20514021853537118,-1.673546708895034,9.68824407537514,0.001090830782496456,0.003272492347489368,0.0,27.375,18.6875,-34.6875
1774557339.5394108,0.0,0.0,0.0,-0.20342075801528617,-1.6790505185649496,9.68214122836248,0.0,-0.001090830782496456,0.002181661564992912,27.375,18.6875,-34.6875
1774557339.551148,0.0,0.0,0.0,-0.20342075801528617,-1.6790505185649496,9.68214122836248,0.0,-0.001090830782496456,0.002181661564992912,27.375,18.6875,-34.6875
1774557339.5636506,60.944068822556915,1.3984228481232566,-9.896792344472377,-0.20227647624680214,-1.682713242418696,9.691460298678102,0.0,0.001090830782496456,0.0,27.375,18.6875,-34.6875
1774557339.5753007,60.944068822556915,1.3984228481232566,-9.896792344472377,-0.2015149695123409,-1.6851507442280578,9.69766203587231,-0.001090830782496456,0.002181661564992912,0.0,27.375,18.6875,-34.6875
1774557339.7517712,60.944068822556915,1.3984228481232566,-9.896792344472377,-0.2015149695123409,-1.6851507442280578,9.69766203587231,-0.001090830782496456,0.002181661564992912,0.0,27.375,18.6875,-34.6875
1774557339.7635393,0.0,0.0,0.0,-0.19766308357982518,-1.68008265103887,9.695098999282473,0.0,0.0,0.0,26.5625,19.0625,-33.0625
1774557339.7765913,0.0,0.0,0.0,-0.19766308357982518,-1.68008265103887,9.695098999282473,0.0,0.0,0.0,26.5625,19.0625,-33.0625
1774557339.7877784,0.0,0.0,0.0,-0.19844480822744054,-1.6767098916357759,9.683357991940975,-0.002181661564992912,0.003272492347489368,-0.002181661564992912,26.5625,19.0625,-33.0625
1774557339.7989254,0.0,0.0,0.0,-0.19844480822744054,-1.6767098916357759,9.683357991940975,-0.002181661564992912,0.003272492347489368,-0.002181661564992912,26.5625,19.0625,-33.0625
1774557339.8115942,0.0,0.0,0.0,-0.20565526066263085,-1.6778104696365275,9.675544482710853,0.0,-0.001090830782496456,0.002181661564992912,26.5625,19.0625,-33.0625
1774557339.8253114,0.0,0.0,0.0,-0.20565526066263085,-1.6778104696365275,9.675544482710853,0.0,-0.001090830782496456,0.002181661564992912,26.5625,19.0625,-33.0625
1774557339.8367908,60.944068822556915,1.3984228481232566,-9.896792344472377,-0.2104537362122187,-1.6785428920017658,9.687070238137421,-0.001090830782496456,-0.002181661564992912,0.004363323129985824,26.5625,19.0625,-33.0625
1774557339.848219,60.944068822556915,1.3984228481232566,-9.896792344472377,-0.21364706808798534,-1.6823754226114573,9.694740499622677,-0.002181661564992912,0.00545415391248228,0.001090830782496456,26.5625,19.0625,-33.0625
1774557340.023677,60.944068822556915,1.3984228481232566,-9.896792344472377,-0.21364706808798534,-1.6823754226114573,9.694740499622677,-0.002181661564992912,0.00545415391248228,0.001090830782496456,26.5625,19.0625,-33.0625
1774557340.0390332,0.0,0.0,0.0,-0.20908197136481488,-1.6782357055053962,9.686464526129402,0.0,0.0,0.0,27.0,18.25,-34.25
1774557340.0518224,0.0,0.0,0.0,-0.20908197136481488,-1.6782357055053962,9.686464526129402,0.0,0.0,0.0,27.0,18.25,-34.25
1774557340.0637765,0.0,0.0,0.0,-0.20269883878369732,-1.6687905466003439,9.667576511389033,0.0,0.001090830782496456,-0.004363323129985824,27.0,18.25,-34.25
1774557340.0756085,0.0,0.0,0.0,-0.1951058236479072,-1.66250489885837,9.655006748572266,-0.002181661564992912,0.004363323129985824,-0.002181661564992912,27.0,18.25,-34.25
1774557340.0871644,0.0,0.0,0.0,-0.1951058236479072,-1.66250489885837,9.655006748572266,-0.002181661564992912,0.004363323129985824,-0.002181661564992912,27.0,18.25,-34.25
1774557340.0987303,60.944068822556915,1.3984228481232566,-9.896792344472377,-0.19339786860189495,-1.6951180992818853,9.666712382075074,-0.002181661564992912,0.001090830782496456,-0.003272492347489368,27.0,18.25,-34.25
1774557340.1097448,60.944068822556915,1.3984228481232566,-9.896792344472377,-0.19339786860189495,-1.6951180992818853,9.666712382075074,-0.002181661564992912,0.001090830782496456,-0.003272492347489368,27.0,18.25,-34.25
1774557340.121878,60.944068822556915,1.3984228481232566,-9.896792344472377,-0.21567702554911747,-1.7168218198504153,9.674502350410698,0.001090830782496456,0.001090830782496456,0.001090830782496456,27.0,18.25,-34.25
1774557340.2940984,60.944068822556915,1.3984228481232566,-9.896792344472377,-0.21567702554911747,-1.7168218198504153,9.674502350410698,0.001090830782496456,0.001090830782496456,0.001090830782496456,27.0,18.25,-34.25
1774557340.3056316,0.0,0.0,0.0,-0.23050355562300398,-1.6944691746618141,9.679686487318408,0.0,0.0,0.0,27.0,19.0625,-34.25
1774557340.3181176,0.0,0.0,0.0,-0.23050355562300398,-1.6944691746618141,9.679686487318408,0.0,0.0,0.0,27.0,19.0625,-34.25
1774557340.3347208,0.0,0.0,0.0,-0.23033511064202428,-1.6795937389842077,9.616234238373499,0.004363323129985824,-0.004363323129985824,0.01090830782496456,27.0,19.0625,-34.25
1774557340.3463948,0.0,0.0,0.0,-0.230223012388836,-1.686419861246862,9.574007475508726,-0.001090830782496456,0.0,0.008726646259971648,27.0,19.0625,-34.25
1774557340.3585293,0.0,0.0,0.0,-0.230223012388836,-1.686419861246862,9.574007475508726,-0.001090830782496456,0.0,0.008726646259971648,27.0,19.0625,-34.25
1774557340.3702939,60.95317492438152,1.398986079662321,-9.897021603969543,-0.2334935239608781,-1.6909625693598762,9.612808270672454,0.003272492347489368,0.0,0.002181661564992912,27.0,19.0625,-34.25
1774557340.3822353,60.95317492438152,1.398986079662321,-9.897021603969543,-0.2334935239608781,-1.6909625693598762,9.612808270672454,0.003272492347489368,0.0,0.002181661564992912,27.0,19.0625,-34.25
1774557340.5635417,60.95317492438152,1.398986079662321,-9.897021603969543,-0.23567001287806408,-1.6906405791563932,9.641974878127954,-0.001090830782496456,0.001090830782496456,0.0,27.0,19.0625,-34.25
1774557340.5751748,60.95317492438152,1.398986079662321,-9.897021603969543,-0.23567001287806408,-1.6906405791563932,9.641974878127954,-0.001090830782496456,0.001090830782496456,0.0,27.0,19.0625,-34.25
1774557340.5912333,0.0,0.0,0.0,-0.20701243657360263,-1.667010516321606,9.658039817869916,0.003272492347489368,0.003272492347489368,0.007635815477475192,27.375,19.0625,-33.0625
1774557340.6039577,0.0,0.0,0.0,-0.18794113966908643,-1.6479398617628334,9.672075967518376,0.004363323129985824,-0.002181661564992912,0.00545415391248228,27.375,19.0625,-33.0625
1774557340.6160092,0.0,0.0,0.0,-0.18794113966908643,-1.6479398617628334,9.672075967518376,0.004363323129985824,-0.002181661564992912,0.00545415391248228,27.375,19.0625,-33.0625
1774557340.6278055,0.0,0.0,0.0,-0.2287711919365865,-1.6185229956505431,9.701487538559277,0.002181661564992912,-0.001090830782496456,-0.001090830782496456,27.375,19.0625,-33.0625
1774557340.639353,0.0,0.0,0.0,-0.2287711919365865,-1.6185229956505431,9.701487538559277,0.002181661564992912,-0.001090830782496456,-0.001090830782496456,27.375,19.0625,-33.0625
1774557340.6517074,60.944068822556915,1.3984228481232566,-9.896792344472377,-0.25594313561903886,-1.5989463998607398,9.72106061053822,0.0,0.006544984694978736,-0.01090830782496456,27.375,19.0625,-33.0625
1774557340.8361065,60.944068822556915,1.3984228481232566,-9.896792344472377,-0.2573002020726149,-1.5859183940475297,9.734086271294666,-0.002181661564992912,0.006544984694978736,-0.004363323129985824,27.375,19.0625,-33.0625
1774557340.848016,0.0,0.0,0.0,-0.23813264439412785,-1.5772484017111987,9.732719367899959,0.0,0.0,0.0,27.6875,19.6875,-34.6875
1774557340.8600254,0.0,0.0,0.0,-0.23813264439412785,-1.5772484017111987,9.732719367899959,0.0,0.0,0.0,27.6875,19.6875,-34.6875
1774557340.8735316,0.0,0.0,0.0,-0.22537684887474346,-1.614965070856683,9.678287921642983,0.002181661564992912,0.008726646259971648,0.04254240051736178,27.6875,19.6875,-34.6875
1774557340.8849952,0.0,0.0,0.0,-0.22537684887474346,-1.614965070856683,9.678287921642983,0.002181661564992912,0.008726646259971648,0.04254240051736178,27.6875,19.6875,-34.6875
1774557340.8966336,0.0,0.0,0.0,-0.21354289774084617,-1.5999237523623695,9.642064402198061,0.015271630954950384,-0.014180800172453928,0.09708393964218458,27.6875,19.6875,-34.6875
1774557340.9082873,0.0,0.0,0.0,-0.21354289774084617,-1.5999237523623695,9.642064402198061,0.015271630954950384,-0.014180800172453928,0.09708393964218458,27.6875,19.6875,-34.6875
1774557340.9197664,61.318311650377396,1.4161405803411558,-9.868527934999282,-0.20566753545513342,-1.5899139229269408,9.658099395138523,0.006544984694978736,-0.038179077387375956,0.21489366415180183,27.6875,19.6875,-34.6875
1774557340.931357,61.651761058147066,1.4163037009356731,-9.856658086465579,-0.20042656982755258,-1.459483360083967,9.725637402842223,0.00545415391248228,-0.05345070834232634,0.32070425005395803,27.6875,19.6875,-34.6875
1774557341.107036,61.651761058147066,1.4163037009356731,-9.856658086465579,-0.20042656982755258,-1.459483360083967,9.725637402842223,0.00545415391248228,-0.05345070834232634,0.32070425005395803,27.6875,19.6875,-34.6875
1774557341.1186924,0.0,0.0,0.0,-0.1701778720892646,-1.2990908199557956,9.770583192520053,0.0,0.0,0.0,26.25,19.375,-34.6875
1774557341.1314676,0.0,0.0,0.0,-0.1701778720892646,-1.2990908199557956,9.770583192520053,0.0,0.0,0.0,26.25,19.375,-34.6875
1774557341.143542,0.0,0.0,0.0,-0.17346348359576355,-1.2659438337635947,9.81721967200988,-0.11344640137963143,0.0719948316447661,0.5628686837681712,26.25,19.375,-34.6875
1774557341.1556063,0.0,0.0,0.0,-0.17346348359576355,-1.2659438337635947,9.81721967200988,-0.11344640137963143,0.0719948316447661,0.5628686837681712,26.25,19.375,-34.6875
1774557341.1677563,0.0,0.0,0.0,-0.1756500213506532,-1.4312111403386678,9.90177751546386,-0.11562806294462433,0.055632369907319255,0.5705044992456465,26.25,19.375,-34.6875
1774557341.180035,63.9511949819061,1.9872158997217018,-10.198989792515533,-0.1837953612159439,-1.557920245244196,9.968085150831437,-0.10144726277217041,0.03490658503988659,0.5672320068981571,26.25,19.375,-34.6875
1774557341.1920726,63.9511949819061,1.9872158997217018,-10.198989792515533,-0.1837953612159439,-1.557920245244196,9.968085150831437,-0.10144726277217041,0.03490658503988659,0.5672320068981571,26.25,19.375,-34.6875
1774557341.2043617,64.61789691637426,2.076470453742664,-10.25974164598661,-0.18921599390688668,-1.64224373912538,10.05904370536621,-0.07744898555724837,-0.016362461737446838,0.5901394533305827,26.25,19.375,-34.6875
1774557341.3766377,64.61789691637426,2.076470453742664,-10.25974164598661,-0.18921599390688668,-1.64224373912538,10.05904370536621,-0.07744898555724837,-0.016362461737446838,0.5901394533305827,26.25,19.375,-34.6875
1774557341.3884456,0.0,0.0,0.0,-0.18278802928831622,-1.658218741860329,10.119575607335474,0.0,0.0,0.0,23.0,23.75,-36.25
1774557341.4001384,0.0,0.0,0.0,-0.18278802928831622,-1.658218741860329,10.119575607335474,0.0,0.0,0.0,23.0,23.75,-36.25
1774557341.411614,0.0,0.0,0.0,-0.17851029063972726,-1.6688499277279643,9.855453746544303,-0.017453292519943295,-0.18871372537188688,1.016654289286697,23.0,23.75,-36.25
1774557341.4240482,0.0,0.0,0.0,-0.17851029063972726,-1.6688499277279643,9.855453746544303,-0.017453292519943295,-0.18871372537188688,1.016654289286697,23.0,23.75,-36.25
1774557341.4358418,0.0,0.0,0.0,-0.2526010726229089,-1.6859601982867063,9.672993375207646,-0.003272492347489368,-0.15707963267948966,1.0112001353742146,23.0,23.75,-36.25
1774557341.4471827,0.0,0.0,0.0,-0.2526010726229089,-1.6859601982867063,9.672993375207646,-0.003272492347489368,-0.15707963267948966,1.0112001353742146,23.0,23.75,-36.25
1774557341.4599497,68.92682604935518,2.1750368820453576,-10.166875181851433,-0.3387038891649648,-1.704037115623942,9.551568036298999,-0.006544984694978736,-0.14835298641951802,1.0221084431991792,23.0,23.75,-36.25
1774557341.4732835,70.12883221487577,2.243171275791152,-10.162302419708334,-0.40603968686417846,-1.7160671021794744,9.470760829665206,-0.04581489286485115,-0.1341721862470641,1.0831949670189809,23.0,23.75,-36.25
1774557341.6465304,70.12883221487577,2.243171275791152,-10.162302419708334,-0.40603968686417846,-1.7160671021794744,9.470760829665206,-0.04581489286485115,-0.1341721862470641,1.0831949670189809,23.0,23.75,-36.25
1774557341.659606,0.0,0.0,0.0,-0.4508509080428592,-1.7006571418971905,9.330011631935756,0.0,0.0,0.0,19.5625,27.875,-37.0625
1774557341.6718898,0.0,0.0,0.0,-0.4508509080428592,-1.7006571418971905,9.330011631935756,0.0,0.0,0.0,19.5625,27.875,-37.0625
1774557341.683701,0.0,0.0,0.0,-0.48736249857777036,-1.6904019854698662,9.236344613118366,0.016362461737446838,-0.15162547876700738,1.3231777391682011,19.5625,27.875,-37.0625
1774557341.6947932,0.0,0.0,0.0,-0.48736249857777036,-1.6904019854698662,9.236344613118366,0.016362461737446838,-0.15162547876700738,1.3231777391682011,19.5625,27.875,-37.0625
1774557341.7070317,0.0,0.0,0.0,-0.5116605542175633,-1.690267516839724,9.438274083302783,0.007635815477475192,-0.12871803233458182,1.3384493701231515,19.5625,27.875,-37.0625
1774557341.720274,75.86071876234736,2.710880756583271,-9.94383914357113,-0.5278306388187792,-1.7002133645904356,9.586036336839808,0.001090830782496456,-0.0916297857297023,1.3569934934255912,19.5625,27.875,-37.0625
1774557341.732813,75.86071876234736,2.710880756583271,-9.94383914357113,-0.5278306388187792,-1.7002133645904356,9.586036336839808,0.001090830782496456,-0.0916297857297023,1.3569934934255912,19.5625,27.875,-37.0625
1774557341.7455673,77.36794143018665,2.9176303158315524,-9.900616383144502,-0.538591649489208,-1.706832215166135,9.684370465956173,-0.02181661564992912,-0.061086523819801536,1.3700834628155487,19.5625,27.875,-37.0625
1774557341.9157681,77.36794143018665,2.9176303158315524,-9.900616383144502,-0.538591649489208,-1.706832215166135,9.684370465956173,-0.02181661564992912,-0.061086523819801536,1.3700834628155487,19.5625,27.875,-37.0625
1774557341.9285555,0.0,0.0,0.0,-0.5424078701746934,-1.7045467628722186,9.713014501638403,0.0,0.0,0.0,19.5625,34.875,-37.0625
1774557341.9417222,0.0,0.0,0.0,-0.5424078701746934,-1.7045467628722186,9.713014501638403,0.0,0.0,0.0,19.5625,34.875,-37.0625
1774557341.957326,0.0,0.0,0.0,-0.5282219638743086,-1.6127078038031688,9.574856537166074,-0.22143864884678055,0.009817477042468103,1.203186353093591,19.5625,34.875,-37.0625
1774557341.9733882,0.0,0.0,0.0,-0.5187814016983592,-1.5515900024511096,9.469533508306046,-0.17562375598192942,-0.013089969389957472,1.1737339219661866,19.5625,34.875,-37.0625
1774557341.9855394,0.0,0.0,0.0,-0.5187814016983592,-1.5515900024511096,9.469533508306046,-0.17562375598192942,-0.013089969389957472,1.1737339219661866,19.5625,34.875,-37.0625
1774557341.9973242,82.58753703943452,3.802949730729684,-10.340626977330901,-0.5124988130282543,-1.5109167883818897,9.412822655964298,-0.14835298641951802,-0.05781403147231216,1.160643952576229,19.5625,34.875,-37.0625
1774557342.0105803,82.58753703943452,3.802949730729684,-10.340626977330901,-0.5124988130282543,-1.5109167883818897,9.412822655964298,-0.14835298641951802,-0.05781403147231216,1.160643952576229,19.5625,34.875,-37.0625
1774557342.1855664,82.58753703943452,3.802949730729684,-10.340626977330901,-0.5124988130282543,-1.5109167883818897,9.412822655964298,-0.14835298641951802,-0.05781403147231216,1.160643952576229,19.5625,34.875,-37.0625
1774557342.1973593,0.0,0.0,0.0,-0.5083178204494133,-1.4503981016952014,9.361701770403316,0.0,0.0,0.0,19.5625,38.5625,-35.5
1774557342.2088194,0.0,0.0,0.0,-0.5083178204494133,-1.4503981016952014,9.361701770403316,0.0,0.0,0.0,19.5625,38.5625,-35.5
1774557342.2231872,0.0,0.0,0.0,-0.505535416592942,-1.4101235917432366,9.371167844315345,0.07308566242726255,-0.20616701789183017,0.8388488717397746,19.5625,38.5625,-35.5
1774557342.2353897,0.0,0.0,0.0,-0.505535416592942,-1.4101235917432366,9.371167844315345,0.07308566242726255,-0.20616701789183017,0.8388488717397746,19.5625,38.5625,-35.5
1774557342.2476761,0.0,0.0,0.0,-0.530444651566503,-1.3933566903879169,9.467785426858448,0.05345070834232634,-0.22252947962927702,0.8519388411297321,19.5625,38.5625,-35.5
1774557342.259242,87.79996247350685,3.745663626630403,-10.00750009972039,-0.55371169260166,-1.3989240633711089,9.538773572166408,0.0272707695624114,-0.2181661564992912,0.8464846872172498,19.5625,38.5625,-35.5
1774557342.2726066,87.79996247350685,3.745663626630403,-10.00750009972039,-0.55371169260166,-1.3989240633711089,9.538773572166408,0.0272707695624114,-0.2181661564992912,0.8464846872172498,19.5625,38.5625,-35.5
1774557342.2850354,88.72855670314142,3.6835992119079504,-9.87069306136258,-0.5825760953299561,-1.4427704283876246,9.586015389879313,0.055632369907319255,-0.20616701789183017,0.8246680715673207,19.5625,38.5625,-35.5
1774557342.457164,88.72855670314142,3.6835992119079504,-9.87069306136258,-0.5825760953299561,-1.4427704283876246,9.586015389879313,0.055632369907319255,-0.20616701789183017,0.8246680715673207,19.5625,38.5625,-35.5
1774557342.4685545,0.0,0.0,0.0,-0.6017850329091318,-1.4719496945101258,9.563932504524459,0.0,0.0,0.0,18.5,39.25,-32.0
1774557342.4797852,0.0,0.0,0.0,-0.6017850329091318,-1.4719496945101258,9.563932504524459,0.0,0.0,0.0,18.5,39.25,-32.0
1774557342.491671,0.0,0.0,0.0,-0.5811172492169868,-1.461262164795016,9.549236591002796,0.04145156973486533,0.04036073895236887,0.56941366846315,18.5,39.25,-32.0
1774557342.5040119,0.0,0.0,0.0,-0.5811172492169868,-1.461262164795016,9.549236591002796,0.04145156973486533,0.04036073895236887,0.56941366846315,18.5,39.25,-32.0
1774557342.5177946,0.0,0.0,0.0,-0.5673630700441357,-1.4541497331571398,9.683296428132973,0.032724923474893676,0.05781403147231216,0.5126904677733343,18.5,39.25,-32.0
1774557342.529639,91.12365435763616,4.183594215690465,-9.502175254892144,-0.56824515257081,-1.456106712767839,9.795927534147838,0.038179077387375956,0.055632369907319255,0.48105637508093707,18.5,39.25,-32.0
1774557342.5424073,91.12365435763616,4.183594215690465,-9.502175254892144,-0.56824515257081,-1.456106712767839,9.795927534147838,0.038179077387375956,0.055632369907319255,0.48105637508093707,18.5,39.25,-32.0
1774557342.5546784,91.58872646487379,4.295795138119726,-9.419220243988317,-0.5989381740046787,-1.5042406247403364,9.850811606784921,0.044724062082354694,0.030543261909900768,0.42215151282612845,18.5,39.25,-32.0
1774557342.729508,91.58872646487379,4.295795138119726,-9.419220243988317,-0.5989381740046787,-1.5042406247403364,9.850811606784921,0.044724062082354694,0.030543261909900768,0.42215151282612845,18.5,39.25,-32.0
1774557342.7413785,0.0,0.0,0.0,-0.6193640369054035,-1.5362732054670054,9.887336344029636,0.0,0.0,0.0,17.0,40.375,-29.0625
1774557342.7548847,0.0,0.0,0.0,-0.6193640369054035,-1.5362732054670054,9.887336344029636,0.0,0.0,0.0,17.0,40.375,-29.0625
1774557342.7668505,0.0,0.0,0.0,-0.6396474439086356,-1.56428075352787,9.824670244267642,-0.10471975511965978,-0.07308566242726255,0.22362031041177347,17.0,40.375,-29.0625
1774557342.778084,0.0,0.0,0.0,-0.6396474439086356,-1.56428075352787,9.824670244267642,-0.10471975511965978,-0.07308566242726255,0.22362031041177347,17.0,40.375,-29.0625
1774557342.790401,0.0,0.0,0.0,-0.6732164949327004,-1.6264059160927156,9.782966654902237,-0.09599310885968812,-0.06326818538479445,0.19744037163185854,17.0,40.375,-29.0625
1774557342.8020868,0.0,0.0,0.0,-0.6732164949327004,-1.6264059160927156,9.782966654902237,-0.09599310885968812,-0.06326818538479445,0.19744037163185854,17.0,40.375,-29.0625
1774557342.8134873,92.59948659885269,4.23745004718943,-9.692853601061477,-0.6955563233983452,-1.6677495177960826,9.788664499112372,-0.09053895494720585,-0.05345070834232634,0.16798794050445423,17.0,40.375,-29.0625
1774557342.8251326,92.79917281527408,4.207097550306372,-9.776105944993825,-0.6803172243241219,-1.6383963238669519,9.792456350785125,-0.08290313946973066,-0.055632369907319255,0.1734420944169365,17.0,40.375,-29.0625
1774557343.0030212,92.79917281527408,4.207097550306372,-9.776105944993825,-0.6803172243241219,-1.6383963238669519,9.792456350785125,-0.08290313946973066,-0.055632369907319255,0.1734420944169365,17.0,40.375,-29.0625
1774557343.0143225,0.0,0.0,0.0,-0.6634855507074783,-1.6088267660818183,9.758183556935071,0.018544123302439753,0.003272492347489368,0.01090830782496456,16.0,40.0625,-26.25
1774557343.0253646,0.0,0.0,0.0,-0.6634855507074783,-1.6088267660818183,9.758183556935071,0.018544123302439753,0.003272492347489368,0.01090830782496456,16.0,40.0625,-26.25
1774557343.0366626,0.0,0.0,0.0,-0.5786918023766896,-1.5490072152015828,9.725340060358095,0.037088246604879506,0.00545415391248228,0.016362461737446838,16.0,40.0625,-26.25
1774557343.048394,0.0,0.0,0.0,-0.5786918023766896,-1.5490072152015828,9.725340060358095,0.037088246604879506,0.00545415391248228,0.016362461737446838,16.0,40.0625,-26.25
1774557343.0607042,0.0,0.0,0.0,-0.5222625100707824,-1.5091979723189537,9.703483080272013,0.009817477042468103,0.002181661564992912,0.017453292519943295,16.0,40.0625,-26.25
1774557343.0727272,0.0,0.0,0.0,-0.5222625100707824,-1.5091979723189537,9.703483080272013,0.009817477042468103,0.002181661564992912,0.017453292519943295,16.0,40.0625,-26.25
1774557343.084477,93.00325406378332,4.209718873034855,-9.763433221353878,-0.484709446397699,-1.4827053658789449,9.688937504183192,-0.016362461737446838,0.007635815477475192,0.04145156973486533,16.0,40.0625,-26.25
1774557343.0960581,93.00325406378332,4.209718873034855,-9.763433221353878,-0.4597183020184697,-1.4650748322349239,9.655841803829576,-0.05126904677733343,0.002181661564992912,0.08726646259971647,16.0,40.0625,-26.25
1774557343.2756014,93.09722099900108,4.168038572279316,-9.761302992563403,-0.4597183020184697,-1.4650748322349239,9.655841803829576,-0.05126904677733343,0.002181661564992912,0.08726646259971647,16.0,40.0625,-26.25
1774557343.2877991,0.0,0.0,0.0,-0.4430869746034673,-1.4466516856261544,9.610401202996206,-0.015271630954950384,-0.00545415391248228,0.018544123302439753,15.1875,40.0625,-25.5625
1774557343.2996304,0.0,0.0,0.0,-0.4430869746034673,-1.4466516856261544,9.610401202996206,-0.015271630954950384,-0.00545415391248228,0.018544123302439753,15.1875,40.0625,-25.5625
1774557343.3113182,0.0,0.0,0.0,-0.4286739002855642,-1.4210108405287731,9.603576772697606,-0.020725784867432664,-0.025089107997418487,0.026179938779914945,15.1875,40.0625,-25.5625
1774557343.324289,0.0,0.0,0.0,-0.4286739002855642,-1.4210108405287731,9.603576772697606,-0.020725784867432664,-0.025089107997418487,0.026179938779914945,15.1875,40.0625,-25.5625
1774557343.3366523,0.0,0.0,0.0,-0.41908216033158924,-1.403947144543473,9.605725413982407,-0.01090830782496456,-0.03490658503988659,0.004363323129985824,15.1875,40.0625,-25.5625
1774557343.3482883,0.0,0.0,0.0,-0.41908216033158924,-1.403947144543473,9.605725413982407,-0.01090830782496456,-0.03490658503988659,0.004363323129985824,15.1875,40.0625,-25.5625
1774557343.361689,93.21927070739213,4.066787762043479,-9.844399001424756,-0.45953052844144615,-1.3992816688938683,9.630571092706782,-0.003272492347489368,-0.03599741582238305,-0.00545415391248228,15.1875,40.0625,-25.5625
1774557343.3731787,93.20253985291863,3.995989277601368,-9.846375323035131,-0.48644846558067845,-1.4597339694049025,9.670521396304673,-0.009817477042468103,-0.05345070834232634,-0.031634092692397225,15.1875,40.0625,-25.5625
1774557343.547637,93.20253985291863,3.995989277601368,-9.846375323035131,-0.48644846558067845,-1.4597339694049025,9.670521396304673,-0.009817477042468103,-0.05345070834232634,-0.031634092692397225,15.1875,40.0625,-25.5625
1774557343.5593035,0.0,0.0,0.0,-0.4809462701025417,-1.4999643000985516,9.697107877074936,0.0,0.0,0.0,13.0,40.0625,-25.5
1774557343.570786,0.0,0.0,0.0,-0.4809462701025417,-1.4999643000985516,9.697107877074936,0.0,0.0,0.0,13.0,40.0625,-25.5
1774557343.5840714,0.0,0.0,0.0,-0.37358615754849156,-1.5668784762607677,9.714800883037096,-0.017453292519943295,-0.018544123302439753,-0.018544123302439753,13.0,40.0625,-25.5
1774557343.5955317,0.0,0.0,0.0,-0.37358615754849156,-1.5668784762607677,9.714800883037096,-0.017453292519943295,-0.018544123302439753,-0.018544123302439753,13.0,40.0625,-25.5
1774557343.607421,0.0,0.0,0.0,-0.2619978614469768,-1.6348248949676336,9.739955827690366,-0.026179938779914945,-0.001090830782496456,-0.03381575425739013,13.0,40.0625,-25.5
1774557343.6192307,0.0,0.0,0.0,-0.2619978614469768,-1.6348248949676336,9.739955827690366,-0.026179938779914945,-0.001090830782496456,-0.03381575425739013,13.0,40.0625,-25.5
1774557343.6315322,93.0773016018223,3.897203489338072,-9.902776650017639,-0.18773709691436194,-1.6800424776058231,9.756696162357972,-0.004363323129985824,0.009817477042468103,-0.037088246604879506,13.0,40.0625,-25.5
1774557343.643071,93.06403710969533,3.7519745647454577,-9.891014485711144,-0.12159182912840397,-1.6699929332502113,9.767836668077473,0.001090830782496456,0.00545415391248228,-0.004363323129985824,13.0,40.0625,-25.5
1774557343.8184028,93.06403710969533,3.7519745647454577,-9.891014485711144,-0.12159182912840397,-1.6699929332502113,9.767836668077473,0.001090830782496456,0.00545415391248228,-0.004363323129985824,13.0,40.0625,-25.5
1774557343.8303385,0.0,0.0,0.0,-0.07757289230790437,-1.623163733254485,9.715038539454449,0.0,0.0,0.0,13.6875,40.75,-25.5
1774557343.8438683,0.0,0.0,0.0,-0.07757289230790437,-1.623163733254485,9.715038539454449,0.0,0.0,0.0,13.6875,40.75,-25.5
1774557343.8573246,0.0,0.0,0.0,-0.051623893284924706,-1.632140764261602,9.656486192698333,0.013089969389957472,0.0,-0.016362461737446838,13.6875,40.75,-25.5
1774557343.8685338,0.0,0.0,0.0,-0.051623893284924706,-1.632140764261602,9.656486192698333,0.013089969389957472,0.0,-0.016362461737446838,13.6875,40.75,-25.5
1774557343.88062,0.0,0.0,0.0,-0.08118668820691527,-1.654840436653428,9.617520260004708,0.018544123302439753,-0.004363323129985824,-0.022907446432425576,13.6875,40.75,-25.5
1774557343.8924363,93.03345064670954,3.687903449855327,-9.84463542674198,-0.10086039798944256,-1.6699468150582328,9.591588867075089,0.022907446432425576,-0.01090830782496456,-0.004363323129985824,13.6875,40.75,-25.5
1774557343.9064014,93.03345064670954,3.687903449855327,-9.84463542674198,-0.10086039798944256,-1.6699468150582328,9.591588867075089,0.022907446432425576,-0.01090830782496456,-0.004363323129985824,13.6875,40.75,-25.5
1774557343.9200013,93.03345064670954,3.687903449855327,-9.84463542674198,-0.12398836720193442,-1.6699646060153686,9.684720501094606,-0.004363323129985824,-0.002181661564992912,-0.00545415391248228,13.6875,40.75,-25.5
1774557344.090417,93.03345064670954,3.687903449855327,-9.84463542674198,-0.12398836720193442,-1.6699646060153686,9.684720501094606,-0.004363323129985824,-0.002181661564992912,-0.00545415391248228,13.6875,40.75,-25.5
1774557344.102074,0.0,0.0,0.0,-0.12934443723454525,-1.6264899935034525,9.746698563186076,0.0,0.0,0.0,15.1875,40.75,-25.5
1774557344.1135788,0.0,0.0,0.0,-0.12934443723454525,-1.6264899935034525,9.746698563186076,0.0,0.0,0.0,15.1875,40.75,-25.5
1774557344.126382,0.0,0.0,0.0,-0.14294417713198332,-1.6376994650078476,9.714351813606605,0.0,-0.01090830782496456,-0.003272492347489368,15.1875,40.75,-25.5
1774557344.138024,0.0,0.0,0.0,-0.14294417713198332,-1.6376994650078476,9.714351813606605,0.0,-0.01090830782496456,-0.003272492347489368,15.1875,40.75,-25.5
1774557344.1518445,0.0,0.0,0.0,-0.15199465211467952,-1.6451592430760211,9.692825413098337,-0.002181661564992912,-0.014180800172453928,-0.002181661564992912,15.1875,40.75,-25.5
1774557344.1646953,93.03592769410112,3.6436459059215207,-9.839889599084758,-0.15801764211523392,-1.6501236420492094,9.681844945733053,0.002181661564992912,-0.011999138607461015,-0.002181661564992912,15.1875,40.75,-25.5
1774557344.1765358,93.03592769410112,3.6436459059215207,-9.839889599084758,-0.15801764211523392,-1.6501236420492094,9.681844945733053,0.002181661564992912,-0.011999138607461015,-0.002181661564992912,15.1875,40.75,-25.5
1774557344.18926,93.03646326968389,3.6388576686248584,-9.844988730422791,-0.14864542785011856,-1.6367018355732992,9.718024019556466,0.002181661564992912,-0.004363323129985824,-0.002181661564992912,15.1875,40.75,-25.5
1774557344.3609676,93.03646326968389,3.6388576686248584,-9.844988730422791,-0.14864542785011856,-1.6367018355732992,9.718024019556466,0.002181661564992912,-0.004363323129985824,-0.002181661564992912,15.1875,40.75,-25.5
1774557344.3725553,0.0,0.0,0.0,-0.13571810053653874,-1.6043539913437475,9.742100789039212,0.0,0.0,0.0,13.0,41.5,-24.75
1774557344.3840866,0.0,0.0,0.0,-0.13571810053653874,-1.6043539913437475,9.742100789039212,0.0,0.0,0.0,13.0,41.5,-24.75
1774557344.3983862,0.0,0.0,0.0,-0.1204248852024207,-1.5828268623580775,9.724672493101647,-0.003272492347489368,0.013089969389957472,0.001090830782496456,13.0,41.5,-24.75
1774557344.4097986,0.0,0.0,0.0,-0.1204248852024207,-1.5828268623580775,9.724672493101647,-0.003272492347489368,0.013089969389957472,0.001090830782496456,13.0,41.5,-24.75
1774557344.422059,0.0,0.0,0.0,-0.11024742123397413,-1.5718459101992208,9.622756140744396,-0.003272492347489368,0.009817477042468103,-0.015271630954950384,13.0,41.5,-24.75
1774557344.4335709,93.03402743925997,3.6678830595196343,-9.834988357923406,-0.10347443265269474,-1.567883320910094,9.645249962828522,-0.004363323129985824,0.02399827721492203,0.004363323129985824,13.0,41.5,-24.75
1774557344.448365,93.03402743925997,3.6678830595196343,-9.834988357923406,-0.10347443265269474,-1.567883320910094,9.645249962828522,-0.004363323129985824,0.02399827721492203,0.004363323129985824,13.0,41.5,-24.75
1774557344.4633372,93.05655046417303,3.6250568739403475,-9.830241232861104,-0.12238286636232885,-1.618768049320313,9.60669756283594,0.007635815477475192,-0.006544984694978736,0.016362461737446838,13.0,41.5,-24.75
1774557344.6313736,93.05655046417303,3.6250568739403475,-9.830241232861104,-0.12238286636232885,-1.618768049320313,9.60669756283594,0.007635815477475192,-0.006544984694978736,0.016362461737446838,13.0,41.5,-24.75
1774557344.643384,0.0,0.0,0.0,-0.10820532411649095,-1.652631267657653,9.581041371299403,-0.002181661564992912,0.003272492347489368,0.00545415391248228,13.0,40.375,-26.0
1774557344.6552362,0.0,0.0,0.0,-0.10820532411649095,-1.652631267657653,9.581041371299403,-0.002181661564992912,0.003272492347489368,0.00545415391248228,13.0,40.375,-26.0
1774557344.6668015,0.0,0.0,0.0,-0.15229211544251992,-1.658441302647621,9.563967462430275,0.0,0.002181661564992912,0.003272492347489368,13.0,40.375,-26.0
1774557344.6779747,0.0,0.0,0.0,-0.15229211544251992,-1.658441302647621,9.563967462430275,0.0,0.002181661564992912,0.003272492347489368,13.0,40.375,-26.0
1774557344.6906273,0.0,0.0,0.0,-0.16156071234434796,-1.648927369201824,9.589401195586444,0.0,0.0,-0.003272492347489368,13.0,40.375,-26.0
1774557344.7026646,0.0,0.0,0.0,-0.16156071234434796,-1.648927369201824,9.589401195586444,0.0,0.0,-0.003272492347489368,13.0,40.375,-26.0
1774557344.715658,93.05687650324674,3.5996745519866846,-9.816253387556316,-0.1677288600455031,-1.6425959527712464,9.623052619425055,-0.002181661564992912,0.002181661564992912,-0.004363323129985824,13.0,40.375,-26.0
1774557344.7277446,93.05909106841996,3.560212969426826,-9.817004988849334,-0.15845324660861979,-1.6383824658632526,9.645447266078616,-0.001090830782496456,0.003272492347489368,-0.002181661564992912,13.0,40.375,-26.0
1774557344.9027467,93.05909106841996,3.560212969426826,-9.817004988849334,-0.15845324660861979,-1.6383824658632526,9.645447266078616,-0.001090830782496456,0.003272492347489368,-0.002181661564992912,13.0,40.375,-26.0
1774557344.9150915,0.0,0.0,0.0,-0.14224509435980706,-1.6355784373937154,9.660350653261967,0.0,0.0,0.0,14.0625,40.375,-24.75
1774557344.927122,0.0,0.0,0.0,-0.14224509435980706,-1.6355784373937154,9.660350653261967,0.0,0.0,0.0,14.0625,40.375,-24.75
1774557344.9392164,0.0,0.0,0.0,-0.13145875009514618,-1.6337123877702888,9.663578467536105,0.0,0.001090830782496456,0.0,14.0625,40.375,-24.75
1774557344.9509733,0.0,0.0,0.0,-0.13145875009514618,-1.6337123877702888,9.663578467536105,0.0,0.001090830782496456,0.0,14.0625,40.375,-24.75
1774557344.9622464,0.0,0.0,0.0,-0.1309707818930135,-1.6324705525910386,9.665726541878495,0.001090830782496456,0.0,0.0,14.0625,40.375,-24.75
1774557344.9753246,93.05090742282579,3.5198959793076243,-9.807466547427557,-0.13399115621277558,-1.6383343485660942,9.680536508187071,0.0,0.002181661564992912,0.0,14.0625,40.375,-24.75
1774557344.9877424,93.05090742282579,3.5198959793076243,-9.807466547427557,-0.13399115621277558,-1.6383343485660942,9.680536508187071,0.0,0.002181661564992912,0.0,14.0625,40.375,-24.75
1774557344.9997325,93.05233125042943,3.484938664884473,-9.803683031940754,-0.13600118158278535,-1.6422366392846008,9.693737487034584,0.001090830782496456,0.003272492347489368,-0.001090830782496456,14.0625,40.375,-24.75
1774557345.1723776,93.05233125042943,3.484938664884473,-9.803683031940754,-0.13600118158278535,-1.6422366392846008,9.693737487034584,0.001090830782496456,0.003272492347489368,-0.001090830782496456,14.0625,40.375,-24.75
1774557345.1839871,0.0,0.0,0.0,-0.13733883101307226,-1.6347982350443653,9.702522590993008,0.0,0.0,0.0,13.6875,41.5,-26.25
1774557345.195981,0.0,0.0,0.0,-0.13733883101307226,-1.6347982350443653,9.702522590993008,0.0,0.0,0.0,13.6875,41.5,-26.25
1774557345.2084754,0.0,0.0,0.0,-0.14491924518104377,-1.6231578367002695,9.678262974175423,0.0,0.003272492347489368,-0.001090830782496456,13.6875,41.5,-26.25
1774557345.2198782,0.0,0.0,0.0,-0.14491924518104377,-1.6231578367002695,9.678262974175423,0.0,0.003272492347489368,-0.001090830782496456,13.6875,41.5,-26.25
1774557345.2331808,0.0,0.0,0.0,-0.14327370271641537,-1.6154112816340434,9.662118470180998,-0.001090830782496456,0.002181661564992912,-0.003272492347489368,13.6875,41.5,-26.25
1774557345.24539,0.0,0.0,0.0,-0.14327370271641537,-1.6154112816340434,9.662118470180998,-0.001090830782496456,0.002181661564992912,-0.003272492347489368,13.6875,41.5,-26.25
1774557345.2581453,93.05403347318428,3.4502696104302712,-9.799344219041558,-0.14217861258811895,-1.6136011474794794,9.688170711899147,0.002181661564992912,0.001090830782496456,-0.001090830782496456,13.6875,41.5,-26.25
1774557345.2709587,93.05403347318428,3.4502696104302712,-9.799344219041558,-0.14144984234069594,-1.6157416351274598,9.712198411154604,-0.001090830782496456,0.00545415391248228,-0.001090830782496456,13.6875,41.5,-26.25
1774557345.4428542,93.05403347318428,3.4502696104302712,-9.799344219041558,-0.14144984234069594,-1.6157416351274598,9.712198411154604,-0.001090830782496456,0.00545415391248228,-0.001090830782496456,13.6875,41.5,-26.25
1774557345.4556265,0.0,0.0,0.0,-0.13761974217461362,-1.6138209940390575,9.728188576602124,-0.001090830782496456,0.002181661564992912,0.002181661564992912,13.6875,40.375,-26.0
1774557345.4710891,0.0,0.0,0.0,-0.13761974217461362,-1.6138209940390575,9.728188576602124,-0.001090830782496456,0.002181661564992912,0.002181661564992912,13.6875,40.375,-26.0
1774557345.5021212,0.0,0.0,0.0,-0.1350708532991081,-1.6158879405570121,9.738829853085596,0.0,0.0,-0.001090830782496456,13.6875,40.375,-26.0
1774557345.5244932,0.0,0.0,0.0,-0.1350708532991081,-1.6158879405570121,9.738829853085596,0.0,0.0,-0.001090830782496456,13.6875,40.375,-26.0
1774557345.5384095,0.0,0.0,0.0,-0.1350708532991081,-1.6158879405570121,9.738829853085596,0.0,0.0,-0.001090830782496456,13.6875,40.375,-26.0
1774557345.7559774,93.05717619000427,3.3857192039719735,-9.79613969862591,-0.13671970793273291,-1.6206085820827247,9.7459115037145,0.0,-0.002181661564992912,0.002181661564992912,13.6875,40.375,-26.0
1774557345.7712657,0.0,0.0,0.0,-0.1411621139798165,-1.6304403396997043,9.753969374808134,0.002181661564992912,0.004363323129985824,-0.001090830782496456,13.6875,40.375,-26.0
1774557345.7875445,0.0,0.0,0.0,-0.1411621139798165,-1.6304403396997043,9.753969374808134,0.002181661564992912,0.004363323129985824,-0.001090830782496456,13.6875,40.375,-26.0
1774557345.8008525,0.0,0.0,0.0,-0.14411848557922352,-1.6369832645658753,9.75933179800863,0.0,0.002181661564992912,0.001090830782496456,13.6875,40.375,-26.0
1774557345.814912,0.0,0.0,0.0,-0.14411848557922352,-1.6369832645658753,9.75933179800863,0.0,0.002181661564992912,0.001090830782496456,13.6875,40.375,-26.0
1774557345.8307588,93.05605155584996,3.2013858840215095,-9.775523113598922,-0.14943102956111362,-1.648027731389691,9.75286509562441,0.0,-0.001090830782496456,-0.001090830782496456,14.0625,41.5,-25.5
1774557345.84291,93.05815365453218,3.1514876864453067,-9.76704447393445,-0.15296646823605675,-1.6419972538568846,9.741871354010872,0.002181661564992912,-0.001090830782496456,-0.001090830782496456,14.0625,41.5,-25.5
1774557345.8547256,93.05815365453218,3.1514876864453067,-9.76704447393445,-0.15296646823605675,-1.6419972538568846,9.741871354010872,0.002181661564992912,-0.001090830782496456,-0.001090830782496456,14.0625,41.5,-25.5
1774557346.0233233,93.05815365453218,3.1514876864453067,-9.76704447393445,-0.15296646823605675,-1.6419972538568846,9.741871354010872,0.002181661564992912,-0.001090830782496456,-0.001090830782496456,14.0625,41.5,-25.5
1774557346.0350664,0.0,0.0,0.0,-0.1553192631807937,-1.631293815009011,9.734555141775203,0.0,0.0,0.0,13.0,41.0625,-25.5625
1774557346.047467,0.0,0.0,0.0,-0.1553192631807937,-1.631293815009011,9.734555141775203,0.0,0.0,0.0,13.0,41.0625,-25.5625
1774557346.0637681,0.0,0.0,0.0,-0.1535399102267551,-1.6174805726063588,9.716305837430534,0.0,0.002181661564992912,0.002181661564992912,13.0,41.0625,-25.5625
1774557346.0749304,0.0,0.0,0.0,-0.1535399102267551,-1.6174805726063588,9.716305837430534,0.0,0.002181661564992912,0.002181661564992912,13.0,41.0625,-25.5625
1774557346.0870268,0.0,0.0,0.0,-0.14901065900519792,-1.6082880140914217,9.704161129247243,0.001090830782496456,0.002181661564992912,0.001090830782496456,13.0,41.0625,-25.5625
1774557346.0992014,0.0,0.0,0.0,-0.14901065900519792,-1.6082880140914217,9.704161129247243,0.001090830782496456,0.002181661564992912,0.001090830782496456,13.0,41.0625,-25.5625
1774557346.1121936,93.06084493916097,3.0968003258954298,-9.763672386337415,-0.14599649291230288,-1.6155509159166157,9.712804520153139,0.001090830782496456,-0.002181661564992912,0.001090830782496456,13.0,41.0625,-25.5625
1774557346.2959425,93.06202957286509,3.077076001021623,-9.764071094819943,-0.14399059904792266,-1.6203842959493528,9.72190171195533,0.0,0.003272492347489368,0.0,13.0,41.0625,-25.5625
1774557346.3077998,0.0,0.0,0.0,-0.13931058738116092,-1.6236008563687467,9.727955791477395,0.0,0.0,0.0,13.6875,40.375,-25.0625
1774557346.3194668,0.0,0.0,0.0,-0.13931058738116092,-1.6236008563687467,9.727955791477395,0.0,0.0,0.0,13.6875,40.375,-25.0625
1774557346.3327,0.0,0.0,0.0,-0.13954120360340616,-1.6190512179818803,9.705223820112277,-0.002181661564992912,0.002181661564992912,-0.002181661564992912,13.6875,40.375,-25.0625
1774557346.3448694,0.0,0.0,0.0,-0.13954120360340616,-1.6190512179818803,9.705223820112277,-0.002181661564992912,0.002181661564992912,-0.002181661564992912,13.6875,40.375,-25.0625
1774557346.357239,0.0,0.0,0.0,-0.13969467612315836,-1.6160234844582115,9.690095947101549,0.001090830782496456,0.001090830782496456,-0.001090830782496456,13.6875,40.375,-25.0625
1774557346.369544,93.05335637713026,3.0517334851396174,-9.759267609174525,-0.13979681037065309,-1.6140085616202096,9.70009918684624,0.0,0.0,0.002181661564992912,13.6875,40.375,-25.0625
1774557346.3815143,93.05335637713026,3.0517334851396174,-9.759267609174525,-0.13979681037065309,-1.6140085616202096,9.70009918684624,0.0,0.0,0.002181661564992912,13.6875,40.375,-25.0625
1774557346.3928437,93.05429433992515,3.0266322398146106,-9.755300818900965,-0.13986477957144652,-1.619357876394321,9.706756231152822,0.002181661564992912,0.001090830782496456,-0.001090830782496456,13.6875,40.375,-25.0625
1774557346.5690718,93.05429433992515,3.0266322398146106,-9.755300818900965,-0.13986477957144652,-1.619357876394321,9.706756231152822,0.002181661564992912,0.001090830782496456,-0.001090830782496456,13.6875,40.375,-25.0625
1774557346.5811782,0.0,0.0,0.0,-0.13656490060798943,-1.616227562206092,9.701151084652837,0.001090830782496456,0.00545415391248228,0.001090830782496456,14.0625,40.375,-26.0
1774557346.5929883,0.0,0.0,0.0,-0.13656490060798943,-1.616227562206092,9.701151084652837,0.001090830782496456,0.00545415391248228,0.001090830782496456,14.0625,40.375,-26.0
1774557346.6066442,0.0,0.0,0.0,-0.12767864460523332,-1.6074541496670873,9.67735025202677,0.001090830782496456,0.002181661564992912,0.0,14.0625,40.375,-26.0
1774557346.6178524,0.0,0.0,0.0,-0.12767864460523332,-1.6074541496670873,9.67735025202677,0.001090830782496456,0.002181661564992912,0.0,14.0625,40.375,-26.0
1774557346.6293437,0.0,0.0,0.0,-0.12176494050138285,-1.6016155416278195,8.004794398367078,-0.001090830782496456,0.0,0.0,14.0625,40.375,-26.0
1774557346.6410546,0.0,0.0,0.0,-0.12176494050138285,-1.6016155416278195,8.004794398367078,-0.001090830782496456,0.0,0.0,14.0625,40.375,-26.0
1774557346.6528053,93.05548990336892,3.0069092027550233,-9.7557020270125,-0.12786477160263182,-1.6077653483211702,8.548443826849411,0.0,-0.001090830782496456,0.004363323129985824,14.0625,40.375,-26.0
1774557346.6658049,93.05670540815034,2.982113347844846,-9.751202099219194,-0.1352692527682543,-1.6118579759777532,8.943687565615564,-0.001090830782496456,0.0,-0.002181661564992912,14.0625,40.375,-26.0
1774557346.844555,93.05670540815034,2.982113347844846,-9.751202099219194,-0.1352692527682543,-1.6118579759777532,8.943687565615564,-0.001090830782496456,0.0,-0.002181661564992912,14.0625,40.375,-26.0
1774557346.8557334,0.0,0.0,0.0,-0.14019685227050183,-1.6145815739655625,9.206717858602582,-0.001090830782496456,0.004363323129985824,0.002181661564992912,13.6875,40.75,-27.0625
1774557346.8670585,0.0,0.0,0.0,-0.14019685227050183,-1.6145815739655625,9.206717858602582,-0.001090830782496456,0.004363323129985824,0.002181661564992912,13.6875,40.75,-27.0625
1774557346.8787446,0.0,0.0,0.0,-0.140131002987035,-1.6097038745872279,9.351655574978674,-0.001090830782496456,0.004363323129985824,-0.002181661564992912,13.6875,40.75,-27.0625
1774557346.8913362,0.0,0.0,0.0,-0.140131002987035,-1.6097038745872279,9.351655574978674,-0.001090830782496456,0.004363323129985824,-0.002181661564992912,13.6875,40.75,-27.0625
1774557346.9032524,0.0,0.0,0.0,-0.14008718102447257,-1.6064578201384183,9.448110006166585,0.001090830782496456,-0.001090830782496456,0.002181661564992912,13.6875,40.75,-27.0625
1774557346.9167573,93.05792459176277,2.957318051944837,-9.746704254178297,-0.14340312970523003,-1.6109878305781786,9.54240535802142,-0.001090830782496456,0.002181661564992912,0.001090830782496456,13.6875,40.75,-27.0625
1774557346.9280248,93.05792459176277,2.957318051944837,-9.746704254178297,-0.14340312970523003,-1.6109878305781786,9.54240535802142,-0.001090830782496456,0.002181661564992912,0.001090830782496456,13.6875,40.75,-27.0625
1774557346.9406278,93.05886026835404,2.9372876400394703,-9.747640875808626,-0.14560985651070027,-1.6140025019223068,9.605157861332714,0.0,0.003272492347489368,-0.003272492347489368,13.6875,40.75,-27.0625
1774557347.1167727,93.05886026835404,2.9372876400394703,-9.747640875808626,-0.14560985651070027,-1.6140025019223068,9.605157861332714,0.0,0.003272492347489368,-0.003272492347489368,13.6875,40.75,-27.0625
1774557347.1284943,0.0,0.0,0.0,-0.14707840854898713,-1.6160087320257386,9.646918951294987,-0.001090830782496456,0.001090830782496456,-0.001090830782496456,12.5625,41.5,-26.75
1774557347.1429286,0.0,0.0,0.0,-0.14707840854898713,-1.6160087320257386,9.646918951294987,-0.001090830782496456,0.001090830782496456,-0.001090830782496456,12.5625,41.5,-26.75
1774557347.1570735,0.0,0.0,0.0,-0.1447106018183465,-1.6139987440411943,9.647949596504382,0.0,0.003272492347489368,-0.001090830782496456,12.5625,41.5,-26.75
1774557347.1708534,0.0,0.0,0.0,-0.13978974118192003,-1.612661119490517,9.648635479378175,-0.001090830782496456,0.001090830782496456,0.0,12.5625,41.5,-26.75
1774557347.1850486,0.0,0.0,0.0,-0.13978974118192003,-1.612661119490517,9.648635479378175,-0.001090830782496456,0.001090830782496456,0.0,12.5625,41.5,-26.75
1774557347.2087464,93.06007013102118,2.9175653448171217,-9.748046557350662,-0.13986007510531268,-1.6117709452942866,9.679197932134745,-0.001090830782496456,-0.001090830782496456,0.002181661564992912,12.5625,41.5,-26.75
1774557347.3878083,93.06007013102118,2.9175653448171217,-9.748046557350662,-0.13986007510531268,-1.6117709452942866,9.679197932134745,-0.001090830782496456,-0.001090830782496456,0.002181661564992912,12.5625,41.5,-26.75
1774557347.399841,0.0,0.0,0.0,-0.13656176983832968,-1.6078334326032733,9.699536903039274,0.003272492347489368,0.001090830782496456,0.001090830782496456,12.5625,41.875,-25.5
1774557347.412934,0.0,0.0,0.0,-0.13656176983832968,-1.6078334326032733,9.699536903039274,0.003272492347489368,0.001090830782496456,0.001090830782496456,12.5625,41.875,-25.5
1774557347.4265013,0.0,0.0,0.0,-0.14105700794227527,-1.6052130618923026,9.686311367316492,0.002181661564992912,0.002181661564992912,0.001090830782496456,12.5625,41.875,-25.5
1774557347.4383037,0.0,0.0,0.0,-0.14105700794227527,-1.6052130618923026,9.686311367316492,0.002181661564992912,0.002181661564992912,0.001090830782496456,12.5625,41.875,-25.5
1774557347.4510484,0.0,0.0,0.0,-0.14070342697803181,-1.6101594578702492,9.677509921031895,0.001090830782496456,0.0,0.001090830782496456,12.5625,41.875,-25.5
1774557347.46281,93.06253382951,2.8679764520915887,-9.739060632350629,-0.14046812279608598,-1.6167963408460284,9.68837821538469,-0.002181661564992912,-0.002181661564992912,0.0,12.5625,41.875,-25.5
1774557347.4745407,93.06253382951,2.8679764520915887,-9.739060632350629,-0.14046812279608598,-1.6167963408460284,9.68837821538469,-0.002181661564992912,-0.002181661564992912,0.0,12.5625,41.875,-25.5
1774557347.4863582,93.0634834284403,2.847943349623455,-9.739997477040959,-0.14031153049152095,-1.6279033357422077,9.69561094386967,0.001090830782496456,0.00545415391248228,-0.002181661564992912,12.5625,41.875,-25.5
1774557347.6868727,0.0,0.0,0.0,-0.14020732006208358,-1.6352949167723525,9.700424243881555,-0.001090830782496456,0.002181661564992912,0.003272492347489368,13.0,41.0625,-26.0
1774557347.7048242,0.0,0.0,0.0,-0.13344774577076102,-1.6167981494273078,9.70362744127138,0.001090830782496456,0.004363323129985824,-0.004363323129985824,13.0,41.0625,-26.0
1774557347.7183828,0.0,0.0,0.0,-0.13344774577076102,-1.6167981494273078,9.70362744127138,0.001090830782496456,0.004363323129985824,-0.004363323129985824,13.0,41.0625,-26.0
1774557347.7315092,93.05483332428511,2.827687916412017,-9.740099271727082,-0.12894932458927827,-1.5977985339669716,9.719139580181526,0.002181661564992912,0.001090830782496456,0.004363323129985824,13.0,41.0625,-26.0
1774557347.744457,93.05483332428511,2.827687916412017,-9.740099271727082,-0.12894932458927827,-1.5977985339669716,9.719139580181526,0.002181661564992912,0.001090830782496456,0.004363323129985824,13.0,41.0625,-26.0
1774557347.7557137,93.05483332428511,2.827687916412017,-9.740099271727082,-0.13933612237293622,-1.5918447255323678,9.729462735344283,0.002181661564992912,-0.001090830782496456,0.001090830782496456,13.0,41.0625,-26.0
1774557347.9279883,93.05483332428511,2.827687916412017,-9.740099271727082,-0.13933612237293622,-1.5918447255323678,9.729462735344283,0.002181661564992912,-0.001090830782496456,0.001090830782496456,13.0,41.0625,-26.0
1774557347.9397812,0.0,0.0,0.0,-0.14624842026982685,-1.581192309112898,9.73298756808058,0.0,0.0,0.0,12.25,40.375,-26.0
1774557347.9509647,0.0,0.0,0.0,-0.14624842026982685,-1.581192309112898,9.73298756808058,0.0,0.0,0.0,12.25,40.375,-26.0
1774557347.961939,0.0,0.0,0.0,-0.1408131421828225,-1.5908288035176263,9.681811517574513,-0.001090830782496456,0.001090830782496456,0.0,12.25,40.375,-26.0
1774557347.973233,0.0,0.0,0.0,-0.1408131421828225,-1.5908288035176263,9.681811517574513,-0.001090830782496456,0.001090830782496456,0.0,12.25,40.375,-26.0
1774557347.9851222,0.0,0.0,0.0,-0.13719602533195566,-1.5972417828972771,9.647754427636666,-0.001090830782496456,0.003272492347489368,0.001090830782496456,12.25,40.375,-26.0
1774557347.9966886,0.0,0.0,0.0,-0.13719602533195566,-1.5972417828972771,9.647754427636666,-0.001090830782496456,0.003272492347489368,0.001090830782496456,12.25,40.375,-26.0
1774557348.008898,93.05669332414377,2.7930355360475962,-9.735816176899647,-0.14482420959550463,-1.6015095490367612,9.665231155213485,-0.001090830782496456,0.003272492347489368,0.002181661564992912,12.25,40.375,-26.0
1774557348.0219007,93.05669332414377,2.7930355360475962,-9.735816176899647,-0.1499006810104949,-1.5876241411919194,9.693587280724616,0.001090830782496456,0.003272492347489368,-0.002181661564992912,12.25,40.375,-26.0
1774557348.1991765,93.05669332414377,2.7930355360475962,-9.735816176899647,-0.1499006810104949,-1.5876241411919194,9.693587280724616,0.001090830782496456,0.003272492347489368,-0.002181661564992912,12.25,40.375,-26.0
1774557348.210614,0.0,0.0,0.0,-0.15327901602926955,-1.5716933339667074,9.695732406957001,0.0,0.0,0.0,13.6875,40.375,-26.25
1774557348.2216682,0.0,0.0,0.0,-0.15327901602926955,-1.5716933339667074,9.695732406957001,0.0,0.0,0.0,13.6875,40.375,-26.25
1774557348.233834,0.0,0.0,0.0,-0.14214681341651164,-1.5677817831317447,9.65367351230687,0.0,0.002181661564992912,-0.001090830782496456,13.6875,40.375,-26.25
1774557348.2481472,0.0,0.0,0.0,-0.14214681341651164,-1.5677817831317447,9.65367351230687,0.0,0.002181661564992912,-0.001090830782496456,13.6875,40.375,-26.25
1774557348.2635863,0.0,0.0,0.0,-0.13139334522525314,-1.6220455887703922,9.625683787745846,-0.001090830782496456,0.003272492347489368,-0.007635815477475192,13.6875,40.375,-26.25
1774557348.277633,0.0,0.0,0.0,-0.13139334522525314,-1.6220455887703922,9.625683787745846,-0.001090830782496456,0.003272492347489368,-0.007635815477475192,13.6875,40.375,-26.25
1774557348.290526,93.05669332414377,2.7930355360475962,-9.735816176899647,-0.13173605553217,-1.6387031967058427,9.66151593293683,0.0,0.002181661564992912,-0.007635815477475192,13.6875,40.375,-26.25
1774557348.4759111,93.0579266773729,2.773315717193458,-9.736228713630618,-0.13173605553217,-1.6387031967058427,9.66151593293683,0.0,0.002181661564992912,-0.007635815477475192,13.6875,40.375,-26.25
1774557348.4878256,0.0,0.0,0.0,-0.13450043727096753,-1.5989956514061476,9.664353948142699,0.0,0.0,0.0,13.0,41.0625,-25.5625
1774557348.4994369,0.0,0.0,0.0,-0.13450043727096753,-1.5989956514061476,9.664353948142699,0.0,0.0,0.0,13.0,41.0625,-25.5625
1774557348.511039,0.0,0.0,0.0,-0.13634010243796993,-1.589296282108142,9.65286216873022,0.001090830782496456,0.0,-0.002181661564992912,13.0,41.0625,-25.5625
1774557348.5242639,0.0,0.0,0.0,-0.13634010243796993,-1.589296282108142,9.65286216873022,0.001090830782496456,0.0,-0.002181661564992912,13.0,41.0625,-25.5625
1774557348.5382714,0.0,0.0,0.0,-0.1275290439342454,-1.5828414601893737,9.645214517902803,0.001090830782496456,-0.002181661564992912,0.004363323129985824,13.0,41.0625,-25.5625
1774557348.5516052,93.04941975490732,2.727360493978126,-9.722886342252233,-0.13170071804794756,-1.6053067419660738,9.673576208780208,-0.002181661564992912,0.001090830782496456,0.0,13.0,41.0625,-25.5625
1774557348.5643888,93.04941975490732,2.727360493978126,-9.722886342252233,-0.13170071804794756,-1.6053067419660738,9.673576208780208,-0.002181661564992912,0.001090830782496456,0.0,13.0,41.0625,-25.5625
1774557348.7504392,93.05064531228673,2.7127120173482107,-9.728198492805868,-0.13447692056996308,-1.6503631414007016,9.692450597238276,0.0,0.003272492347489368,0.001090830782496456,13.0,41.0625,-25.5625
1774557348.7628813,0.0,0.0,0.0,-0.13632445233615023,-1.680347671911486,9.701666180209067,0.0,0.0,0.0,12.25,39.6875,-27.0625
1774557348.7741265,0.0,0.0,0.0,-0.13632445233615023,-1.680347671911486,9.701666180209067,0.0,0.0,0.0,12.25,39.6875,-27.0625
1774557348.7863157,0.0,0.0,0.0,-0.13420885238094626,-1.6400900312855116,9.694418600902042,-0.001090830782496456,0.003272492347489368,0.002181661564992912,12.25,39.6875,-27.0625
1774557348.7996442,0.0,0.0,0.0,-0.13420885238094626,-1.6400900312855116,9.694418600902042,-0.001090830782496456,0.003272492347489368,0.002181661564992912,12.25,39.6875,-27.0625
1774557348.811731,0.0,0.0,0.0,-0.132800944243558,-1.6132990211562375,9.689595417833983,0.002181661564992912,0.0,0.0,12.25,39.6875,-27.0625
1774557348.8239095,0.0,0.0,0.0,-0.132800944243558,-1.6132990211562375,9.689595417833983,0.002181661564992912,0.0,0.0,12.25,39.6875,-27.0625
1774557348.8385246,93.05190819701033,2.6879216394420693,-9.723715392514292,-0.1385542205201293,-1.5988150148977176,9.706456313624592,0.0,0.001090830782496456,-0.002181661564992912,12.25,39.6875,-27.0625
1774557349.0258257,93.05315778051587,2.6682026912704564,-9.724131629899448,-0.14238296161388045,-1.5925211822369432,9.721022163132014,-0.001090830782496456,0.003272492347489368,-0.001090830782496456,12.25,39.6875,-27.0625
1774557349.038386,0.0,0.0,0.0,-0.14158583433461203,-1.584987595200596,9.727370461560684,0.0,0.0,0.0,12.5625,40.75,-26.0
1774557349.0509632,0.0,0.0,0.0,-0.14158583433461203,-1.584987595200596,9.727370461560684,0.0,0.0,0.0,12.5625,40.75,-26.0
1774557349.0658448,0.0,0.0,0.0,-0.1343651316201153,-1.593354524012866,9.69814406617663,-0.001090830782496456,0.003272492347489368,-0.003272492347489368,12.5625,40.75,-26.0
1774557349.0811903,0.0,0.0,0.0,-0.12955983462415213,-1.5989226216727126,9.678694226528771,-0.001090830782496456,-0.001090830782496456,0.001090830782496456,12.5625,40.75,-26.0
1774557349.092739,0.0,0.0,0.0,-0.12955983462415213,-1.5989226216727126,9.678694226528771,-0.001090830782496456,-0.001090830782496456,0.001090830782496456,12.5625,40.75,-26.0
1774557349.1047037,93.05476861954733,2.6383047837236506,-9.72527535883433,-0.12636196315202328,-1.602628128465614,9.699201692585259,0.0,-0.003272492347489368,0.002181661564992912,12.5625,40.75,-26.0
1774557349.115774,93.05476861954733,2.6383047837236506,-9.72527535883433,-0.12636196315202328,-1.602628128465614,9.699201692585259,0.0,-0.003272492347489368,0.002181661564992912,12.5625,40.75,-26.0
1774557349.2969246,93.05602703212546,2.618585772192909,-9.725693599310176,-0.1275789271172059,-1.6050941018430671,9.712849182162445,-0.001090830782496456,0.004363323129985824,-0.003272492347489368,12.5625,40.75,-26.0
1774557349.310419,0.0,0.0,0.0,-0.1283888030416567,-1.5833193976277986,9.711896098901658,0.0,0.0,0.0,13.0,40.375,-26.25
1774557349.321658,0.0,0.0,0.0,-0.1283888030416567,-1.5833193976277986,9.711896098901658,0.0,0.0,0.0,13.0,40.375,-26.25
1774557349.335508,0.0,0.0,0.0,-0.12892776642247186,-1.5688285752119213,9.691191162394325,-0.001090830782496456,0.002181661564992912,0.001090830782496456,13.0,40.375,-26.25
1774557349.3479478,0.0,0.0,0.0,-0.1292864405317889,-1.5892911001331222,9.67741225843799,0.0,-0.001090830782496456,0.002181661564992912,13.0,40.375,-26.25
1774557349.3591835,0.0,0.0,0.0,-0.1292864405317889,-1.5892911001331222,9.67741225843799,0.0,-0.001090830782496456,0.002181661564992912,13.0,40.375,-26.25
1774557349.3719928,93.05669184968066,2.598585035683161,-9.716110120846722,-0.13621535755952582,-1.6162891287160783,9.681622998604768,-0.001090830782496456,0.003272492347489368,-0.002181661564992912,13.0,40.375,-26.25
1774557349.3831422,93.05669184968066,2.598585035683161,-9.716110120846722,-0.13621535755952582,-1.6162891287160783,9.681622998604768,-0.001090830782496456,0.003272492347489368,-0.002181661564992912,13.0,40.375,-26.25
1774557349.3956106,93.05732334293171,2.5887258029605276,-9.716320317752512,-0.14082647444041,-1.6342560151502954,9.69111542256335,0.0,0.002181661564992912,-0.001090830782496456,13.0,40.375,-26.25
1774557349.569601,93.05732334293171,2.5887258029605276,-9.716320317752512,-0.14082647444041,-1.6342560151502954,9.69111542256335,0.0,0.002181661564992912,-0.001090830782496456,13.0,40.375,-26.25
1774557349.5817933,0.0,0.0,0.0,-0.1438951212150878,-1.6361774422470365,9.697432524670461,0.0,0.0,0.0,13.375,41.0625,-26.0
1774557349.5942876,0.0,0.0,0.0,-0.1438951212150878,-1.6361774422470365,9.697432524670461,0.0,0.0,0.0,13.375,41.0625,-26.0
1774557349.6077466,0.0,0.0,0.0,-0.14593727136460535,-1.6274207953942126,9.684910927019493,-0.002181661564992912,0.002181661564992912,0.0,13.375,41.0625,-26.0
1774557349.6192493,0.0,0.0,0.0,-0.14593727136460535,-1.6274207953942126,9.684910927019493,-0.002181661564992912,0.002181661564992912,0.0,13.375,41.0625,-26.0
1774557349.631483,0.0,0.0,0.0,-0.1472962994767974,-1.621593344731813,9.676577943658184,-0.001090830782496456,-0.001090830782496456,0.001090830782496456,13.375,41.0625,-26.0
1774557349.6430008,93.04783152278247,2.5729525574432905,-9.711831198513032,-0.15489094091876124,-1.6177152414128753,9.681067771438714,0.0,0.003272492347489368,-0.001090830782496456,13.375,41.0625,-26.0
1774557349.65427,93.04783152278247,2.5729525574432905,-9.711831198513032,-0.15489094091876124,-1.6177152414128753,9.681067771438714,0.0,0.003272492347489368,-0.001090830782496456,13.375,41.0625,-26.0
1774557349.6655793,93.04783152278247,2.5729525574432905,-9.711831198513032,-0.15994508996068443,-1.6184795186826944,9.697436148501273,0.001090830782496456,0.004363323129985824,-0.003272492347489368,13.375,41.0625,-26.0
1774557349.8427336,93.04783152278247,2.5729525574432905,-9.711831198513032,-0.15994508996068443,-1.6184795186826944,9.697436148501273,0.001090830782496456,0.004363323129985824,-0.003272492347489368,13.375,41.0625,-26.0
1774557349.8551536,0.0,0.0,0.0,-0.14658301115294328,-1.615643024960903,9.694948673760376,0.001090830782496456,0.003272492347489368,0.0,12.5625,40.375,-26.25
1774557349.8673022,0.0,0.0,0.0,-0.14658301115294328,-1.615643024960903,9.694948673760376,0.001090830782496456,0.003272492347489368,0.0,12.5625,40.375,-26.25
1774557349.8844905,0.0,0.0,0.0,-0.13769069697059205,-1.62379070519672,9.683257951985263,0.001090830782496456,0.003272492347489368,0.0,12.5625,40.375,-26.25
1774557349.8959563,0.0,0.0,0.0,-0.13846318463053411,-1.6325580070854238,9.675477907237847,-0.001090830782496456,0.001090830782496456,-0.001090830782496456,12.5625,40.375,-26.25
1774557349.907287,0.0,0.0,0.0,-0.13846318463053411,-1.6325580070854238,9.675477907237847,-0.001090830782496456,0.001090830782496456,-0.001090830782496456,12.5625,40.375,-26.25
1774557349.9197514,93.0490819354118,2.558304620946425,-9.717147627321404,-0.14232237824629237,-1.638392548555177,9.69706126802579,0.0,0.002181661564992912,-0.001090830782496456,12.5625,40.375,-26.25
1774557349.931479,93.0490819354118,2.558304620946425,-9.717147627321404,-0.14232237824629237,-1.638392548555177,9.69706126802579,0.0,0.002181661564992912,-0.001090830782496456,12.5625,40.375,-26.25
1774557350.1170933,93.0490819354118,2.558304620946425,-9.717147627321404,-0.1448906284875621,-1.6222047004832825,9.711424753528227,-0.001090830782496456,0.003272492347489368,-0.002181661564992912,12.5625,40.375,-26.25
1774557350.1306882,0.0,0.0,0.0,-0.1298742117972952,-1.6114318684215483,9.717638380972135,0.0,0.0,0.0,13.375,40.375,-25.5625
1774557350.1425428,0.0,0.0,0.0,-0.1298742117972952,-1.6114318684215483,9.717638380972135,0.0,0.0,0.0,13.375,40.375,-25.5625
1774557350.2236245,93.0503875268467,2.528446918302218,-9.707777934037733,-0.14483065732253303,-1.6487892352558386,9.70441598605013,0.002181661564992912,0.002181661564992912,0.004363323129985824,13.375,40.375,-25.5625
1774557350.3913848,93.0503875268467,2.528446918302218,-9.707777934037733,-0.14483065732253303,-1.6487892352558386,9.70441598605013,0.002181661564992912,0.002181661564992912,0.004363323129985824,13.375,40.375,-25.5625
1774557350.407023,0.0,0.0,0.0,-0.13652452507152893,-1.6257784676366533,9.719664347923162,0.0,0.0,0.0,13.0,39.6875,-26.0
1774557350.418532,0.0,0.0,0.0,-0.13652452507152893,-1.6257784676366533,9.719664347923162,0.0,0.0,0.0,13.0,39.6875,-26.0
1774557350.4315658,0.0,0.0,0.0,-0.13099688684406252,-1.6104650588332023,9.696360845341108,0.001090830782496456,0.001090830782496456,0.002181661564992912,13.0,39.6875,-26.0
1774557350.4428065,0.0,0.0,0.0,-0.13735364047340667,-1.6002741563364904,9.680852624689932,-0.002181661564992912,-0.002181661564992912,0.001090830782496456,13.0,39.6875,-26.0
1774557350.4548063,0.0,0.0,0.0,-0.13735364047340667,-1.6002741563364904,9.680852624689932,-0.002181661564992912,-0.002181661564992912,0.001090830782496456,13.0,39.6875,-26.0
1774557350.4670277,93.05166232593575,2.5087296060645916,-9.708201069425794,-0.1415839890041444,-1.596837336272088,9.683912523914026,0.0,0.002181661564992912,-0.001090830782496456,13.0,39.6875,-26.0
1774557350.4784698,93.05166232593575,2.5087296060645916,-9.708201069425794,-0.1415839890041444,-1.596837336272088,9.683912523914026,0.0,0.002181661564992912,-0.001090830782496456,13.0,39.6875,-26.0
1774557350.490746,93.05204843339962,2.493476069411079,-9.704028439526551,-0.14439923869526092,-1.6012403943256628,9.692639076080987,0.0,0.002181661564992912,-0.00545415391248228,13.0,39.6875,-26.0
1774557350.666463,93.05204843339962,2.493476069411079,-9.704028439526551,-0.14439923869526092,-1.6012403943256628,9.692639076080987,0.0,0.002181661564992912,-0.00545415391248228,13.0,39.6875,-26.0
1774557350.678294,0.0,0.0,0.0,-0.13958253250166056,-1.6041705802749355,9.691756275651485,0.0,0.0,0.0,12.5625,39.6875,-26.25
1774557350.6898596,0.0,0.0,0.0,-0.13958253250166056,-1.6041705802749355,9.691756275651485,0.0,0.0,0.0,12.5625,39.6875,-26.25
1774557350.7019594,0.0,0.0,0.0,-0.13637706833595323,-1.6161559214138128,9.68447855841254,0.0,0.002181661564992912,-0.002181661564992912,12.5625,39.6875,-26.25
1774557350.7145705,0.0,0.0,0.0,-0.13637706833595323,-1.6161559214138128,9.68447855841254,0.0,0.002181661564992912,-0.002181661564992912,12.5625,39.6875,-26.25
1774557350.7257912,0.0,0.0,0.0,-0.1442792028630141,-1.6107515852274252,9.67963531888745,0.0,0.002181661564992912,-0.002181661564992912,12.5625,39.6875,-26.25
1774557350.740279,93.05268803841342,2.483617212048447,-9.704240474245422,-0.14953798511814656,-1.6071550598657751,9.696482867329951,0.0,0.002181661564992912,0.0,12.5625,39.6875,-26.25
1774557350.7515767,93.05268803841342,2.483617212048447,-9.704240474245422,-0.14953798511814656,-1.6071550598657751,9.696482867329951,0.0,0.002181661564992912,0.0,12.5625,39.6875,-26.25
1774557350.7642303,93.05334590243783,2.468688701277839,-9.699558245944056,-0.15303764596449032,-1.6047616124134176,9.711039834326307,0.0,0.001090830782496456,0.001090830782496456,12.5625,39.6875,-26.25
1774557350.950968,0.0,0.0,0.0,-0.13864107262736197,-1.5998236881631143,9.720727333250405,0.0,0.002181661564992912,0.0,13.0,40.375,-26.0
1774557350.9620469,0.0,0.0,0.0,-0.13864107262736197,-1.5998236881631143,9.720727333250405,0.0,0.002181661564992912,0.0,13.0,40.375,-26.0
1774557350.9748049,0.0,0.0,0.0,-0.14578587242836155,-1.6032277781494042,9.71379380873866,0.0,0.003272492347489368,-0.006544984694978736,13.0,40.375,-26.0
1774557350.9882052,0.0,0.0,0.0,-0.14578587242836155,-1.6032277781494042,9.71379380873866,0.0,0.003272492347489368,-0.006544984694978736,13.0,40.375,-26.0
1774557351.0007913,93.0039408731122,2.4447606193965736,-9.700912772473448,-0.15054065688328344,-1.635599167374978,9.70917962562864,-0.00545415391248228,0.002181661564992912,-0.030543261909900768,13.0,40.375,-26.0
1774557351.0118978,93.0039408731122,2.4447606193965736,-9.700912772473448,-0.15054065688328344,-1.635599167374978,9.70917962562864,-0.00545415391248228,0.002181661564992912,-0.030543261909900768,13.0,40.375,-26.0
1774557351.0239446,93.00367533152277,2.444433753506951,-9.701420698059453,-0.1537049128236114,-1.747459981390109,9.706108938312722,-0.001090830782496456,0.0,-0.015271630954950384,13.0,40.375,-26.0
1774557351.0350442,93.00367533152277,2.444433753506951,-9.701420698059453,-0.1537049128236114,-1.747459981390109,9.706108938312722,-0.001090830782496456,0.0,-0.015271630954950384,13.0,40.375,-26.0
1774557351.2114573,93.00367533152277,2.444433753506951,-9.701420698059453,-0.1537049128236114,-1.747459981390109,9.706108938312722,-0.001090830782496456,0.0,-0.015271630954950384,13.0,40.375,-26.0
1774557351.2229135,0.0,0.0,0.0,-0.11232423760969278,-1.821902103550011,9.667269201425292,-0.002181661564992912,0.00545415391248228,-0.002181661564992912,12.5625,39.6875,-26.25
1774557351.238739,0.0,0.0,0.0,-0.11232423760969278,-1.821902103550011,9.667269201425292,-0.002181661564992912,0.00545415391248228,-0.002181661564992912,12.5625,39.6875,-26.25
1774557351.2558208,0.0,0.0,0.0,-0.08478586050726017,-1.747673371103617,9.641421790394995,-0.006544984694978736,0.003272492347489368,0.00545415391248228,12.5625,39.6875,-26.25
1774557351.2712743,0.0,0.0,0.0,-0.06980448987673929,-1.6447531915327038,9.64429129733275,-0.002181661564992912,0.001090830782496456,0.017453292519943295,12.5625,39.6875,-26.25
1774557351.2840395,0.0,0.0,0.0,-0.06980448987673929,-1.6447531915327038,9.64429129733275,-0.002181661564992912,0.001090830782496456,0.017453292519943295,12.5625,39.6875,-26.25
1774557351.2962906,93.05902763797131,2.4154493962301102,-9.735737894190963,-0.06986989019696117,-1.6030218553805533,9.646200922145333,-0.006544984694978736,-0.002181661564992912,0.013089969389957472,12.5625,39.6875,-26.25
1774557351.3079865,93.05902763797131,2.4154493962301102,-9.735737894190963,-0.06986989019696117,-1.6030218553805533,9.646200922145333,-0.006544984694978736,-0.002181661564992912,0.013089969389957472,12.5625,39.6875,-26.25
1774557351.4899337,93.05902763797131,2.4154493962301102,-9.735737894190963,-0.06986989019696117,-1.6030218553805533,9.646200922145333,-0.006544984694978736,-0.002181661564992912,0.013089969389957472,12.5625,39.6875,-26.25
1774557351.5021698,0.0,0.0,0.0,-0.05987807825754124,-1.5484892236823116,9.64078153271156,0.0,0.0,0.0,13.6875,39.25,-27.0625
1774557351.5165534,0.0,0.0,0.0,-0.09002486780822325,-1.5389592601150974,9.637174989581933,-0.004363323129985824,0.00545415391248228,-0.011999138607461015,13.6875,39.25,-27.0625
1774557351.5290701,0.0,0.0,0.0,-0.09002486780822325,-1.5389592601150974,9.637174989581933,-0.004363323129985824,0.00545415391248228,-0.011999138607461015,13.6875,39.25,-27.0625
1774557351.5409405,0.0,0.0,0.0,-0.10674210778517787,-1.6430058621593244,9.658190657368127,-0.001090830782496456,0.0,-0.006544984694978736,13.6875,39.25,-27.0625
1774557351.5525513,0.0,0.0,0.0,-0.10674210778517787,-1.6430058621593244,9.658190657368127,-0.001090830782496456,0.0,-0.006544984694978736,13.6875,39.25,-27.0625
1774557351.5832715,93.07435029659206,2.347569546771456,-9.747067550743967,-0.08178444608966565,-1.7315664984982153,9.690388209311234,-0.002181661564992912,0.007635815477475192,0.01090830782496456,13.6875,39.25,-27.0625
1774557351.754751,93.07435029659206,2.347569546771456,-9.747067550743967,-0.08178444608966565,-1.7315664984982153,9.690388209311234,-0.002181661564992912,0.007635815477475192,0.01090830782496456,13.6875,39.25,-27.0625
