timestamp,yaw,pitch,roll,ax,ay,az,gx,gy,gz,mx,my,mz
1772316037.237626,-0.1162147287014503,1.5343804862080084,-8.662425923837038,-0.26322209332697816,-1.4800681124059092,9.721515269749661,-0.001090830782496456,0.001090830782496456,0.002181661564992912,9.25,62.1875,-86.25
1772316037.5824623,-0.1162147287014503,1.5343804862080084,-8.662425923837038,-0.24746681895610878,-1.4806649961195975,9.740710697528224,0.001090830782496456,-0.001090830782496456,0.001090830782496456,10.75,61.875,-87.0625
1772316037.9455233,-0.1162147287014503,1.5343804862080084,-8.662425923837038,-0.25481394951746916,-1.4776521183670512,9.754448651793949,-0.001090830782496456,-0.002181661564992912,0.0,9.5625,62.25,-86.6875
1772316038.0208898,-0.1162147287014503,1.5343804862080084,-8.662425923837038,-0.25213197973090296,-1.4733889348440032,9.747517929414348,-0.001090830782496456,0.0,-0.001090830782496456,10.375,62.25,-86.0
1772316038.0513117,-0.1162147287014503,1.5343804862080084,-8.662425923837038,-0.2514188086951418,-1.475600409989121,9.741657986337156,-0.001090830782496456,0.0,-0.001090830782496456,10.375,62.25,-86.0
1772316038.079427,-0.1162147287014503,1.5343804862080084,-8.662425923837038,-0.2514188086951418,-1.475600409989121,9.741657986337156,-0.001090830782496456,0.0,-0.001090830782496456,10.375,62.25,-86.0
1772316038.1048667,-0.1162147287014503,1.5343804862080084,-8.662425923837038,-0.2509442013374853,-1.4770721219944005,9.737758259679136,0.0,0.001090830782496456,0.0,10.375,61.1875,-85.5
1772316038.1209273,-0.1162147287014503,1.5343804862080084,-8.662425923837038,-0.2539734671499958,-1.4813966416011333,9.735163035151027,0.0,-0.001090830782496456,-0.001090830782496456,10.375,61.1875,-85.5
1772316038.1431634,-0.1162147287014503,1.5343804862080084,-8.662425923837038,-0.2559894097091052,-1.4809294493840452,9.730090830510807,-0.001090830782496456,0.0,-0.001090830782496456,10.375,61.1875,-85.5
1772316038.1646247,-0.1162147287014503,1.5343804862080084,-8.662425923837038,-0.25733099696263856,-1.4839636498897715,9.73340555839762,-0.001090830782496456,-0.001090830782496456,0.001090830782496456,10.375,62.25,-86.0
1772316038.2272832,3.4685029742578554e-06,1.5343346970816114,-8.662168371811909,-0.2552227860121493,-1.4798133726727616,9.738956584485674,-0.0010864034127766784,-0.002183869640092178,0.001090830782496456,10.375,62.25,-86.0
1772316038.2883909,3.4685029742578554e-06,1.5343346970816114,-8.662168371811909,-0.2558164608233297,-1.4800511927966167,9.74265073033825,2.2125629077641914e-06,-0.0010908285385922067,0.001090830782496456,9.436216894908812,62.26926783704974,-87.1875
1772316038.3267577,3.4685029742578554e-06,1.5343346970816114,-8.662168371811909,-0.2562183297630114,-1.4768643546061933,9.735073808014869,-6.637688723292574e-06,0.0032724856157766206,0.0,9.436216894908812,62.26926783704974,-87.1875
1772316038.3522902,3.4685029742578554e-06,1.5343346970816114,-8.662168371811909,-0.25647898406857594,-1.4780886542160057,9.730031450848427,-0.0010886159756844426,-0.0010930411014999709,0.001090830782496456,9.436216894908812,62.26926783704974,-87.1875
1772316038.3860567,3.4685029742578554e-06,1.5343346970816114,-8.662168371811909,-0.25647898406857594,-1.4780886542160057,9.730031450848427,-0.0010886159756844426,-0.0010930411014999709,0.001090830782496456,9.436216894908812,62.26926783704974,-87.1875
1772316038.4380524,3.4685029742578554e-06,1.5343346970816114,-8.662168371811909,-0.25665244659722974,-1.4789034119300133,9.726675818480981,2.2125629077641914e-06,-0.0010908285385922067,0.002181661564992912,10.24871522354765,62.27091585376453,-85.0625
1772316038.4648778,3.4685029742578554e-06,1.5343346970816114,-8.662168371811909,-0.25665244659722974,-1.4789034119300133,9.726675818480981,2.2125629077641914e-06,-0.0010908285385922067,0.002181661564992912,10.24871522354765,62.27091585376453,-85.0625
1772316038.498256,3.4685029742578554e-06,1.5343346970816114,-8.662168371811909,-0.25676109898772215,-1.4827907289134694,9.724442682625314,-4.425125815528383e-06,0.0021816570771844134,0.001090830782496456,10.24871522354765,62.27091585376453,-85.0625
1772316038.5123165,3.4685029742578554e-06,1.5343346970816114,-8.662168371811909,-0.25676109898772215,-1.4827907289134694,9.724442682625314,-4.425125815528383e-06,0.0021816570771844134,0.001090830782496456,10.24871522354765,62.27091585376453,-85.0625
1772316038.5357711,3.4685029742578554e-06,1.5343346970816114,-8.662168371811909,-0.2568401909244915,-1.4820325901155593,9.72295655565913,0.002183869640092178,-0.0010864034127766784,0.001090830782496456,9.435329501293158,62.70676693708604,-85.5625
1772316038.549747,3.4685029742578554e-06,1.5343346970816114,-8.662168371811909,-0.2568401909244915,-1.4820325901155593,9.72295655565913,0.002183869640092178,-0.0010864034127766784,0.001090830782496456,9.435329501293158,62.70676693708604,-85.5625
1772316038.583992,3.4685029742578554e-06,1.5343346970816114,-8.662168371811909,-0.2568860407402732,-1.4848731620407396,9.732002889886218,2.2125629077641914e-06,-0.0010908285385922067,0.0,9.435329501293158,62.70676693708604,-85.5625
1772316038.6077626,3.4685029742578554e-06,1.5343346970816114,-8.662168371811909,-0.25691655328050006,-1.4867635309256797,9.74136823596749,0.0010864034127766784,0.002183869640092178,0.001090830782496456,9.436977518007945,61.8942686084472,1962.9375
1772316038.6331522,3.4685029742578554e-06,1.5343346970816114,-8.662168371811909,-0.2569368590351735,-1.4880215503018033,9.744255657459487,-4.425125815528383e-06,0.0021816570771844134,-0.001090830782496456,9.436977518007945,61.8942686084472,1962.9375
1772316038.6480784,3.4685029742578554e-06,1.5343346970816114,-8.662168371811909,-0.2569368590351735,-1.4880215503018033,9.744255657459487,-4.425125815528383e-06,0.0021816570771844134,-0.001090830782496456,9.436977518007945,61.8942686084472,1962.9375
1772316038.6615705,3.4685029742578554e-06,1.5343346970816114,-8.662168371811909,-0.25360526746185436,-1.488851963158993,9.73948698079316,-2.2125629077641914e-06,0.0010908285385922067,0.0,9.436977518007945,61.8942686084472,1962.9375
1772316038.6957703,3.4685029742578554e-06,1.5343346970816114,-8.662168371811909,-0.2513949154707502,-1.4860594888129088,9.736313479741328,-2.2125629077641914e-06,0.0010908285385922067,0.002181661564992912,9.437738141107076,61.51926937984466,-85.0625
1772316038.7143562,3.4685029742578554e-06,1.5343346970816114,-8.662168371811909,-0.2513949154707502,-1.4860594888129088,9.736313479741328,-2.2125629077641914e-06,0.0010908285385922067,0.002181661564992912,9.437738141107076,61.51926937984466,-85.0625
1772316038.7430575,3.4685029742578554e-06,1.5343346970816114,-8.662168371811909,-0.24992395091191993,-1.4842011283295722,9.734201550241664,-2.2125629077641914e-06,0.0010908285385922067,0.003272492347489368,9.437738141107076,61.51926937984466,-85.0625
1772316038.7687948,3.4685029742578554e-06,1.5343346970816114,-8.662168371811909,-0.24895182541439254,-1.4796193053609343,9.732796084751437,-0.0010908285385922067,-2.2125629077641914e-06,0.002181661564992912,9.437738141107076,61.51926937984466,-85.0625
1772316038.794638,3.4685029742578554e-06,1.5343346970816114,-8.662168371811909,-0.2449529969442938,-1.4799084731992227,9.731860763167768,0.0010886159756844426,0.0010930411014999709,-0.001090830782496456,9.874476618044243,61.895156002062855,-85.5625
1772316038.8217778,3.4685029742578554e-06,1.5343346970816114,-8.662168371811909,-0.24564371107813163,-1.4767625913237865,9.731238317102063,-2.2125629077641914e-06,0.0010908285385922067,0.0,9.874476618044243,61.895156002062855,-85.5625
1772316038.8474896,3.4685029742578554e-06,1.5343346970816114,-8.662168371811909,-0.24609658863379488,-1.478014146903711,9.730824086198515,0.0010886159756844426,0.0010930411014999709,0.0,9.874476618044243,61.895156002062855,-85.5625
1772316038.8666422,3.4685029742578554e-06,1.5343346970816114,-8.662168371811909,-0.24609658863379488,-1.478014146903711,9.730824086198515,0.0010886159756844426,0.0010930411014999709,0.0,9.874476618044243,61.895156002062855,-85.5625
1772316038.9217577,3.4685029742578554e-06,1.5343346970816114,-8.662168371811909,-0.24639118860349163,-1.482192147987583,9.730548420159465,0.0010930411014999709,-0.0010886159756844426,0.0,9.12447816083916,61.89363475586459,-85.5625
1772316038.9560702,3.4685029742578554e-06,1.5343346970816114,-8.662168371811909,-0.24658724159242754,-1.4849725610375697,9.73036496748987,-0.001095253664407735,0.0021794445142766495,0.0,9.12447816083916,61.89363475586459,-85.5625
1772316038.9840345,3.4685029742578554e-06,1.5343346970816114,-8.662168371811909,-0.246717712666509,-1.486822894863087,9.730242881787554,0.0010864034127766784,0.002183869640092178,-0.001090830782496456,9.125238783938292,61.51863552726205,-86.0
1772316039.0244575,3.4685029742578554e-06,1.5343346970816114,-8.662168371811909,-0.246717712666509,-1.486822894863087,9.730242881787554,0.0010864034127766784,0.002183869640092178,-0.001090830782496456,9.125238783938292,61.51863552726205,-86.0
1772316039.0480225,3.4685029742578554e-06,1.5343346970816114,-8.662168371811909,-0.2468113246934762,-1.4847091665281615,9.730161635116449,0.0010930411014999709,-0.0010886159756844426,0.0,9.125238783938292,61.51863552726205,-86.0
1772316039.073432,3.4685029742578554e-06,1.5343346970816114,-8.662168371811909,-0.2468668374670846,-1.4866476087593856,9.730107566364415,0.0010908285385922067,2.2125629077641914e-06,-0.002181661564992912,9.125238783938292,61.51863552726205,-86.0
1772316039.1074073,3.4685029742578554e-06,1.5343346970816114,-8.662168371811909,-0.24691056558242608,-1.4845925155842223,9.730071584213924,0.0010930411014999709,-0.0010886159756844426,0.001090830782496456,9.872828601329456,62.70765433070169,-85.5625
1772316039.1262405,3.4685029742578554e-06,1.5343346970816114,-8.662168371811909,-0.2469328811700874,-1.4865699788592703,9.73004763849472,-0.0010930411014999709,0.0010886159756844426,-0.001090830782496456,9.872828601329456,62.70765433070169,-85.5625
1772316039.1824994,3.4685029742578554e-06,1.5343346970816114,-8.662168371811909,-0.24694773194439457,-1.4878859585791027,9.730031702886079,-0.0010908285385922067,-2.2125629077641914e-06,-0.001090830782496456,10.93697443241811,61.89731110084373,-86.0
1772316039.2244477,3.4685029742578554e-06,1.5343346970816114,-8.662168371811909,-0.2503027197950263,-1.4887685133668176,9.73336620962386,-0.0010864034127766784,-0.002183869640092178,0.002181661564992912,10.93697443241811,61.89731110084373,-86.0
1772316039.265678,3.4685029742578554e-06,1.5343346970816114,-8.662168371811909,-0.2503027197950263,-1.4887685133668176,9.73336620962386,-0.0010864034127766784,-0.002183869640092178,0.002181661564992912,10.93697443241811,61.89731110084373,-86.0
1772316039.3194134,3.4685029742578554e-06,1.5343346970816114,-8.662168371811909,-0.2525354267319517,-1.4893558437192589,9.728895063194335,-0.0010930411014999709,0.0010886159756844426,-0.001090830782496456,11.373712909355275,62.27319772306193,-86.375
1772316039.341649,3.4685029742578554e-06,1.5343346970816114,-8.662168371811909,-0.2540280532421282,-1.4864016006816745,9.725919565191463,-0.0010886159756844426,-0.0010930411014999709,-0.001090830782496456,11.373712909355275,62.27319772306193,-86.375
1772316039.3652685,3.4685029742578554e-06,1.5343346970816114,-8.662168371811909,-0.2516830596693192,-1.4810836951303716,9.723939404509043,-0.0010908285385922067,-2.2125629077641914e-06,-0.001090830782496456,9.87371599494511,62.270155230665395,-84.0
1772316039.4110043,3.4685029742578554e-06,1.5343346970816114,-8.662168371811909,-0.2516830596693192,-1.4810836951303716,9.723939404509043,-0.0010908285385922067,-2.2125629077641914e-06,-0.001090830782496456,9.87371599494511,62.270155230665395,-84.0
1772316039.4501135,3.4685029742578554e-06,1.5343346970816114,-8.662168371811909,-0.25012249264190944,-1.477544688390877,9.722621629694736,0.0,0.0,0.0,9.87371599494511,62.270155230665395,-84.0
1772316039.4750202,3.4685029742578554e-06,1.5343346970816114,-8.662168371811909,-0.2490839527178441,-1.4751895189390387,9.728434888690963,-0.0010908285385922067,-2.2125629077641914e-06,0.0,9.872194748746844,63.020153687870476,-86.75
1772316039.5168033,3.4685029742578554e-06,1.5343346970816114,-8.662168371811909,-0.251737920825854,-1.4736289649624306,9.725613324199955,2.2125629077641914e-06,-0.0010908285385922067,-0.001090830782496456,9.872194748746844,63.020153687870476,-86.75
1772316039.5459576,3.4685029742578554e-06,1.5343346970816114,-8.662168371811909,-0.25683564181194585,-1.4792874283605997,9.727080716257449,-0.0010886159756844426,-0.0010930411014999709,0.002181661564992912,9.872194748746844,63.020153687870476,-86.75
1772316039.5713396,3.4685029742578554e-06,1.5343346970816114,-8.662168371811909,-0.25683564181194585,-1.4792874283605997,9.727080716257449,-0.0010886159756844426,-0.0010930411014999709,0.002181661564992912,9.872194748746844,63.020153687870476,-86.75
1772316039.6228511,3.4685029742578554e-06,1.5343346970816114,-8.662168371811909,-0.26023490316753867,-1.4797079677166793,9.72805724927987,0.002183869640092178,-0.0010864034127766784,0.0,9.435329501293158,62.70676693708604,-85.0625
1772316039.6544182,3.4685029742578554e-06,1.5343346970816114,-8.662168371811909,-0.25580007899037643,-1.4833193668173954,9.73205223280502,0.0010864034127766784,0.002183869640092178,-0.001090830782496456,9.435329501293158,62.70676693708604,-85.0625
1772316039.6689255,3.4685029742578554e-06,1.5343346970816114,-8.662168371811909,-0.25580007899037643,-1.4833193668173954,9.73205223280502,0.0010864034127766784,0.002183869640092178,-0.001090830782496456,9.435329501293158,62.70676693708604,-85.0625
1772316039.7340848,3.4685029742578554e-06,1.5343346970816114,-8.662168371811909,-0.25284875304070703,-1.4857227125769505,9.734710849714117,-2.2125629077641914e-06,0.0010908285385922067,0.001090830782496456,10.623714452150192,62.27167647686366,-86.25
1772316039.7882502,3.4685029742578554e-06,1.5343346970816114,-8.662168371811909,-0.254222998431274,-1.4906740021436509,9.733135017861105,0.0010886159756844426,0.0010930411014999709,0.001090830782496456,10.623714452150192,62.27167647686366,-86.25
1772316039.863134,3.4685029742578554e-06,1.5343346970816114,-8.662168371811909,-0.2551375433873694,-1.4939690300407618,9.732086319366122,0.0021816570771844134,4.425125815528383e-06,-0.001090830782496456,9.436977518007945,61.8942686084472,-86.0
1772316039.927058,3.4685029742578554e-06,1.5343346970816114,-8.662168371811909,-0.25240784299791347,-1.4928099444875678,9.73138842223244,0.0010864034127766784,0.002183869640092178,0.001090830782496456,9.436977518007945,61.8942686084472,-86.0
1772316039.9724646,3.4685029742578554e-06,1.5343346970816114,-8.662168371811909,-0.2506048278507285,-1.4853483763473028,9.730923979485997,-0.002183869640092178,0.0010864034127766784,0.001090830782496456,10.623714452150192,62.27167647686366,-86.0
1772316040.0066273,3.4685029742578554e-06,1.5343346970816114,-8.662168371811909,-0.24605305160042829,-1.4837211059427349,9.730614898026404,2.2125629077641914e-06,-0.0010908285385922067,0.0,10.623714452150192,62.27167647686366,-86.0
1772316040.031965,3.4685029742578554e-06,1.5343346970816114,-8.662168371811909,-0.24605305160042829,-1.4837211059427349,9.730614898026404,2.2125629077641914e-06,-0.0010908285385922067,0.0,10.623714452150192,62.27167647686366,-86.0
1772316040.0480409,3.4685029742578554e-06,1.5343346970816114,-8.662168371811909,-0.24637578516337344,-1.4792998558246953,9.73040920776771,0.0,0.0,0.0,10.624475075249325,61.89667724826112,-85.1875
1772316040.1045678,3.4685029742578554e-06,1.5343346970816114,-8.662168371811909,-0.24324545591811908,-1.4763507782751166,9.73027232319826,4.425125815528383e-06,-0.0021816570771844134,0.0,10.624475075249325,61.89667724826112,-85.1875
1772316040.1637475,3.4685029742578554e-06,1.5343346970816114,-8.662168371811909,-0.24450736159969544,-1.4743949850938503,9.726836116339074,0.0,0.0,-0.002181661564992912,9.874476618044243,61.895156002062855,-86.375
1772316040.1997657,3.4685029742578554e-06,1.5343346970816114,-8.662168371811909,-0.245340360749751,-1.476438531405583,9.72454935905923,-0.001095253664407735,0.0021794445142766495,0.0,9.874476618044243,61.895156002062855,-86.375
1772316040.2170882,3.4685029742578554e-06,1.5343346970816114,-8.662168371811909,-0.245340360749751,-1.476438531405583,9.72454935905923,-0.001095253664407735,0.0021794445142766495,0.0,9.874476618044243,61.895156002062855,-86.375
1772316040.244026,3.4685029742578554e-06,1.5343346970816114,-8.662168371811909,-0.2492330322205037,-1.4811503784589808,9.726372659341566,-0.0010930411014999709,0.0010886159756844426,0.0,10.250236469745914,61.52091739655945,-86.375
1772316040.2781124,3.4685029742578554e-06,1.5343346970816114,-8.662168371811909,-0.24847845677407576,-1.4842792750536133,9.727586045311863,-0.002172806825553357,-0.004367739280184356,0.001090830782496456,10.250236469745914,61.52091739655945,-86.375
1772316040.309252,3.4685029742578554e-06,1.5343346970816114,-8.662168371811909,-0.24797629524363807,-1.4863615207852758,9.721703316706048,-0.0010908285385922067,-2.2125629077641914e-06,0.001090830782496456,9.437738141107076,61.51926937984466,-86.375
1772316040.3784785,3.4685029742578554e-06,1.5343346970816114,-8.662168371811909,-0.2476421123546436,-1.4877472320594887,9.71778842653326,4.425125815528383e-06,-0.0021816570771844134,0.001090830782496456,9.437738141107076,61.51926937984466,-86.375
1772316040.4310527,3.4685029742578554e-06,1.5343346970816114,-8.662168371811909,-0.2507716071859329,-1.4853310875914671,9.725218445977418,-0.002177231951368885,-0.0021860822029999417,0.0,10.623714452150192,62.27167647686366,-85.1875
1772316040.449855,3.4685029742578554e-06,1.5343346970816114,-8.662168371811909,-0.2507716071859329,-1.4853310875914671,9.725218445977418,-0.002177231951368885,-0.0021860822029999417,0.0,10.623714452150192,62.27167647686366,-85.1875
1772316040.4952877,3.4685029742578554e-06,1.5343346970816114,-8.662168371811909,-0.2528542510374081,-1.4837231704381009,9.73016304091875,-2.2125629077641914e-06,0.0010908285385922067,0.0,10.623714452150192,62.27167647686366,-85.1875
1772316040.5260382,3.4685029742578554e-06,1.5343346970816114,-8.662168371811909,-0.2508951224296843,-1.482646334549524,9.733453613617462,4.425125815528383e-06,-0.0021816570771844134,-0.001090830782496456,9.436216894908812,62.26926783704974,-86.0
1772316040.5662448,3.4685029742578554e-06,1.5343346970816114,-8.662168371811909,-0.24958455924152137,-1.4852748171209453,9.738988564697667,-0.0010908285385922067,-2.2125629077641914e-06,-0.002181661564992912,9.436216894908812,62.26926783704974,-86.0
1772316040.6009831,3.4685029742578554e-06,1.5343346970816114,-8.662168371811909,-0.24871239407974893,-1.487024042910152,9.725946454275492,-0.0010930411014999709,0.0010886159756844426,0.0,10.24871522354765,62.27091585376453,-85.1875
1772316040.6421258,3.4685029742578554e-06,1.5343346970816114,-8.662168371811909,-0.24813876289193598,-1.4848430283065122,9.733992634016051,2.2125629077641914e-06,-0.0010908285385922067,-0.001090830782496456,10.24871522354765,62.27091585376453,-85.1875
1772316040.6735103,3.4685029742578554e-06,1.5343346970816114,-8.662168371811909,-0.2477638027289501,-1.4800464826250952,9.736002165044358,-0.0021860822029999417,0.002177231951368885,-0.001090830782496456,9.87371599494511,62.270155230665395,-84.25
1772316040.7287877,3.4685029742578554e-06,1.5343346970816114,-8.662168371811909,-0.24416916610283818,-1.476847650070415,9.737339485495763,0.0010886159756844426,0.0010930411014999709,0.001090830782496456,9.87371599494511,62.270155230665395,-84.25
1772316040.7570121,3.4685029742578554e-06,1.5343346970816114,-8.662168371811909,-0.24177697558288286,-1.4747188627385763,9.734884345610006,0.0010908285385922067,2.2125629077641914e-06,0.0,9.436216894908812,62.26926783704974,-84.75
1772316040.773537,3.4685029742578554e-06,1.5343346970816114,-8.662168371811909,-0.24352331935597252,-1.4766540683601979,9.733250477441743,0.0,0.0,0.002181661564992912,9.436216894908812,62.26926783704974,-84.75
1772316040.8365555,3.4685029742578554e-06,1.5343346970816114,-8.662168371811909,-0.24467870664440214,-1.481287030909948,9.728818044719949,-0.0010886159756844426,-0.0010930411014999709,0.001090830782496456,10.250236469745914,61.52091739655945,-85.1875
1772316040.874166,3.4685029742578554e-06,1.5343346970816114,-8.662168371811909,-0.2454476039783304,-1.484370215733224,9.729213421964431,0.001084190849868914,0.003274698178684385,-0.001090830782496456,10.250236469745914,61.52091739655945,-85.1875
1772316040.918766,3.4685029742578554e-06,1.5343346970816114,-8.662168371811909,-0.2426141917386894,-1.4864152558070596,9.729476541103981,-0.002188294765907706,0.0032680604899610922,0.0,10.247193977349385,63.02091431096961,-86.0
1772316040.9511569,3.4685029742578554e-06,1.5343346970816114,-8.662168371811909,-0.24742558218156877,-1.4844446722746252,9.729651643952119,-0.0010886159756844426,-0.0010930411014999709,0.001090830782496456,10.247193977349385,63.02091431096961,-86.0
1772316040.974632,3.4685029742578554e-06,1.5343346970816114,-8.662168371811909,-0.24728240394832787,-1.4831264859620272,9.729768172941528,-0.001095253664407735,0.0021794445142766495,0.001090830782496456,9.874476618044243,61.895156002062855,-84.75
1772316041.0180013,3.4685029742578554e-06,1.5343346970816114,-8.662168371811909,-0.25053222525973595,-1.4822560326807226,9.729845721682265,-0.0010886159756844426,-0.0010930411014999709,-0.001090830782496456,9.874476618044243,61.895156002062855,-84.75
1772316041.056595,3.4685029742578554e-06,1.5343346970816114,-8.662168371811909,-0.24934984021337103,-1.4816699707609913,9.72655221779563,-4.425125815528383e-06,0.0021816570771844134,-0.001090830782496456,10.24871522354765,62.27091585376453,-86.0
1772316041.0745778,3.4685029742578554e-06,1.5343346970816114,-8.662168371811909,-0.2519080809993459,-1.4812867380847738,9.727705539457244,0.0010908285385922067,2.2125629077641914e-06,-0.002181661564992912,10.24871522354765,62.27091585376453,-86.0
1772316041.1341841,3.4685029742578554e-06,1.5343346970816114,-8.662168371811909,-0.25025867185414247,-1.4843700208613417,9.735163285554238,0.0010930411014999709,-0.0010886159756844426,-0.001090830782496456,9.87371599494511,62.270155230665395,-86.75
1772316041.1640198,3.4685029742578554e-06,1.5343346970816114,-8.662168371811909,-0.24916100849311695,-1.4864219111066224,9.740126332273306,0.0010908285385922067,2.2125629077641914e-06,0.001090830782496456,9.87371599494511,62.270155230665395,-86.75
1772316041.1944954,3.4685029742578554e-06,1.5343346970816114,-8.662168371811909,-0.24843731077268105,-1.4844423163175162,9.736738961009342,0.0,0.0,0.0,9.87371599494511,62.270155230665395,-86.0
1772316041.2257524,3.4685029742578554e-06,1.5343346970816114,-8.662168371811909,-0.2479556980239642,-1.483124918098889,9.73448470327259,0.0,0.0,-0.001090830782496456,9.87371599494511,62.270155230665395,-86.0
1772316041.2454429,3.4685029742578554e-06,1.5343346970816114,-8.662168371811909,-0.2479556980239642,-1.483124918098889,9.73448470327259,0.0,0.0,-0.001090830782496456,9.87371599494511,62.270155230665395,-86.0
1772316041.2799144,3.4685029742578554e-06,1.5343346970816114,-8.662168371811909,-0.2476419751042834,-1.4789030994744707,9.732984519930492,0.002177231951368885,0.0021860822029999417,-0.002181661564992912,9.436216894908812,62.26926783704974,-86.6875
1772316041.3076007,3.4685029742578554e-06,1.5343346970816114,-8.662168371811909,-0.24743319600575045,-1.4760935263407244,9.73198616467447,-2.2125629077641914e-06,0.0010908285385922067,-0.001090830782496456,9.436216894908812,62.26926783704974,-86.6875
1772316041.3375328,3.4685029742578554e-06,1.5343346970816114,-8.662168371811909,-0.24743319600575045,-1.4760935263407244,9.73198616467447,-2.2125629077641914e-06,0.0010908285385922067,-0.001090830782496456,9.436216894908812,62.26926783704974,-86.6875
1772316041.359426,3.4685029742578554e-06,1.5343346970816114,-8.662168371811909,-0.25062579070486973,-1.4809207814422765,9.724631546989308,0.001084190849868914,0.003274698178684385,0.0,9.875237241143374,61.520156773460315,-87.0625
1772316041.3769925,3.4685029742578554e-06,1.5343346970816114,-8.662168371811909,-0.25062579070486973,-1.4809207814422765,9.724631546989308,0.001084190849868914,0.003274698178684385,0.0,9.875237241143374,61.520156773460315,-87.0625
1772316041.4189744,3.4685029742578554e-06,1.5343346970816114,-8.662168371811909,-0.25275042681351395,-1.4841332657883866,9.726427354490934,0.001095253664407735,-0.0021794445142766495,0.0,9.875237241143374,61.520156773460315,-87.0625
1772316041.442409,3.4685029742578554e-06,1.5343346970816114,-8.662168371811909,-0.2541643484100763,-1.4862711382349216,9.727622444322781,0.0010886159756844426,0.0010930411014999709,-0.001090830782496456,9.872828601329456,62.70765433070169,-86.375
1772316041.4653828,3.4685029742578554e-06,1.5343346970816114,-8.662168371811909,-0.2541643484100763,-1.4862711382349216,9.727622444322781,0.0010886159756844426,0.0010930411014999709,-0.001090830782496456,9.872828601329456,62.70765433070169,-86.375
1772316041.4942772,3.4685029742578554e-06,1.5343346970816114,-8.662168371811909,-0.2517737625810718,-1.4809968738294184,9.728417763255848,-2.2125629077641914e-06,0.0010908285385922067,-0.002181661564992912,9.872828601329456,62.70765433070169,-86.375
1772316041.5173821,3.4685029742578554e-06,1.5343346970816114,-8.662168371811909,-0.2517737625810718,-1.4809968738294184,9.728417763255848,-2.2125629077641914e-06,0.0010908285385922067,-0.002181661564992912,9.872828601329456,62.70765433070169,-86.375
1772316041.532141,3.4685029742578554e-06,1.5343346970816114,-8.662168371811909,-0.2501828544164629,-1.47748690978495,9.725601927414191,-0.0010930411014999709,0.0010886159756844426,-0.001090830782496456,10.247827829931996,62.708414953800826,-86.0
1772316041.5618308,3.4685029742578554e-06,1.5343346970816114,-8.662168371811909,-0.24912412280452426,-1.4751510679222237,9.723728020116514,-8.850251631056766e-06,0.004363314154368827,-0.001090830782496456,10.247827829931996,62.708414953800826,-86.0
1772316041.5935056,3.4685029742578554e-06,1.5343346970816114,-8.662168371811909,-0.24841954874358613,-1.4735965912556426,9.725826067450146,-0.0010974662273154994,0.003270273052868856,0.0,10.247827829931996,62.708414953800826,-86.0
1772316041.610873,3.4685029742578554e-06,1.5343346970816114,-8.662168371811909,-0.24841954874358613,-1.4735965912556426,9.725826067450146,-0.0010974662273154994,0.003270273052868856,0.0,10.247827829931996,62.708414953800826,-86.0
1772316041.644695,3.4685029742578554e-06,1.5343346970816114,-8.662168371811909,-0.24794387759201642,-1.4759072092248993,9.727222294513954,-0.0010930411014999709,0.0010886159756844426,0.002181661564992912,10.24871522354765,62.27091585376453,-86.0
1772316041.6776192,3.4685029742578554e-06,1.5343346970816114,-8.662168371811909,-0.250972428580466,-1.4774516846567691,9.72815146802804,0.0,0.0,0.001090830782496456,10.24871522354765,62.27091585376453,-86.0
1772316041.7062223,3.4685029742578554e-06,1.5343346970816114,-8.662168371811909,-0.250972428580466,-1.4774516846567691,9.72815146802804,0.0,0.0,0.001090830782496456,10.24871522354765,62.27091585376453,-86.0
1772316041.7327967,3.4685029742578554e-06,1.5343346970816114,-8.662168371811909,-0.25298789543214784,-1.4784795158037576,9.722079599207477,-0.0010886159756844426,-0.0010930411014999709,0.0,10.24871522354765,62.27091585376453,-86.375
1772316041.7600813,3.4685029742578554e-06,1.5343346970816114,-8.662168371811909,-0.2543291661077022,-1.4791635259504519,9.724729061749251,2.2125629077641914e-06,-0.0010908285385922067,0.002181661564992912,10.24871522354765,62.27091585376453,-86.375
1772316041.7932572,3.4685029742578554e-06,1.5343346970816114,-8.662168371811909,-0.2543291661077022,-1.4791635259504519,9.724729061749251,2.2125629077641914e-06,-0.0010908285385922067,0.002181661564992912,10.24871522354765,62.27091585376453,-86.375
1772316041.8097684,3.4685029742578554e-06,1.5343346970816114,-8.662168371811909,-0.2518766619330842,-1.4796119420775597,9.726492249474365,2.2125629077641914e-06,-0.0010908285385922067,-0.001090830782496456,10.24871522354765,62.27091585376453,-85.5625
1772316041.8403494,3.4685029742578554e-06,1.5343346970816114,-8.662168371811909,-0.2518766619330842,-1.4796119420775597,9.726492249474365,2.2125629077641914e-06,-0.0010908285385922067,-0.001090830782496456,10.24871522354765,62.27091585376453,-85.5625
1772316041.8778841,3.4685029742578554e-06,1.5343346970816114,-8.662168371811909,-0.24690622795954173,-1.476558468190166,9.72766563120933,0.0,0.0,-0.001090830782496456,10.24871522354765,62.27091585376453,-85.5625
1772316041.9402053,3.4685029742578554e-06,1.5343346970816114,-8.662168371811909,-0.2435984596735348,-1.4745264154276438,9.725101391939099,-4.425125815528383e-06,0.0021816570771844134,-0.001090830782496456,9.875237241143374,61.520156773460315,-85.0625
1772316041.980521,3.4685029742578554e-06,1.5343346970816114,-8.662168371811909,-0.2480873864818385,-1.4731876769829486,9.723394919349188,0.0010886159756844426,0.0010930411014999709,-0.002181661564992912,9.875237241143374,61.520156773460315,-85.0625
1772316042.0110407,3.4685029742578554e-06,1.5343346970816114,-8.662168371811909,-0.2480873864818385,-1.4731876769829486,9.723394919349188,0.0010886159756844426,0.0010930411014999709,-0.002181661564992912,9.875237241143374,61.520156773460315,-85.0625
1772316042.0289454,3.4685029742578554e-06,1.5343346970816114,-8.662168371811909,-0.2510611471589198,-1.4789869711551409,9.72894950431779,-2.2125629077641914e-06,0.0010908285385922067,-0.001090830782496456,10.247827829931996,62.708414953800826,-86.6875
1772316042.0416474,3.4685029742578554e-06,1.5343346970816114,-8.662168371811909,-0.2510611471589198,-1.4789869711551409,9.72894950431779,-2.2125629077641914e-06,0.0010908285385922067,-0.001090830782496456,10.247827829931996,62.708414953800826,-86.6875
1772316042.0550632,3.4685029742578554e-06,1.5343346970816114,-8.662168371811909,-0.2563852564966584,-1.4828531216289977,9.732646018565614,-0.002179444514276649,-0.0010952536644077352,0.0,10.247827829931996,62.708414953800826,-86.6875
1772316042.0697217,3.4685029742578554e-06,1.5343346970816114,-8.662168371811909,-0.25994196175597184,-1.4787357919291702,9.735106007504772,-0.002177231951368885,-0.0021860822029999417,0.0,10.247827829931996,62.708414953800826,-86.6875
1772316042.109972,3.4685029742578554e-06,1.5343346970816114,-8.662168371811909,-0.25994196175597184,-1.4787357919291702,9.735106007504772,-0.002177231951368885,-0.0021860822029999417,0.0,10.247827829931996,62.708414953800826,-86.6875
1772316042.1493838,3.4685029742578554e-06,1.5343346970816114,-8.662168371811909,-0.262308909375044,-1.4759957550075216,9.740088214371223,0.0,0.0,0.0,9.12447816083916,61.89363475586459,-85.0625
1772316042.186877,3.4685029742578554e-06,1.5343346970816114,-8.662168371811909,-0.2571938769225506,-1.4741587210751355,9.74340381738595,2.2125629077641914e-06,-0.0010908285385922067,0.0,9.12447816083916,61.89363475586459,-85.0625
1772316042.2057378,3.4685029742578554e-06,1.5343346970816114,-8.662168371811909,-0.2537898799640726,-1.472936195514146,9.73557497903258,-0.002179444514276649,-0.0010952536644077352,0.001090830782496456,10.249475846646783,61.89591662516199,-86.0
1772316042.2221577,3.4685029742578554e-06,1.5343346970816114,-8.662168371811909,-0.2548696628395673,-1.4721294033944363,9.730364974562265,-0.0010930411014999709,0.0010886159756844426,0.001090830782496456,10.249475846646783,61.89591662516199,-86.0
1772316042.23842,3.4685029742578554e-06,1.5343346970816114,-8.662168371811909,-0.2548696628395673,-1.4721294033944363,9.730364974562265,-0.0010930411014999709,0.0010886159756844426,0.001090830782496456,10.249475846646783,61.89591662516199,-86.0
1772316042.2547688,3.4685029742578554e-06,1.5343346970816114,-8.662168371811909,-0.255588246281244,-1.4715924922512278,9.723552663079516,0.001095253664407735,-0.0021794445142766495,-0.001090830782496456,10.249475846646783,61.89591662516199,-86.0
1772316042.2793407,3.4685029742578554e-06,1.5343346970816114,-8.662168371811909,-0.2593979903915543,-1.4779321785201853,9.722364257593572,-0.001095253664407735,0.0021794445142766495,-0.001090830782496456,10.249475846646783,61.89591662516199,-86.0
1772316042.298132,3.4685029742578554e-06,1.5343346970816114,-8.662168371811909,-0.2593979903915543,-1.4779321785201853,9.722364257593572,-0.001095253664407735,0.0021794445142766495,-0.001090830782496456,10.249475846646783,61.89591662516199,-86.0
1772316042.3224409,3.4685029742578554e-06,1.5343346970816114,-8.662168371811909,-0.26193333253933565,-1.4821511689132405,9.714883163603396,-0.001095253664407735,0.0021794445142766495,-0.002181661564992912,10.249475846646783,61.89591662516199,-86.0
1772316042.34119,3.4685029742578554e-06,1.5343346970816114,-8.662168371811909,-0.25693036476460807,-1.484945289921361,9.71324969082955,0.002179444514276649,0.0010952536644077352,0.001090830782496456,10.250870322328526,61.20841803939066,-86.0
1772316042.3619719,3.4685029742578554e-06,1.5343346970816114,-8.662168371811909,-0.2536077305819622,-1.4834596414136643,9.71216263294564,-4.425125815528383e-06,0.0021816570771844134,0.002181661564992912,10.250870322328526,61.20841803939066,-86.0
1772316042.4090042,3.4685029742578554e-06,1.5343346970816114,-8.662168371811909,-0.25139655464966715,-1.4824709589275733,9.71143920806713,-0.0021860822029999417,0.002177231951368885,-0.001090830782496456,10.250870322328526,61.20841803939066,-86.0
1772316042.4235427,3.4685029742578554e-06,1.5343346970816114,-8.662168371811909,-0.25139655464966715,-1.4824709589275733,9.71143920806713,-0.0021860822029999417,0.002177231951368885,-0.001090830782496456,10.250870322328526,61.20841803939066,-86.0
1772316042.4535584,3.4685029742578554e-06,1.5343346970816114,-8.662168371811909,-0.24992504176717836,-1.481813001777387,9.714302888598986,-0.0010930411014999709,0.0010886159756844426,0.0,10.249475846646783,61.89591662516199,-84.75
1772316042.4677966,3.4685029742578554e-06,1.5343346970816114,-8.662168371811909,-0.248945766381758,-1.4813751386438008,9.71620863600353,-0.0010908285385922067,-2.2125629077641914e-06,0.0,10.249475846646783,61.89591662516199,-84.75
1772316042.4910955,3.4685029742578554e-06,1.5343346970816114,-8.662168371811909,-0.248945766381758,-1.4813751386438008,9.71620863600353,-0.0010908285385922067,-2.2125629077641914e-06,0.0,10.249475846646783,61.89591662516199,-84.75
1772316042.5175204,3.4685029742578554e-06,1.5343346970816114,-8.662168371811909,-0.2482940695519836,-1.4810837456196508,9.71747688961266,2.2125629077641914e-06,-0.0010908285385922067,0.001090830782496456,10.249475846646783,61.89591662516199,-87.0625
1772316042.5442564,3.4685029742578554e-06,1.5343346970816114,-8.662168371811909,-0.24786037259169938,-1.4808898268171524,9.714975786514897,0.001095253664407735,-0.0021794445142766495,0.001090830782496456,10.249475846646783,61.89591662516199,-87.0625
1772316042.5593097,3.4685029742578554e-06,1.5343346970816114,-8.662168371811909,-0.24757175210934265,-1.4807607760203045,9.713311330342487,-0.001084190849868914,-0.003274698178684385,0.0,10.249475846646783,61.89591662516199,-87.0625
1772316042.5908787,3.4685029742578554e-06,1.5343346970816114,-8.662168371811909,-0.24757175210934265,-1.4807607760203045,9.713311330342487,-0.001084190849868914,-0.003274698178684385,0.0,10.249475846646783,61.89591662516199,-87.0625
1772316042.6391752,3.4685029742578554e-06,1.5343346970816114,-8.662168371811909,-0.24737967840243633,-1.4806748941565944,9.71554876506026,-0.0021860822029999417,0.002177231951368885,-0.001090830782496456,9.436977518007945,61.8942686084472,-85.1875
1772316042.688514,3.4685029742578554e-06,1.5343346970816114,-8.662168371811909,-0.24716679077979864,-1.4805797057724712,9.72917114998861,-0.0010930411014999709,0.0010886159756844426,-0.001090830782496456,10.247827829931996,62.708414953800826,-85.5625
1772316042.7499523,3.4685029742578554e-06,1.5343346970816114,-8.662168371811909,-0.24376507633511493,-1.480547608944725,9.732793521283602,-0.0010930411014999709,0.0010886159756844426,0.0,10.247827829931996,62.708414953800826,-85.5625
1772316042.783035,3.4685029742578554e-06,1.5343346970816114,-8.662168371811909,-0.24376507633511493,-1.480547608944725,9.732793521283602,-0.0010930411014999709,0.0010886159756844426,0.0,10.247827829931996,62.708414953800826,-85.5625
1772316042.8103297,3.4685029742578554e-06,1.5343346970816114,-8.662168371811909,-0.24150127337181812,-1.4805262488644049,9.73520416891588,-0.0010886159756844426,-0.0010930411014999709,0.003272492347489368,9.87371599494511,62.270155230665395,-86.0
1772316042.8371687,3.4685029742578554e-06,1.5343346970816114,-8.662168371811909,-0.23999473778808017,-1.4805120339695597,9.736808427986462,4.425125815528383e-06,-0.0021816570771844134,-0.001090830782496456,9.87371599494511,62.270155230665395,-86.0
1772316042.877652,3.4685029742578554e-06,1.5343346970816114,-8.662168371811909,-0.24234404499705536,-1.47716425427423,9.737876044477186,-0.0010930411014999709,0.0010886159756844426,0.0,9.123717537740028,62.26863398446713,-86.75
1772316042.9385426,3.4685029742578554e-06,1.5343346970816114,-8.662168371811909,-0.2439074827011473,-1.474936344284138,9.738586531325705,-4.425125815528383e-06,0.0021816570771844134,0.001090830782496456,9.123717537740028,62.26863398446713,-86.75
1772316042.9647944,3.4685029742578554e-06,1.5343346970816114,-8.662168371811909,-0.24494793302847695,-1.4734536950731167,9.735714240679417,-0.0010974662273154994,0.003270273052868856,-0.001090830782496456,9.874476618044243,61.895156002062855,-86.25
1772316043.017012,3.4685029742578554e-06,1.5343346970816114,-8.662168371811909,-0.24898544592494745,-1.4724737935700825,9.733802763339902,-2.2125629077641914e-06,0.0010908285385922067,0.001090830782496456,9.874476618044243,61.895156002062855,-86.25
1772316043.038559,3.4685029742578554e-06,1.5343346970816114,-8.662168371811909,-0.2516723656555742,-1.47182168006603,9.732530696523055,-0.0010908285385922067,-2.2125629077641914e-06,0.002181661564992912,10.250236469745914,61.52091739655945,-86.25
1772316043.0627348,3.4685029742578554e-06,1.5343346970816114,-8.662168371811909,-0.25011537589522215,-1.4713809208290451,9.73168415026636,0.0,0.0,0.001090830782496456,10.250236469745914,61.52091739655945,-86.25
1772316043.0978658,3.4685029742578554e-06,1.5343346970816114,-8.662168371811909,-0.24907243161779963,-1.4744327053066593,9.731120783189072,-0.002177231951368885,-0.0021860822029999417,0.001090830782496456,9.435329501293158,62.70676693708604,-85.0625
1772316043.1372309,3.4685029742578554e-06,1.5343346970816114,-8.662168371811909,-0.25172346867785017,-1.4764704187704683,9.73074586869236,-0.0010886159756844426,-0.0010930411014999709,-0.002181661564992912,9.435329501293158,62.70676693708604,-85.0625
1772316043.1549306,3.4685029742578554e-06,1.5343346970816114,-8.662168371811909,-0.25172346867785017,-1.4764704187704683,9.73074586869236,-0.0010886159756844426,-0.0010930411014999709,-0.002181661564992912,9.435329501293158,62.70676693708604,-85.0625
1772316043.2039337,3.4685029742578554e-06,1.5343346970816114,-8.662168371811909,-0.25131667845141464,-1.4787221624617066,9.730330326881962,-2.2125629077641914e-06,0.0010908285385922067,0.001090830782496456,10.24871522354765,62.27091585376453,-85.1875
1772316043.2249336,3.4685029742578554e-06,1.5343346970816114,-8.662168371811909,-0.24987867003414027,-1.4759731147799287,9.730219828849952,-0.0010908285385922067,-2.2125629077641914e-06,-0.001090830782496456,10.24871522354765,62.27091585376453,-85.1875
1772316043.2466295,3.4685029742578554e-06,1.5343346970816114,-8.662168371811909,-0.24987867003414027,-1.4759731147799287,9.730219828849952,-0.0010908285385922067,-2.2125629077641914e-06,-0.001090830782496456,10.24871522354765,62.27091585376453,-85.1875
1772316043.267741,3.4685029742578554e-06,1.5343346970816114,-8.662168371811909,-0.24891490651142734,-1.4774887590828045,9.723456070229355,-0.0010864034127766784,-0.002183869640092178,0.001090830782496456,10.93773505551724,61.52231187224119,-86.0
1772316043.2953188,3.4685029742578554e-06,1.5343346970816114,-8.662168371811909,-0.24492164284215825,-1.481835723277113,9.718954864423482,2.2125629077641914e-06,-0.0010908285385922067,0.001090830782496456,10.93773505551724,61.52231187224119,-86.0
1772316043.3268564,3.4685029742578554e-06,1.5343346970816114,-8.662168371811909,-0.24492164284215825,-1.481835723277113,9.718954864423482,2.2125629077641914e-06,-0.0010908285385922067,0.001090830782496456,10.93773505551724,61.52231187224119,-86.0
1772316043.360157,3.4685029742578554e-06,1.5343346970816114,-8.662168371811909,-0.2489543801303862,-1.4847421493589004,9.725994697363396,0.0,0.0,0.0,9.872828601329456,62.70765433070169,-85.5
1772316043.3919332,3.4685029742578554e-06,1.5343346970816114,-8.662168371811909,-0.2516381217470747,-1.4866763434494232,9.730679627544822,2.2125629077641914e-06,-0.0010908285385922067,-0.001090830782496456,9.872828601329456,62.70765433070169,-85.5
1772316043.4211721,3.4685029742578554e-06,1.5343346970816114,-8.662168371811909,-0.25342412181362267,-1.4879635280103025,9.730452284539142,2.2125629077641914e-06,-0.0010908285385922067,-0.001090830782496456,10.24871522354765,62.27091585376453,-85.5
1772316043.4586387,3.4685029742578554e-06,1.5343346970816114,-8.662168371811909,-0.25126758008075806,-1.4888133499721505,9.73030099030845,-0.0021816570771844134,-4.425125815528383e-06,0.001090830782496456,10.24871522354765,62.27091585376453,-85.5
1772316043.47946,3.4685029742578554e-06,1.5343346970816114,-8.662168371811909,-0.25126758008075806,-1.4888133499721505,9.73030099030845,-0.0021816570771844134,-4.425125815528383e-06,0.001090830782496456,10.24871522354765,62.27091585376453,-85.5
1772316043.5205657,3.4685029742578554e-06,1.5343346970816114,-8.662168371811909,-0.24983921063230974,-1.4860337921684028,9.730200305687992,-4.425125815528383e-06,0.0021816570771844134,0.0,9.436216894908812,62.26926783704974,-86.75
1772316043.549084,3.4685029742578554e-06,1.5343346970816114,-8.662168371811909,-0.2522337515465238,-1.484190812484327,9.72678818949048,0.0010886159756844426,0.0010930411014999709,-0.001090830782496456,9.436216894908812,62.26926783704974,-86.75
1772316043.5685806,3.4685029742578554e-06,1.5343346970816114,-8.662168371811909,-0.2522337515465238,-1.484190812484327,9.72678818949048,0.0010886159756844426,0.0010930411014999709,-0.001090830782496456,9.436216894908812,62.26926783704974,-86.75
1772316043.6365576,3.4685029742578554e-06,1.5343346970816114,-8.662168371811909,-0.2571791815870063,-1.479626010250406,9.727862575984188,0.0010930411014999709,-0.0010886159756844426,0.001090830782496456,9.12447816083916,61.89363475586459,-86.0
1772316043.667953,3.4685029742578554e-06,1.5343346970816114,-8.662168371811909,-0.2638154148610983,-1.476594970340537,9.728577568194067,0.0,0.0,0.002181661564992912,9.12447816083916,61.89363475586459,-86.0
1772316043.6938386,3.4685029742578554e-06,1.5343346970816114,-8.662168371811909,-0.2638154148610983,-1.476594970340537,9.728577568194067,0.0,0.0,0.002181661564992912,9.12447816083916,61.89363475586459,-86.0
1772316043.7671611,3.4685029742578554e-06,1.5343346970816114,-8.662168371811909,-0.26447378368186375,-1.4765670090388523,9.734941286151942,0.0,0.0,0.0,9.87371599494511,62.270155230665395,-86.25
1772316043.8137605,3.4685029742578554e-06,1.5343346970816114,-8.662168371811909,-0.26447378368186375,-1.4765670090388523,9.734941286151942,0.0,0.0,0.0,9.87371599494511,62.270155230665395,-86.25
1772316043.8809705,3.4685029742578554e-06,1.5343346970816114,-8.662168371811909,-0.2569634790779147,-1.4787649399137033,9.734414508465397,0.0021860822029999417,-0.002177231951368885,0.0,9.87371599494511,62.270155230665395,-85.5
1772316043.9513037,3.4685029742578554e-06,1.5343346970816114,-8.662168371811909,-0.2569634790779147,-1.4787649399137033,9.734414508465397,0.0021860822029999417,-0.002177231951368885,0.0,9.87371599494511,62.270155230665395,-85.5
1772316044.00614,3.4685029742578554e-06,1.5343346970816114,-8.662168371811909,-0.2514112201638185,-1.4797338340577761,9.726383830941234,0.0010908285385922067,2.2125629077641914e-06,0.0,10.24871522354765,62.27091585376453,-84.75
1772316044.0625517,3.4685029742578554e-06,1.5343346970816114,-8.662168371811909,-0.25328669131386916,-1.4766531559106242,9.724248368179328,0.0010974662273154994,-0.003270273052868856,0.0,10.250236469745914,61.52091739655945,-86.0
1772316044.0933692,3.4685029742578554e-06,1.5343346970816114,-8.662168371811909,-0.2545347964138425,-1.4746029990171243,9.726172353273281,-0.0010864034127766784,-0.002183869640092178,-0.002181661564992912,10.250236469745914,61.52091739655945,-86.0
1772316044.1200256,3.4685029742578554e-06,1.5343346970816114,-8.662168371811909,-0.2545347964138425,-1.4746029990171243,9.726172353273281,-0.0010864034127766784,-0.002183869640092178,-0.002181661564992912,10.250236469745914,61.52091739655945,-86.0
1772316044.149076,3.4685029742578554e-06,1.5343346970816114,-8.662168371811909,-0.25201350660477956,-1.4765769623478542,9.730797855568303,2.2125629077641914e-06,-0.0010908285385922067,0.001090830782496456,9.123717537740028,62.26863398446713,-86.0
1772316044.185681,3.4685029742578554e-06,1.5343346970816114,-8.662168371811909,-0.24921899921448035,-1.4787648326577547,9.735924596770692,0.0010908285385922067,2.2125629077641914e-06,-0.003272492347489368,9.123717537740028,62.26863398446713,-85.5625
1772316044.23645,3.4685029742578554e-06,1.5343346970816114,-8.662168371811909,-0.24921899921448035,-1.4787648326577547,9.735924596770692,0.0010908285385922067,2.2125629077641914e-06,-0.003272492347489368,9.123717537740028,62.26863398446713,-85.5625
1772316044.2629356,3.4685029742578554e-06,1.5343346970816114,-8.662168371811909,-0.25181422279155047,-1.4826985059558133,9.737287864676134,0.0,0.0,0.0,9.123717537740028,62.26863398446713,-85.5625
1772316044.3220162,3.4685029742578554e-06,1.5343346970816114,-8.662168371811909,-0.25354131509154376,-1.4853163215936616,9.731504880823865,-4.425125815528383e-06,0.0021816570771844134,0.001090830782496456,10.249475846646783,61.89591662516199,-86.25
1772316044.3547978,3.4685029742578554e-06,1.5343346970816114,-8.662168371811909,-0.25354131509154376,-1.4853163215936616,9.731504880823865,-4.425125815528383e-06,0.0021816570771844134,0.001090830782496456,10.249475846646783,61.89591662516199,-86.25
1772316044.3999746,3.4685029742578554e-06,1.5343346970816114,-8.662168371811909,-0.25546234737083007,-1.484872709931813,9.719523982307166,6.637688723292574e-06,-0.0032724856157766206,0.001090830782496456,9.875237241143374,61.520156773460315,-85.1875
1772316044.4549398,3.4685029742578554e-06,1.5343346970816114,-8.662168371811909,-0.25597588623145595,-1.4834181252260152,9.726373438957523,-0.0010864034127766784,-0.002183869640092178,0.001090830782496456,9.875237241143374,61.520156773460315,-85.1875
1772316044.5209281,3.4685029742578554e-06,1.5343346970816114,-8.662168371811909,-0.25631085562197414,-1.4857952201793068,9.730931675844893,0.0,0.0,-0.001090830782496456,9.87371599494511,62.270155230665395,-86.0
1772316044.552411,3.4685029742578554e-06,1.5343346970816114,-8.662168371811909,-0.2565337740095107,-1.4873771503168318,9.727274908159956,-2.2125629077641914e-06,0.0010908285385922067,0.001090830782496456,9.87371599494511,62.270155230665395,-86.0
1772316044.6348002,3.4685029742578554e-06,1.5343346970816114,-8.662168371811909,-0.25335058884927725,-1.4817329125149654,9.724841370114401,-0.002179444514276649,-0.0010952536644077352,0.0,9.875871093725985,61.207657416291525,-85.5625
1772316044.6564562,3.4685029742578554e-06,1.5343346970816114,-8.662168371811909,-0.25123221468365,-1.4779767353080906,9.723221877729486,-0.0010908285385922067,-2.2125629077641914e-06,-0.002181661564992912,9.875871093725985,61.207657416291525,-85.5625
1772316044.6877835,3.4685029742578554e-06,1.5343346970816114,-8.662168371811909,-0.24982246034021507,-1.4754770413361642,9.722144123638241,-2.2125629077641914e-06,0.0010908285385922067,-0.001090830782496456,9.12447816083916,61.89363475586459,-86.6875
1772316044.7660105,3.4685029742578554e-06,1.5343346970816114,-8.662168371811909,-0.24888428457264689,-1.4738135229212583,9.72142689032982,-2.2125629077641914e-06,0.0010908285385922067,0.0,9.12447816083916,61.89363475586459,-86.6875
1772316044.816993,3.4685029742578554e-06,1.5343346970816114,-8.662168371811909,-0.251611828890288,-1.469368150157256,9.720949579575086,-0.001095253664407735,0.0021794445142766495,-0.001090830782496456,9.875237241143374,61.520156773460315,-85.5625
1772316044.8447955,3.4685029742578554e-06,1.5343346970816114,-8.662168371811909,-0.2500818743387874,-1.4664030192562565,9.72397704630704,-0.001095253664407735,0.0021794445142766495,-0.002181661564992912,9.875237241143374,61.520156773460315,-85.5625
1772316044.8624542,3.4685029742578554e-06,1.5343346970816114,-8.662168371811909,-0.25239524153245346,-1.4711267524013956,9.722646679890817,-0.0010974662273154994,0.003270273052868856,-0.001090830782496456,9.875237241143374,61.520156773460315,-85.5625
1772316044.9170258,3.4685029742578554e-06,1.5343346970816114,-8.662168371811909,-0.2539347615578335,-1.4742703440419291,9.725106447609306,0.0010886159756844426,0.0010930411014999709,0.0,10.249475846646783,61.89591662516199,-86.375
1772316044.9523728,3.4685029742578554e-06,1.5343346970816114,-8.662168371811909,-0.25495929493715835,-1.4763623691624845,9.726743395548555,-0.0010908285385922067,-2.2125629077641914e-06,0.0,10.249475846646783,61.89591662516199,-86.375
1772316044.985102,3.4685029742578554e-06,1.5343346970816114,-8.662168371811909,-0.2556411104563113,-1.4777545885107626,9.734522989530857,0.0,0.0,0.0,10.249475846646783,61.89591662516199,-86.375
1772316045.044827,3.4685029742578554e-06,1.5343346970816114,-8.662168371811909,-0.25274974624170493,-1.4786743099503088,9.739700222422321,0.0010930411014999709,-0.0010886159756844426,0.0,9.875871093725985,61.207657416291525,-86.375
1772316045.0763645,3.4685029742578554e-06,1.5343346970816114,-8.662168371811909,-0.25274974624170493,-1.4786743099503088,9.739700222422321,0.0010930411014999709,-0.0010886159756844426,0.0,9.875871093725985,61.207657416291525,-86.375
1772316045.115199,3.4685029742578554e-06,1.5343346970816114,-8.662168371811909,-0.24955636194093636,-1.474122461557321,9.739867235890806,-0.002183869640092178,0.0010864034127766784,-0.001090830782496456,9.435329501293158,62.70676693708604,-86.6875
1772316045.1454535,3.4685029742578554e-06,1.5343346970816114,-8.662168371811909,-0.24870041407581744,-1.47625717003631,9.736566535261085,-6.637688723292574e-06,0.0032724856157766206,0.001090830782496456,9.435329501293158,62.70676693708604,-86.6875
1772316045.1787963,3.4685029742578554e-06,1.5343346970816114,-8.662168371811909,-0.2514758951593693,-1.4776845796674445,9.741060179277886,-0.0010864034127766784,-0.002183869640092178,0.0,9.435329501293158,62.70676693708604,-86.6875
1772316045.2055876,3.4685029742578554e-06,1.5343346970816114,-8.662168371811909,-0.2514758951593693,-1.4776845796674445,9.741060179277886,-0.0010864034127766784,-0.002183869640092178,0.0,9.435329501293158,62.70676693708604,-86.6875
1772316045.2371886,3.4685029742578554e-06,1.5343346970816114,-8.662168371811909,-0.25332294681631784,-1.4786345048317542,9.737360425759135,-0.0010908285385922067,-2.2125629077641914e-06,0.0,9.872194748746844,63.020153687870476,-85.5
1772316045.2598927,3.4685029742578554e-06,1.5343346970816114,-8.662168371811909,-0.25455892404572156,-1.4759215645910186,9.734898281121362,-6.637688723292574e-06,0.0032724856157766206,0.0,9.872194748746844,63.020153687870476,-85.5
1772316045.2887118,3.4685029742578554e-06,1.5343346970816114,-8.662168371811909,-0.25203634825889515,-1.4741093481817138,9.73325975136888,-0.001095253664407735,0.0021794445142766495,-0.002181661564992912,9.872194748746844,63.020153687870476,-85.5
1772316045.3169773,3.4685029742578554e-06,1.5343346970816114,-8.662168371811909,-0.2503440322825333,-1.479593548057554,9.735514439829501,0.0,0.0,0.0,9.436977518007945,61.8942686084472,-86.0
1772316045.3400621,3.4685029742578554e-06,1.5343346970816114,-8.662168371811909,-0.2503440322825333,-1.479593548057554,9.735514439829501,0.0,0.0,0.0,9.436977518007945,61.8942686084472,-86.0
1772316045.3539171,3.4685029742578554e-06,1.5343346970816114,-8.662168371811909,-0.2525629197308969,-1.483250006797022,9.737014909813523,-0.0010908285385922067,-2.2125629077641914e-06,0.0,9.436977518007945,61.8942686084472,-86.0
1772316045.3684955,3.4685029742578554e-06,1.5343346970816114,-8.662168371811909,-0.2525629197308969,-1.483250006797022,9.737014909813523,-0.0010908285385922067,-2.2125629077641914e-06,0.0,9.436977518007945,61.8942686084472,-86.0
1772316045.407798,3.4685029742578554e-06,1.5343346970816114,-8.662168371811909,-0.2540463495258094,-1.4823382344165936,9.734668344119223,-0.0010908285385922067,-2.2125629077641914e-06,-0.001090830782496456,10.93697443241811,61.89731110084373,-85.5625
1772316045.4300416,3.4685029742578554e-06,1.5343346970816114,-8.662168371811909,-0.2516884506571027,-1.4817246750979596,9.726416507447883,4.425125815528383e-06,-0.0021816570771844134,-0.001090830782496456,10.93697443241811,61.89731110084373,-85.5625
1772316045.4476526,3.4685029742578554e-06,1.5343346970816114,-8.662168371811909,-0.2516884506571027,-1.4817246750979596,9.726416507447883,4.425125815528383e-06,-0.0021816570771844134,-0.001090830782496456,10.93697443241811,61.89731110084373,-85.5625
1772316045.488154,3.4685029742578554e-06,1.5343346970816114,-8.662168371811909,-0.2516884506571027,-1.4817246750979596,9.726416507447883,4.425125815528383e-06,-0.0021816570771844134,-0.001090830782496456,10.93697443241811,61.89731110084373,-85.5625
1772316045.5412445,3.4685029742578554e-06,1.5343346970816114,-8.662168371811909,-0.25011929529943466,-1.4813163582253155,9.727615225736802,-0.0010908285385922067,-2.2125629077641914e-06,0.0,10.247193977349385,63.02091431096961,-85.1875
1772316045.5723927,3.4685029742578554e-06,1.5343346970816114,-8.662168371811909,-0.2524133597791214,-1.484396517718617,9.721722735952877,-0.0010908285385922067,-2.2125629077641914e-06,0.001090830782496456,10.247193977349385,63.02091431096961,-85.1875
1772316045.6175902,3.4685029742578554e-06,1.5343346970816114,-8.662168371811909,-0.2539400340639735,-1.4864463294537729,9.717801349825098,0.0,0.0,-0.001090830782496456,9.436216894908812,62.26926783704974,-86.0
1772316045.635079,3.4685029742578554e-06,1.5343346970816114,-8.662168371811909,-0.2539400340639735,-1.4864463294537729,9.717801349825098,0.0,0.0,-0.001090830782496456,9.436216894908812,62.26926783704974,-86.0
1772316045.6670063,3.4685029742578554e-06,1.5343346970816114,-8.662168371811909,-0.2549695887157201,-1.4811202466131734,9.715191711161816,-0.0021860822029999417,0.002177231951368885,0.0,9.436216894908812,62.26926783704974,-86.0
1772316045.7002633,3.4685029742578554e-06,1.5343346970816114,-8.662168371811909,-0.2549695887157201,-1.4811202466131734,9.715191711161816,-0.0021860822029999417,0.002177231951368885,0.0,9.436216894908812,62.26926783704974,-86.0
1772316045.753851,3.4685029742578554e-06,1.5343346970816114,-8.662168371811909,-0.2556547458355785,-1.477575797978998,9.720145249197614,-0.0010930411014999709,0.0010886159756844426,-0.001090830782496456,9.434695648710546,63.01926629425483,-85.0625
1772316045.796648,3.4685029742578554e-06,1.5343346970816114,-8.662168371811909,-0.25610392526051434,-1.4785621118332641,9.723441773425792,0.0,0.0,0.0,9.434695648710546,63.01926629425483,-85.0625
1772316045.8353052,3.4685029742578554e-06,1.5343346970816114,-8.662168371811909,-0.25640284915014616,-1.4792184926854306,9.725635573475056,-0.0010930411014999709,0.0010886159756844426,0.0,9.125238783938292,61.51863552726205,-85.5
1772316045.8647728,3.4685029742578554e-06,1.5343346970816114,-8.662168371811909,-0.2532566748332733,-1.4796485218256694,9.72709552290149,-0.002177231951368885,-0.0021860822029999417,0.001090830782496456,9.125238783938292,61.51863552726205,-85.5
1772316045.9173722,3.4685029742578554e-06,1.5343346970816114,-8.662168371811909,-0.2511629309704643,-1.4799347014147581,9.731412214643395,0.0,0.0,0.0,9.436977518007945,61.8942686084472,-85.5
1772316045.9368727,3.4685029742578554e-06,1.5343346970816114,-8.662168371811909,-0.25311467264464066,-1.4801319357190845,9.734284924777027,-2.2125629077641914e-06,0.0010908285385922067,0.002181661564992912,9.436977518007945,61.8942686084472,-85.5
1772316045.989644,3.4685029742578554e-06,1.5343346970816114,-8.662168371811909,-0.25311467264464066,-1.4801319357190845,9.734284924777027,-2.2125629077641914e-06,0.0010908285385922067,0.002181661564992912,9.436977518007945,61.8942686084472,-85.5
1772316046.0356467,3.4685029742578554e-06,1.5343346970816114,-8.662168371811909,-0.2544067499417985,-1.4836082977715865,9.736196681280685,-0.0010864034127766784,-0.002183869640092178,0.001090830782496456,10.250236469745914,61.52091739655945,-86.0
1772316046.062054,3.4685029742578554e-06,1.5343346970816114,-8.662168371811909,-0.25192150812338376,-1.4859149928993947,9.73746893387815,2.2125629077641914e-06,-0.0010908285385922067,0.0,10.250236469745914,61.52091739655945,-86.0
1772316046.132901,3.4685029742578554e-06,1.5343346970816114,-8.662168371811909,-0.24917374002042617,-1.4851265463988637,9.732188829710083,4.425125815528383e-06,-0.0021816570771844134,-0.001090830782496456,10.250236469745914,61.52091739655945,-85.1875
1772316046.1518807,3.4685029742578554e-06,1.5343346970816114,-8.662168371811909,-0.2517976732727325,-1.480241945733074,9.72811153001391,0.0,0.0,0.001090830782496456,10.623714452150192,62.27167647686366,-85.0625
1772316046.1904998,3.4685029742578554e-06,1.5343346970816114,-8.662168371811909,-0.25354387154088737,-1.4769912985545557,9.72874324431985,0.0010886159756844426,0.0010930411014999709,0.0,10.623714452150192,62.27167647686366,-85.0625
1772316046.2070773,3.4685029742578554e-06,1.5343346970816114,-8.662168371811909,-0.2547059469820317,-1.4748280291693598,9.73250875484106,0.002183869640092178,-0.0010864034127766784,-0.001090830782496456,10.623714452150192,62.27167647686366,-85.0625
1772316046.2421374,3.4685029742578554e-06,1.5343346970816114,-8.662168371811909,-0.2547059469820317,-1.4748280291693598,9.73250875484106,0.002183869640092178,-0.0010864034127766784,-0.001090830782496456,10.623714452150192,62.27167647686366,-85.0625
1772316046.255132,3.4685029742578554e-06,1.5343346970816114,-8.662168371811909,-0.25212740539603234,-1.4767267174004153,9.735014660029417,0.0021816570771844134,4.425125815528383e-06,0.001090830782496456,9.874476618044243,61.895156002062855,-86.0
1772316046.272199,3.4685029742578554e-06,1.5343346970816114,-8.662168371811909,-0.25212740539603234,-1.4767267174004153,9.735014660029417,0.0021816570771844134,4.425125815528383e-06,0.001090830782496456,9.874476618044243,61.895156002062855,-86.0
1772316046.299615,3.4685029742578554e-06,1.5343346970816114,-8.662168371811909,-0.2504114147747466,-1.4779902732084456,9.736682311939473,0.0010930411014999709,-0.0010886159756844426,-0.001090830782496456,9.874476618044243,61.895156002062855,-86.0
1772316046.3177948,3.4685029742578554e-06,1.5343346970816114,-8.662168371811909,-0.2504114147747466,-1.4779902732084456,9.736682311939473,0.0010930411014999709,-0.0010886159756844426,-0.001090830782496456,9.874476618044243,61.895156002062855,-86.0
1772316046.34118,3.4685029742578554e-06,1.5343346970816114,-8.662168371811909,-0.2492694421851522,-1.4788311554838462,9.737792115656724,0.0,0.0,-0.001090830782496456,10.24871522354765,62.27091585376453,-85.5
1772316046.3582044,3.4685029742578554e-06,1.5343346970816114,-8.662168371811909,-0.24850947218344685,-1.4793907532448551,9.735185565925915,0.001095253664407735,-0.0021794445142766495,0.0,10.24871522354765,62.27091585376453,-85.5
1772316046.3890152,3.4685029742578554e-06,1.5343346970816114,-8.662168371811909,-0.248003720636733,-1.47976315930369,9.73345093619713,0.0010930411014999709,-0.0010886159756844426,0.0,10.24871522354765,62.27091585376453,-85.5
1772316046.4046955,3.4685029742578554e-06,1.5343346970816114,-8.662168371811909,-0.24765357866276325,-1.4867012010282448,9.732296559489708,0.0010974662273154994,-0.003270273052868856,-0.002181661564992912,10.624475075249325,61.89667724826112,-85.0625
1772316046.4229512,3.4685029742578554e-06,1.5343346970816114,-8.662168371811909,-0.24742056309042842,-1.4913183902929317,9.73152833468615,-2.2125629077641914e-06,0.0010908285385922067,-0.001090830782496456,10.624475075249325,61.89667724826112,-85.0625
1772316046.461484,3.4685029742578554e-06,1.5343346970816114,-8.662168371811909,-0.24742056309042842,-1.4913183902929317,9.73152833468615,-2.2125629077641914e-06,0.0010908285385922067,-0.001090830782496456,10.624475075249325,61.89667724826112,-85.0625
1772316046.4994068,3.4685029742578554e-06,1.5343346970816114,-8.662168371811909,-0.24727906379924092,-1.4877008685187487,9.734362201368334,0.002183869640092178,-0.0010864034127766784,0.001090830782496456,10.624475075249325,61.89667724826112,-85.0625
1772316046.5187943,3.4685029742578554e-06,1.5343346970816114,-8.662168371811909,-0.24718489760160628,-1.485293448188396,9.736248107988963,4.425125815528383e-06,-0.0021816570771844134,0.001090830782496456,10.24871522354765,62.27091585376453,-85.5625
1772316046.544349,3.4685029742578554e-06,1.5343346970816114,-8.662168371811909,-0.2471222310489857,-1.4836913368511935,9.734158046070716,-4.425125815528383e-06,0.0021816570771844134,0.0,10.24871522354765,62.27091585376453,-85.5625
1772316046.5654457,3.4685029742578554e-06,1.5343346970816114,-8.662168371811909,-0.2471222310489857,-1.4836913368511935,9.734158046070716,-4.425125815528383e-06,0.0021816570771844134,0.0,10.24871522354765,62.27091585376453,-85.5625
1772316046.603709,3.4685029742578554e-06,1.5343346970816114,-8.662168371811909,-0.24708052715824796,-1.4826251496530414,9.732767133211643,0.0010886159756844426,0.0010930411014999709,0.002181661564992912,10.625235698348456,61.52167801965858,-86.0
1772316046.650462,3.4685029742578554e-06,1.5343346970816114,-8.662168371811909,-0.24705277368482503,-1.4819156139827625,9.728496384534127,-0.002183869640092178,0.0010864034127766784,0.001090830782496456,10.625235698348456,61.52167801965858,-86.0
1772316046.6723638,3.4685029742578554e-06,1.5343346970816114,-8.662168371811909,-0.2537245137107372,-1.4814569958894717,9.725654248996628,-2.2125629077641914e-06,0.0010908285385922067,-0.001090830782496456,9.87371599494511,62.270155230665395,-85.0625
1772316046.6931694,3.4685029742578554e-06,1.5343346970816114,-8.662168371811909,-0.2537245137107372,-1.4814569958894717,9.725654248996628,-2.2125629077641914e-06,0.0010908285385922067,-0.001090830782496456,9.87371599494511,62.270155230665395,-85.0625
1772316046.717953,3.4685029742578554e-06,1.5343346970816114,-8.662168371811909,-0.2581644821697624,-1.4811517906714862,9.723762839545156,0.0010930411014999709,-0.0010886159756844426,0.0,9.87371599494511,62.270155230665395,-85.0625
1772316046.739026,3.4685029742578554e-06,1.5343346970816114,-8.662168371811909,-0.25442223694447424,-1.48428021486526,9.72250412768363,0.0,0.0,0.001090830782496456,9.87371599494511,62.270155230665395,-85.0625
1772316046.7627537,3.4685029742578554e-06,1.5343346970816114,-8.662168371811909,-0.25193181455066327,-1.4863621462194287,9.721666469000517,0.0010886159756844426,0.0010930411014999709,0.0,10.24871522354765,62.27091585376453,-86.25
1772316046.7911403,3.4685029742578554e-06,1.5343346970816114,-8.662168371811909,-0.25027446626742295,-1.4877476482789307,9.721109016504165,-0.0010930411014999709,0.0010886159756844426,0.0,10.24871522354765,62.27091585376453,-86.25
1772316046.8140857,3.4685029742578554e-06,1.5343346970816114,-8.662168371811909,-0.2525234093095676,-1.4853313645808564,9.727428261509635,-0.0010930411014999709,0.0010886159756844426,-0.002181661564992912,10.24871522354765,62.27091585376453,-86.25
1772316046.843678,3.4685029742578554e-06,1.5343346970816114,-8.662168371811909,-0.2525234093095676,-1.4853313645808564,9.727428261509635,-0.0010930411014999709,0.0010886159756844426,-0.002181661564992912,10.24871522354765,62.27091585376453,-86.25
1772316046.872112,3.4685029742578554e-06,1.5343346970816114,-8.662168371811909,-0.2540200557817751,-1.4837233547714452,9.731633648470183,0.0,0.0,0.0,9.12447816083916,61.89363475586459,-86.0
1772316046.919106,3.4685029742578554e-06,1.5343346970816114,-8.662168371811909,-0.25501605729039256,-1.4826532422059289,9.731087174807858,-0.0010908285385922067,-2.2125629077641914e-06,0.001090830782496456,9.12447816083916,61.89363475586459,-86.0
1772316046.943475,3.4685029742578554e-06,1.5343346970816114,-8.662168371811909,-0.25567888516831166,-1.4819410942475182,9.724033279275453,0.0010886159756844426,0.0010930411014999709,0.001090830782496456,10.624475075249325,61.89667724826112,-86.25
1772316046.968776,3.4685029742578554e-06,1.5343346970816114,-8.662168371811909,-0.2561267747014176,-1.4781220629101857,9.719338990595814,0.0010864034127766784,0.002183869640092178,0.0,10.624475075249325,61.89667724826112,-86.25
1772316046.9999852,3.4685029742578554e-06,1.5343346970816114,-8.662168371811909,-0.2561267747014176,-1.4781220629101857,9.719338990595814,0.0010864034127766784,0.002183869640092178,0.0,10.624475075249325,61.89667724826112,-86.25
1772316047.0269122,3.4685029742578554e-06,1.5343346970816114,-8.662168371811909,-0.2564248401824457,-1.475580540216566,9.719560105625472,-0.0010930411014999709,0.0010886159756844426,-0.001090830782496456,9.875871093725985,61.207657416291525,-85.5625
1772316047.046094,3.4685029742578554e-06,1.5343346970816114,-8.662168371811909,-0.2564248401824457,-1.475580540216566,9.719560105625472,-0.0010930411014999709,0.0010886159756844426,-0.001090830782496456,9.875871093725985,61.207657416291525,-85.5625
1772316047.0634189,3.4685029742578554e-06,1.5343346970816114,-8.662168371811909,-0.24993298977801182,-1.4738756152853845,9.723052366915013,4.425125815528383e-06,-0.0021816570771844134,0.0,9.875871093725985,61.207657416291525,-85.5625
1772316047.0806015,3.4685029742578554e-06,1.5343346970816114,-8.662168371811909,-0.24993298977801182,-1.4738756152853845,9.723052366915013,4.425125815528383e-06,-0.0021816570771844134,0.0,9.875871093725985,61.207657416291525,-85.5625
1772316047.1007876,3.4685029742578554e-06,1.5343346970816114,-8.662168371811909,-0.2456059508679583,-1.4760861116151665,9.725376427792089,4.425125815528383e-06,-0.0021816570771844134,0.0,9.875871093725985,61.207657416291525,-85.5625
1772316047.1273851,3.4685029742578554e-06,1.5343346970816114,-8.662168371811909,-0.24607145963573374,-1.477563957214398,9.726923064344321,-4.425125815528383e-06,0.0021816570771844134,0.0,9.436977518007945,61.8942686084472,-85.0625
1772316047.1541085,3.4685029742578554e-06,1.5343346970816114,-8.662168371811909,-0.2463812505206146,-1.4785474469520694,9.731297445400088,2.2125629077641914e-06,-0.0010908285385922067,0.0,9.436977518007945,61.8942686084472,-85.0625
1772316047.179617,3.4685029742578554e-06,1.5343346970816114,-8.662168371811909,-0.2463812505206146,-1.4785474469520694,9.731297445400088,2.2125629077641914e-06,-0.0010908285385922067,0.0,9.436977518007945,61.8942686084472,-85.0625
1772316047.2179837,3.4685029742578554e-06,1.5343346970816114,-8.662168371811909,-0.2465874128939119,-1.4792019483861896,9.724173212005706,0.0010886159756844426,0.0010930411014999709,0.001090830782496456,10.623714452150192,62.27167647686366,-86.25
1772316047.2448215,3.4685029742578554e-06,1.5343346970816114,-8.662168371811909,-0.2500629314919575,-1.482989401590184,9.722777225971965,4.425125815528383e-06,-0.0021816570771844134,-0.001090830782496456,10.623714452150192,62.27167647686366,-86.25
1772316047.2708251,3.4685029742578554e-06,1.5343346970816114,-8.662168371811909,-0.2500629314919575,-1.482989401590184,9.722777225971965,4.425125815528383e-06,-0.0021816570771844134,-0.001090830782496456,10.623714452150192,62.27167647686366,-86.25
1772316047.2893836,3.4685029742578554e-06,1.5343346970816114,-8.662168371811909,-0.2500629314919575,-1.482989401590184,9.722777225971965,4.425125815528383e-06,-0.0021816570771844134,-0.001090830782496456,10.623714452150192,62.27167647686366,-86.25
1772316047.3260183,3.4685029742578554e-06,1.5343346970816114,-8.662168371811909,-0.25238263527949373,-1.4821648045625937,9.721848212860696,0.001095253664407735,-0.0021794445142766495,0.0,10.623714452150192,62.27167647686366,-85.5
1772316047.345577,3.4685029742578554e-06,1.5343346970816114,-8.662168371811909,-0.25392637223730985,-1.4816160444520847,9.721229965012903,-0.0010864034127766784,-0.002183869640092178,0.002181661564992912,10.623714452150192,62.27167647686366,-85.5
1772316047.3735633,3.4685029742578554e-06,1.5343346970816114,-8.662168371811909,-0.2549537119380647,-1.4812508507285929,9.724163639683796,0.001095253664407735,-0.0021794445142766495,0.0,10.623714452150192,62.27167647686366,-85.5
1772316047.420388,3.4685029742578554e-06,1.5343346970816114,-8.662168371811909,-0.2556373950327807,-1.4810078183850903,9.726115967405983,2.2125629077641914e-06,-0.0010908285385922067,-0.001090830782496456,10.247827829931996,62.708414953800826,-86.0
1772316047.456898,3.4685029742578554e-06,1.5343346970816114,-8.662168371811909,-0.2560923784950736,-1.4808460830753387,9.71737988457421,0.0010886159756844426,0.0010930411014999709,-0.001090830782496456,10.247827829931996,62.708414953800826,-86.0
1772316047.4794078,3.4685029742578554e-06,1.5343346970816114,-8.662168371811909,-0.2563951649067312,-1.4807384500334007,9.711566119038105,-0.0010864034127766784,-0.002183869640092178,-0.001090830782496456,9.875237241143374,61.520156773460315,-86.25
1772316047.506957,3.4685029742578554e-06,1.5343346970816114,-8.662168371811909,-0.2532515610551192,-1.4806600364617075,9.714387346432483,-0.002177231951368885,-0.0021860822029999417,-0.002181661564992912,9.875237241143374,61.520156773460315,-86.25
1772316047.5310044,3.4685029742578554e-06,1.5343346970816114,-8.662168371811909,-0.2532515610551192,-1.4806600364617075,9.714387346432483,-0.002177231951368885,-0.0021860822029999417,-0.002181661564992912,9.875237241143374,61.520156773460315,-86.25
1772316047.5604353,3.4685029742578554e-06,1.5343346970816114,-8.662168371811909,-0.24781442298200318,-1.480601068121059,9.719609953455585,0.001084190849868914,0.003274698178684385,-0.001090830782496456,9.12447816083916,61.89363475586459,-85.1875
1772316047.5819151,3.4685029742578554e-06,1.5343346970816114,-8.662168371811909,-0.24781442298200318,-1.480601068121059,9.719609953455585,0.001084190849868914,0.003274698178684385,-0.001090830782496456,9.12447816083916,61.89363475586459,-85.1875
1772316047.59973,3.4685029742578554e-06,1.5343346970816114,-8.662168371811909,-0.24419606833115634,-1.4805618253490773,9.723085540089116,-4.425125815528383e-06,0.0021816570771844134,0.001090830782496456,9.12447816083916,61.89363475586459,-85.1875
1772316047.6221843,3.4685029742578554e-06,1.5343346970816114,-8.662168371811909,-0.24419606833115634,-1.4805618253490773,9.723085540089116,-4.425125815528383e-06,0.0021816570771844134,0.001090830782496456,9.12447816083916,61.89363475586459,-85.1875
1772316047.6512282,3.4685029742578554e-06,1.5343346970816114,-8.662168371811909,-0.2417813087460643,-1.483880814548918,9.728743615876205,0.0,0.0,-0.002181661564992912,9.872828601329456,62.70765433070169,-85.5625
1772316047.6658847,3.4685029742578554e-06,1.5343346970816114,-8.662168371811909,-0.2417813087460643,-1.483880814548918,9.728743615876205,0.0,0.0,-0.002181661564992912,9.872828601329456,62.70765433070169,-85.5625
1772316047.6829865,3.4685029742578554e-06,1.5343346970816114,-8.662168371811909,-0.2468713078538894,-1.4827580299288958,9.729163890400345,0.0,0.0,-0.001090830782496456,9.872828601329456,62.70765433070169,-85.5625
1772316047.7022567,3.4685029742578554e-06,1.5343346970816114,-8.662168371811909,-0.2502586454011314,-1.4820108293065972,9.736133801816024,-0.0010930411014999709,0.0010886159756844426,-0.001090830782496456,9.872828601329456,62.70765433070169,-85.5625
1772316047.7152758,3.4685029742578554e-06,1.5343346970816114,-8.662168371811909,-0.2502586454011314,-1.4820108293065972,9.736133801816024,-0.0010930411014999709,0.0010886159756844426,-0.001090830782496456,9.872828601329456,62.70765433070169,-85.5625
1772316047.7375755,3.4685029742578554e-06,1.5343346970816114,-8.662168371811909,-0.2558647705106289,-1.4781752557976344,9.737427088296828,-4.425125815528383e-06,0.0021816570771844134,-0.002181661564992912,9.436216894908812,62.26926783704974,-86.0
1772316047.7562406,3.4685029742578554e-06,1.5343346970816114,-8.662168371811909,-0.25625047932025447,-1.4756159394889599,9.738287756002846,-0.0010908285385922067,-2.2125629077641914e-06,0.001090830782496456,9.436216894908812,62.26926783704974,-86.0
1772316047.7711568,3.4685029742578554e-06,1.5343346970816114,-8.662168371811909,-0.2565071642244105,-1.4739127430749732,9.738860520746913,-0.0010886159756844426,-0.0010930411014999709,0.001090830782496456,9.436216894908812,62.26926783704974,-86.0
1772316047.8117404,3.4685029742578554e-06,1.5343346970816114,-8.662168371811909,-0.2533328803345438,-1.4727724999027925,9.735896577578568,-0.0010930411014999709,0.0010886159756844426,-0.001090830782496456,10.622193205951927,63.02167493406874,-85.5
1772316047.838484,3.4685029742578554e-06,1.5343346970816114,-8.662168371811909,-0.2533328803345438,-1.4727724999027925,9.735896577578568,-0.0010930411014999709,0.0010886159756844426,-0.001090830782496456,10.622193205951927,63.02167493406874,-85.5
1772316047.865164,3.4685029742578554e-06,1.5343346970816114,-8.662168371811909,-0.25122042986491205,-1.472013680809057,9.73057899480213,-2.2125629077641914e-06,0.0010908285385922067,-0.002181661564992912,10.622193205951927,63.02167493406874,-85.5
1772316047.9001617,3.4685029742578554e-06,1.5343346970816114,-8.662168371811909,-0.24980783269036658,-1.474853800004965,9.727040202865702,0.0,0.0,-0.001090830782496456,9.872828601329456,62.70765433070169,-86.0
1772316047.9135182,3.4685029742578554e-06,1.5343346970816114,-8.662168371811909,-0.24980783269036658,-1.474853800004965,9.727040202865702,0.0,0.0,-0.001090830782496456,9.872828601329456,62.70765433070169,-86.0
1772316047.9461396,3.4685029742578554e-06,1.5343346970816114,-8.662168371811909,-0.2522128698766752,-1.4767506525882548,9.724685176362906,-0.001095253664407735,0.0021794445142766495,0.001090830782496456,9.872828601329456,62.70765433070169,-86.0
1772316047.9927523,3.4685029742578554e-06,1.5343346970816114,-8.662168371811909,-0.2504615054472903,-1.4813513066348034,9.723117932532665,-4.425125815528383e-06,0.0021816570771844134,-0.001090830782496456,10.24871522354765,62.27091585376453,-86.0
1772316048.0207012,3.4685029742578554e-06,1.5343346970816114,-8.662168371811909,-0.2526410968097814,-1.4844197754947317,9.7220749492709,-0.002183869640092178,0.0010864034127766784,0.0,10.24871522354765,62.27091585376453,-86.0
1772316048.0470278,3.4685029742578554e-06,1.5343346970816114,-8.662168371811909,-0.25409837549851183,-1.4831167024177465,9.724725967268402,0.0021860822029999417,-0.002177231951368885,0.001090830782496456,9.875237241143374,61.520156773460315,-86.25
1772316048.0718288,3.4685029742578554e-06,1.5343346970816114,-8.662168371811909,-0.25506817818699234,-1.482249521841293,9.729835301839246,-0.002177231951368885,-0.0021860822029999417,0.0,9.875237241143374,61.520156773460315,-86.25
1772316048.1142666,3.4685029742578554e-06,1.5343346970816114,-8.662168371811909,-0.2490233613903217,-1.4816588528854582,9.729890395213818,-0.0010908285385922067,-2.2125629077641914e-06,0.002181661564992912,10.625235698348456,61.52167801965858,-84.6875
1772316048.1409812,3.4685029742578554e-06,1.5343346970816114,-8.662168371811909,-0.24500060333716542,-1.481265769293555,9.733272170946481,0.0,0.0,0.0,10.625235698348456,61.52167801965858,-84.6875
1772316048.1576798,3.4685029742578554e-06,1.5343346970816114,-8.662168371811909,-0.24500060333716542,-1.481265769293555,9.733272170946481,0.0,0.0,0.0,10.625235698348456,61.52167801965858,-84.6875
1772316048.1966205,3.4685029742578554e-06,1.5343346970816114,-8.662168371811909,-0.24232350278994177,-1.4810041765541746,9.735522704919658,-0.0010930411014999709,0.0010886159756844426,0.001090830782496456,10.625235698348456,61.52167801965858,-84.6875
1772316048.2228465,3.4685029742578554e-06,1.5343346970816114,-8.662168371811909,-0.24054192228093704,-1.4808300895082993,9.740365521846016,-2.2125629077641914e-06,0.0010908285385922067,-0.001090830782496456,9.125238783938292,61.51863552726205,-84.0
1772316048.2603,3.4685029742578554e-06,1.5343346970816114,-8.662168371811909,-0.24270140517997696,-1.4807210215085724,9.740243250705378,-0.0010930411014999709,0.0010886159756844426,0.002181661564992912,9.125238783938292,61.51863552726205,-84.0
1772316048.3085322,3.4685029742578554e-06,1.5343346970816114,-8.662168371811909,-0.2474836217525077,-1.480655222957747,9.736816768919821,-0.001095253664407735,0.0021794445142766495,0.0,9.874476618044243,61.895156002062855,-86.25
1772316048.354922,3.4685029742578554e-06,1.5343346970816114,-8.662168371811909,-0.2506661334606675,-1.4806114347571906,9.734536483567842,-0.001084190849868914,-0.003274698178684385,0.001090830782496456,9.874476618044243,61.895156002062855,-86.25
1772316048.3860314,3.4685029742578554e-06,1.5343346970816114,-8.662168371811909,-0.2506661334606675,-1.4806114347571906,9.734536483567842,-0.001084190849868914,-0.003274698178684385,0.001090830782496456,9.874476618044243,61.895156002062855,-86.25
1772316048.4057055,3.4685029742578554e-06,1.5343346970816114,-8.662168371811909,-0.2527840594514627,-1.4805822941988664,9.729673867431238,-0.0010908285385922067,-2.2125629077641914e-06,-0.001090830782496456,10.624475075249325,61.89667724826112,-85.1875
1772316048.42536,3.4685029742578554e-06,1.5343346970816114,-8.662168371811909,-0.2541935155395533,-1.4805629014828232,9.72643785071131,-2.2125629077641914e-06,0.0010908285385922067,0.0,10.624475075249325,61.89667724826112,-85.1875
1772316048.4560335,3.4685029742578554e-06,1.5343346970816114,-8.662168371811909,-0.25513149282152153,-1.4805499958469275,9.727629429440192,0.0,0.0,0.001090830782496456,10.624475075249325,61.89667724826112,-85.1875
1772316048.4734778,3.4685029742578554e-06,1.5343346970816114,-8.662168371811909,-0.25576249120940203,-1.4771963024641799,9.728422411773456,-2.2125629077641914e-06,0.0010908285385922067,-0.001090830782496456,9.12447816083916,61.89363475586459,-86.0
1772316048.5097618,3.4685029742578554e-06,1.5343346970816114,-8.662168371811909,-0.25616205863395247,-1.4849997714598437,9.728950132658051,-0.0010908285385922067,-2.2125629077641914e-06,0.0,9.12447816083916,61.89363475586459,-86.0
1772316048.5353484,3.4685029742578554e-06,1.5343346970816114,-8.662168371811909,-0.25616205863395247,-1.4849997714598437,9.728950132658051,-0.0010908285385922067,-2.2125629077641914e-06,0.0,9.12447816083916,61.89363475586459,-86.0
1772316048.572525,3.4685029742578554e-06,1.5343346970816114,-8.662168371811909,-0.25644832124540035,-1.480157578427325,9.72930132501172,0.0,0.0,0.0,10.250236469745914,61.52091739655945,-85.5625
1772316048.6147053,3.4685029742578554e-06,1.5343346970816114,-8.662168371811909,-0.2566320408309326,-1.4802802578812484,9.72953503960001,-4.425125815528383e-06,0.0021816570771844134,-0.001090830782496456,10.250236469745914,61.52091739655945,-85.5625
1772316048.6312745,3.4685029742578554e-06,1.5343346970816114,-8.662168371811909,-0.2600994089890464,-1.4803686846720383,9.729690574047755,-0.0010930411014999709,0.0010886159756844426,0.0,9.87371599494511,62.270155230665395,-85.5625
1772316048.660119,3.4685029742578554e-06,1.5343346970816114,-8.662168371811909,-0.25571669411278225,-1.4804139617442704,9.723103857070656,0.0010886159756844426,0.0010930411014999709,0.0,9.87371599494511,62.270155230665395,-85.5625
1772316048.6809597,3.4685029742578554e-06,1.5343346970816114,-8.662168371811909,-0.25571669411278225,-1.4804139617442704,9.723103857070656,0.0010886159756844426,0.0010930411014999709,0.0,9.87371599494511,62.270155230665395,-85.5625
1772316048.7002397,3.4685029742578554e-06,1.5343346970816114,-8.662168371811909,-0.25280004632076153,-1.4804440931300629,9.718720470500847,-0.0010908285385922067,-2.2125629077641914e-06,0.0,9.87371599494511,62.270155230665395,-85.5625
1772316048.7184627,3.4685029742578554e-06,1.5343346970816114,-8.662168371811909,-0.25085904979626245,-1.4804641452307183,9.719148487411594,-0.0010930411014999709,0.0010886159756844426,0.001090830782496456,9.87371599494511,62.270155230665395,-85.5625
1772316048.7393212,3.4685029742578554e-06,1.5343346970816114,-8.662168371811909,-0.25085904979626245,-1.4804641452307183,9.719148487411594,-0.0010930411014999709,0.0010886159756844426,0.001090830782496456,9.87371599494511,62.270155230665395,-85.5625
1772316048.7565136,3.4685029742578554e-06,1.5343346970816114,-8.662168371811909,-0.24957412327618353,-1.4771323848534834,9.726123551299073,-2.2125629077641914e-06,0.0010908285385922067,0.0,9.874476618044243,61.895156002062855,-85.1875
1772316048.802871,3.4685029742578554e-06,1.5343346970816114,-8.662168371811909,-0.24871223404601733,-1.47826024036686,9.730765378399623,-0.0010908285385922067,-2.2125629077641914e-06,0.002181661564992912,9.874476618044243,61.895156002062855,-85.1875
1772316048.8349075,3.4685029742578554e-06,1.5343346970816114,-8.662168371811909,-0.24479355156505103,-1.479004030627417,9.733854462482432,-4.425125815528383e-06,0.0021816570771844134,0.0,10.625235698348456,61.52167801965858,-86.0
1772316048.8748093,3.4685029742578554e-06,1.5343346970816114,-8.662168371811909,-0.24218571214851953,-1.4794990147371363,9.73256510172489,-0.0010908285385922067,-2.2125629077641914e-06,0.0,10.625235698348456,61.52167801965858,-86.0
1772316048.9006972,3.4685029742578554e-06,1.5343346970816114,-8.662168371811909,-0.2437953289745171,-1.479835206117443,9.731707046543852,-0.0010974662273154994,0.003270273052868856,-0.001090830782496456,10.623714452150192,62.27167647686366,-85.5625
1772316048.9308755,3.4685029742578554e-06,1.5343346970816114,-8.662168371811909,-0.24821161581784468,-1.4800657227101566,9.734481132113293,-0.0010930411014999709,0.0010886159756844426,-0.001090830782496456,10.623714452150192,62.27167647686366,-85.5625
1772316048.946958,3.4685029742578554e-06,1.5343346970816114,-8.662168371811909,-0.24821161581784468,-1.4800657227101566,9.734481132113293,-0.0010930411014999709,0.0010886159756844426,-0.001090830782496456,10.623714452150192,62.27167647686366,-85.5625
1772316048.976214,3.4685029742578554e-06,1.5343346970816114,-8.662168371811909,-0.2511506053789227,-1.4802191289275684,9.73632725507119,-0.001095253664407735,0.0021794445142766495,0.0,10.623714452150192,62.27167647686366,-85.5625
1772316049.0174258,3.4685029742578554e-06,1.5343346970816114,-8.662168371811909,-0.25310647010115556,-1.4803212190515964,9.737555829277126,-0.0010864034127766784,-0.002183869640092178,-0.001090830782496456,9.438371993689687,61.206770022675876,-86.0
1772316049.0493202,3.4685029742578554e-06,1.5343346970816114,-8.662168371811909,-0.25106297139913675,-1.480382373904092,9.738373431687103,-2.2125629077641914e-06,0.0010908285385922067,0.0,9.438371993689687,61.206770022675876,-86.0
1772316049.072776,3.4685029742578554e-06,1.5343346970816114,-8.662168371811909,-0.2497030458403194,-1.4804230717752835,9.738917536957725,0.0010908285385922067,2.2125629077641914e-06,0.0,10.935326415703322,62.70980942948257,-86.375
1772316049.0957575,3.4685029742578554e-06,1.5343346970816114,-8.662168371811909,-0.24880481555691378,-1.4771050509277122,9.73927963293727,0.0010864034127766784,0.002183869640092178,0.0,10.935326415703322,62.70980942948257,-86.375
1772316049.1230667,3.4685029742578554e-06,1.5343346970816114,-8.662168371811909,-0.24880481555691378,-1.4771050509277122,9.73927963293727,0.0010864034127766784,0.002183869640092178,0.0,10.935326415703322,62.70980942948257,-86.375
1772316049.1444623,3.4685029742578554e-06,1.5343346970816114,-8.662168371811909,-0.2515521581634213,-1.4749037301029984,9.732830380352143,0.0,0.0,-0.001090830782496456,10.24871522354765,62.27091585376453,-86.25
1772316049.1613352,3.4685029742578554e-06,1.5343346970816114,-8.662168371811909,-0.25338048397822427,-1.473438775684516,9.728538474799612,0.002177231951368885,0.0021860822029999417,0.0,10.24871522354765,62.27091585376453,-86.25
1772316049.1811926,3.4685029742578554e-06,1.5343346970816114,-8.662168371811909,-0.2545972143842381,-1.472463864883629,9.725682259598129,-2.2125629077641914e-06,0.0010908285385922067,0.0,10.24871522354765,62.27091585376453,-86.25
1772316049.1973472,3.4685029742578554e-06,1.5343346970816114,-8.662168371811909,-0.2545972143842381,-1.472463864883629,9.725682259598129,-2.2125629077641914e-06,0.0010908285385922067,0.0,10.24871522354765,62.27091585376453,-86.25
1772316049.2121863,3.4685029742578554e-06,1.5343346970816114,-8.662168371811909,-0.25540014989304766,-1.4751601774623304,9.727126591994875,2.2125629077641914e-06,-0.0010908285385922067,0.001090830782496456,8.873718052005,62.26812690240104,-86.375
1772316049.2247124,3.4685029742578554e-06,1.5343346970816114,-8.662168371811909,-0.25593449450478306,-1.4769545433636708,9.728087779070659,0.0010908285385922067,2.2125629077641914e-06,0.001090830782496456,8.873718052005,62.26812690240104,-86.375
1772316049.2411458,3.4685029742578554e-06,1.5343346970816114,-8.662168371811909,-0.25593449450478306,-1.4769545433636708,9.728087779070659,0.0010908285385922067,2.2125629077641914e-06,0.001090830782496456,8.873718052005,62.26812690240104,-86.375
1772316049.2746954,3.4685029742578554e-06,1.5343346970816114,-8.662168371811909,-0.25962841471647347,-1.4815005636374803,9.728727438332431,0.0010930411014999709,-0.0010886159756844426,0.002181661564992912,8.873718052005,62.26812690240104,-86.375
1772316049.2969623,3.4685029742578554e-06,1.5343346970816114,-8.662168371811909,-0.2620798923689376,-1.4878709941735508,9.725808012718359,-0.0010908285385922067,-2.2125629077641914e-06,0.0,10.24871522354765,62.27091585376453,-86.0
1772316049.316677,3.4685029742578554e-06,1.5343346970816114,-8.662168371811909,-0.2620798923689376,-1.4878709941735508,9.725808012718359,-0.0010908285385922067,-2.2125629077641914e-06,0.0,10.24871522354765,62.27091585376453,-86.0
1772316049.3453505,3.4685029742578554e-06,1.5343346970816114,-8.662168371811909,-0.26371810834647613,-1.4887653397067098,9.723865167584314,6.637688723292574e-06,-0.0032724856157766206,0.002181661564992912,10.24871522354765,62.27091585376453,-86.0
1772316049.3613684,3.4685029742578554e-06,1.5343346970816114,-8.662168371811909,-0.26147000293785555,-1.486008626857685,9.72257222585061,0.002183869640092178,-0.0010864034127766784,0.0,10.250236469745914,61.52091739655945,-86.375
1772316049.3740556,3.4685029742578554e-06,1.5343346970816114,-8.662168371811909,-0.2599739139014015,-1.4841740652511595,9.721711787569935,0.0010908285385922067,2.2125629077641914e-06,0.0,10.250236469745914,61.52091739655945,-86.375
1772316049.3905833,3.4685029742578554e-06,1.5343346970816114,-8.662168371811909,-0.2599739139014015,-1.4841740652511595,9.721711787569935,0.0010908285385922067,2.2125629077641914e-06,0.0,10.250236469745914,61.52091739655945,-86.375
1772316049.404514,3.4685029742578554e-06,1.5343346970816114,-8.662168371811909,-0.25563996351845,-1.479601295184565,9.724484287213192,-2.2125629077641914e-06,0.0010908285385922067,-0.001090830782496456,10.250236469745914,61.52091739655945,-86.375
1772316049.416542,3.4685029742578554e-06,1.5343346970816114,-8.662168371811909,-0.25563996351845,-1.479601295184565,9.724484287213192,-2.2125629077641914e-06,0.0010908285385922067,-0.001090830782496456,10.250236469745914,61.52091739655945,-86.375
1772316049.4321475,3.4685029742578554e-06,1.5343346970816114,-8.662168371811909,-0.25275576795199367,-1.476558167786435,9.72632935475493,0.0010930411014999709,-0.0010886159756844426,0.002181661564992912,10.250870322328526,61.20841803939066,-86.25
1772316049.4540744,3.4685029742578554e-06,1.5343346970816114,-8.662168371811909,-0.25083636802109266,-1.47453300049694,9.730902338300519,0.0010908285385922067,2.2125629077641914e-06,-0.001090830782496456,10.250870322328526,61.20841803939066,-86.25
1772316049.4752553,3.4685029742578554e-06,1.5343346970816114,-8.662168371811909,-0.2495454588389333,-1.4798754839408303,9.727255384351897,2.2125629077641914e-06,-0.0010908285385922067,0.001090830782496456,10.250870322328526,61.20841803939066,-86.25
1772316049.4922686,3.4685029742578554e-06,1.5343346970816114,-8.662168371811909,-0.2495454588389333,-1.4798754839408303,9.727255384351897,2.2125629077641914e-06,-0.0010908285385922067,0.001090830782496456,10.250870322328526,61.20841803939066,-86.25
1772316049.5302129,3.4685029742578554e-06,1.5343346970816114,-8.662168371811909,-0.2486999431678535,-1.4767406373408405,9.728173488945554,0.0010930411014999709,-0.0010886159756844426,0.0,9.436216894908812,62.26926783704974,-86.375
1772316049.5480285,3.4685029742578554e-06,1.5343346970816114,-8.662168371811909,-0.24477858713830772,-1.4813378566149036,9.725439365589413,0.0010930411014999709,-0.0010886159756844426,0.0,9.436216894908812,62.26926783704974,-86.375
1772316049.568631,3.4685029742578554e-06,1.5343346970816114,-8.662168371811909,-0.24217575348968542,-1.4810521498612639,9.72361983703806,0.0010908285385922067,2.2125629077641914e-06,-0.002181661564992912,9.436216894908812,62.26926783704974,-86.375
1772316049.587367,3.4685029742578554e-06,1.5343346970816114,-8.662168371811909,-0.24217575348968542,-1.4810521498612639,9.72361983703806,0.0010908285385922067,2.2125629077641914e-06,-0.002181661564992912,9.436216894908812,62.26926783704974,-86.375
1772316049.616877,3.4685029742578554e-06,1.5343346970816114,-8.662168371811909,-0.24044359677208427,-1.4808620152082703,9.722408961112599,-0.0010930411014999709,0.0010886159756844426,0.0,10.625235698348456,61.52167801965858,-86.0
1772316049.6386542,3.4685029742578554e-06,1.5343346970816114,-8.662168371811909,-0.24263597065220333,-1.4807422677052697,9.724948248417896,-0.003274698178684385,0.0010841908498689142,0.0,10.625235698348456,61.52167801965858,-86.0
1772316049.6514986,3.4685029742578554e-06,1.5343346970816114,-8.662168371811909,-0.24744007580522592,-1.4806693620643137,9.73332833916851,-0.001095253664407735,0.0021794445142766495,0.0,10.625235698348456,61.52167801965858,-86.0
1772316049.6648123,3.4685029742578554e-06,1.5343346970816114,-8.662168371811909,-0.24744007580522592,-1.4806693620643137,9.73332833916851,-0.001095253664407735,0.0021794445142766495,0.0,10.625235698348456,61.52167801965858,-86.0
1772316049.6989226,3.4685029742578554e-06,1.5343346970816114,-8.662168371811909,-0.24941966919720665,-1.4805817710764633,9.731474039480283,0.0010886159756844426,0.0010930411014999709,0.001090830782496456,10.624475075249325,61.89667724826112,-86.0
1772316049.7190878,3.4685029742578554e-06,1.5343346970816114,-8.662168371811909,-0.24941966919720665,-1.4805817710764633,9.731474039480283,0.0010886159756844426,0.0010930411014999709,0.001090830782496456,10.624475075249325,61.89667724826112,-86.0
1772316049.7357335,3.4685029742578554e-06,1.5343346970816114,-8.662168371811909,-0.24861623156644672,-1.4772106635398599,9.727635845100709,0.0010930411014999709,-0.0010886159756844426,-0.002181661564992912,10.624475075249325,61.89667724826112,-86.0
1772316049.7517865,3.4685029742578554e-06,1.5343346970816114,-8.662168371811909,-0.2514198726397633,-1.4783191189428366,9.728426681323862,-0.001095253664407735,0.0021794445142766495,-0.001090830782496456,10.247827829931996,62.708414953800826,-86.25
1772316049.7647452,3.4685029742578554e-06,1.5343346970816114,-8.662168371811909,-0.2514198726397633,-1.4783191189428366,9.728426681323862,-0.001095253664407735,0.0021794445142766495,-0.001090830782496456,10.247827829931996,62.708414953800826,-86.25
1772316049.7789962,3.4685029742578554e-06,1.5343346970816114,-8.662168371811909,-0.25327887947070926,-1.4824018884574839,9.725607862288832,0.0010864034127766784,0.002183869640092178,-0.001090830782496456,10.247827829931996,62.708414953800826,-86.25
1772316049.7921422,3.4685029742578554e-06,1.5343346970816114,-8.662168371811909,-0.25786113257646104,-1.4851257109465812,9.720386858001973,-4.425125815528383e-06,0.0021816570771844134,0.001090830782496456,10.247827829931996,62.708414953800826,-86.25
1772316049.807352,3.4685029742578554e-06,1.5343346970816114,-8.662168371811909,-0.25786113257646104,-1.4851257109465812,9.720386858001973,-4.425125815528383e-06,0.0021816570771844134,0.001090830782496456,10.247827829931996,62.708414953800826,-86.25
1772316049.8195262,3.4685029742578554e-06,1.5343346970816114,-8.662168371811909,-0.2542203611787692,-1.4869248144167377,9.716912337971507,0.0,0.0,0.0,9.872828601329456,62.70765433070169,-86.375
1772316049.833604,3.4685029742578554e-06,1.5343346970816114,-8.662168371811909,-0.2542203611787692,-1.4869248144167377,9.716912337971507,0.0,0.0,0.0,9.872828601329456,62.70765433070169,-86.375
1772316049.854139,3.4685029742578554e-06,1.5343346970816114,-8.662168371811909,-0.25179746848368667,-1.4881220976788243,9.714600083704164,-0.0010930411014999709,0.0010886159756844426,-0.001090830782496456,9.872828601329456,62.70765433070169,-86.375
1772316049.8695526,3.4685029742578554e-06,1.5343346970816114,-8.662168371811909,-0.25018506046059397,-1.4889188763152124,9.716406416026139,-2.2125629077641914e-06,0.0010908285385922067,-0.001090830782496456,9.872828601329456,62.70765433070169,-86.375
1772316049.8907547,3.4685029742578554e-06,1.5343346970816114,-8.662168371811909,-0.25018506046059397,-1.4889188763152124,9.716406416026139,-2.2125629077641914e-06,0.0010908285385922067,-0.001090830782496456,9.872828601329456,62.70765433070169,-86.375
1772316049.9100447,3.4685029742578554e-06,1.5343346970816114,-8.662168371811909,-0.249118805917627,-1.486104018770904,9.720953621715678,-0.002179444514276649,-0.0010952536644077352,0.0,10.936213809318977,62.27231032944627,-86.0
1772316049.9245555,3.4685029742578554e-06,1.5343346970816114,-8.662168371811909,-0.2517611152409737,-1.4808924426775851,9.72732484801377,-0.002177231951368885,-0.0021860822029999417,-0.001090830782496456,10.936213809318977,62.27231032944627,-86.0
1772316049.9405413,3.4685029742578554e-06,1.5343346970816114,-8.662168371811909,-0.2517611152409737,-1.4808924426775851,9.72732484801377,-0.002177231951368885,-0.0021860822029999417,-0.001090830782496456,10.936213809318977,62.27231032944627,-86.0
1772316049.963284,3.4685029742578554e-06,1.5343346970816114,-8.662168371811909,-0.2535195425791319,-1.4774241970046007,9.73156482794389,0.0010908285385922067,2.2125629077641914e-06,-0.001090830782496456,10.936213809318977,62.27231032944627,-86.0
1772316049.9791398,3.4685029742578554e-06,1.5343346970816114,-8.662168371811909,-0.2546897563297557,-1.4751161182520722,9.734386487223706,0.0,0.0,0.001090830782496456,10.24871522354765,62.27091585376453,-86.25
1772316049.996501,3.4685029742578554e-06,1.5343346970816114,-8.662168371811909,-0.25546173552402834,-1.4769252224514178,9.726228934832465,0.0,0.0,0.0,10.24871522354765,62.27091585376453,-86.25
1772316050.0162838,3.4685029742578554e-06,1.5343346970816114,-8.662168371811909,-0.25546173552402834,-1.4769252224514178,9.726228934832465,0.0,0.0,0.0,10.24871522354765,62.27091585376453,-86.25
1772316050.0444715,3.4685029742578554e-06,1.5343346970816114,-8.662168371811909,-0.25597547905424417,-1.4781291610870642,9.720800174841925,-0.0010974662273154994,0.003270273052868856,0.0,10.24871522354765,62.27091585376453,-86.25
1772316050.061045,3.4685029742578554e-06,1.5343346970816114,-8.662168371811909,-0.2563173696347115,-1.4789303688002113,9.723877619126082,-4.425125815528383e-06,0.0021816570771844134,0.0,10.623714452150192,62.27167647686366,-86.0
1772316050.0811396,3.4685029742578554e-06,1.5343346970816114,-8.662168371811909,-0.2563173696347115,-1.4789303688002113,9.723877619126082,-4.425125815528383e-06,0.0021816570771844134,0.0,10.623714452150192,62.27167647686366,-86.0
1772316050.0976994,3.4685029742578554e-06,1.5343346970816114,-8.662168371811909,-0.2565448939968445,-1.479463563583234,9.725925623919883,-0.001095253664407735,0.0021794445142766495,0.0,10.623714452150192,62.27167647686366,-86.0
1772316050.118167,3.4685029742578554e-06,1.5343346970816114,-8.662168371811909,-0.2566963089182303,-1.4798183987551596,9.727288548232446,-0.0010996787902232635,0.004361101591461063,-0.001090830782496456,10.623714452150192,62.27167647686366,-86.0
1772316050.1310284,3.4685029742578554e-06,1.5343346970816114,-8.662168371811909,-0.2566963089182303,-1.4798183987551596,9.727288548232446,-0.0010996787902232635,0.004361101591461063,-0.001090830782496456,10.623714452150192,62.27167647686366,-86.0
1772316050.1459086,3.4685029742578554e-06,1.5343346970816114,-8.662168371811909,-0.2534519690307729,-1.4800477526136844,9.724850447430274,0.0,0.0,-0.001090830782496456,10.624475075249325,61.89667724826112,-86.75
1772316050.1600451,3.4685029742578554e-06,1.5343346970816114,-8.662168371811909,-0.2534519690307729,-1.4800477526136844,9.724850447430274,0.0,0.0,-0.001090830782496456,10.624475075249325,61.89667724826112,-86.75
1772316050.1741295,3.4685029742578554e-06,1.5343346970816114,-8.662168371811909,-0.2512928970773211,-1.4802003850444818,9.7232279185818,0.0010864034127766784,0.002183869640092178,0.0,10.624475075249325,61.89667724826112,-86.75
1772316050.1900167,3.4685029742578554e-06,1.5343346970816114,-8.662168371811909,-0.2512928970773211,-1.4802003850444818,9.7232279185818,0.0010864034127766784,0.002183869640092178,0.0,10.624475075249325,61.89667724826112,-86.75
1772316050.2030754,3.4685029742578554e-06,1.5343346970816114,-8.662168371811909,-0.24986284379533644,-1.4769568553959374,9.722148143757975,-0.0021860822029999417,0.002177231951368885,0.0,10.624475075249325,61.89667724826112,-86.75
1772316050.2194533,3.4685029742578554e-06,1.5343346970816114,-8.662168371811909,-0.25224269416789497,-1.4814953172845031,9.721429565674594,-0.0010908285385922067,-2.2125629077641914e-06,0.001090830782496456,10.24871522354765,62.27091585376453,-86.375
1772316050.241246,3.4685029742578554e-06,1.5343346970816114,-8.662168371811909,-0.25224269416789497,-1.4814953172845031,9.721429565674594,-0.0010908285385922067,-2.2125629077641914e-06,0.001090830782496456,10.24871522354765,62.27091585376453,-86.375
1772316050.2543097,3.4685029742578554e-06,1.5343346970816114,-8.662168371811909,-0.2538400279754089,-1.477825403320954,9.720951359987147,0.001095253664407735,-0.0021794445142766495,0.0,10.24871522354765,62.27091585376453,-86.375
1772316050.267523,3.4685029742578554e-06,1.5343346970816114,-8.662168371811909,-0.251551145970074,-1.4787214364154382,9.71728800773674,2.2125629077641914e-06,-0.0010908285385922067,-0.002181661564992912,10.24871522354765,62.27091585376453,-86.375
1772316050.2798615,3.4685029742578554e-06,1.5343346970816114,-8.662168371811909,-0.251551145970074,-1.4787214364154382,9.71728800773674,2.2125629077641914e-06,-0.0010908285385922067,-0.002181661564992912,10.24871522354765,62.27091585376453,-86.375
1772316050.3010209,3.4685029742578554e-06,1.5343346970816114,-8.662168371811909,-0.2500279205640109,-1.479317736430472,9.71485008773642,-0.001095253664407735,0.0021794445142766495,0.002181661564992912,10.250236469745914,61.52091739655945,-85.5
1772316050.3133116,3.4685029742578554e-06,1.5343346970816114,-8.662168371811909,-0.24900066110257185,-1.4864047770818176,9.723263014331515,-0.001095253664407735,0.0021794445142766495,-0.001090830782496456,10.250236469745914,61.52091739655945,-85.5
1772316050.327795,3.4685029742578554e-06,1.5343346970816114,-8.662168371811909,-0.24900066110257185,-1.4864047770818176,9.723263014331515,-0.001095253664407735,0.0021794445142766495,-0.001090830782496456,10.250236469745914,61.52091739655945,-85.5
1772316050.3411076,3.4685029742578554e-06,1.5343346970816114,-8.662168371811909,-0.25166213623244854,-1.4911279084524802,9.728861723002003,-4.425125815528383e-06,0.0021816570771844134,0.001090830782496456,10.250236469745914,61.52091739655945,-85.5
1772316050.3542728,3.4685029742578554e-06,1.5343346970816114,-8.662168371811909,-0.25166213623244854,-1.4911279084524802,9.728861723002003,-4.425125815528383e-06,0.0021816570771844134,0.001090830782496456,10.250236469745914,61.52091739655945,-85.5
1772316050.375857,3.4685029742578554e-06,1.5343346970816114,-8.662168371811909,-0.25344688817000294,-1.4875808899663734,9.73258760108054,-0.0010930411014999709,0.0010886159756844426,0.001090830782496456,10.250236469745914,61.52091739655945,-85.5625
1772316050.3909984,3.4685029742578554e-06,1.5343346970816114,-8.662168371811909,-0.25344688817000294,-1.4875808899663734,9.73258760108054,-0.0010930411014999709,0.0010886159756844426,0.001090830782496456,10.250236469745914,61.52091739655945,-85.5625
1772316050.4210544,3.4685029742578554e-06,1.5343346970816114,-8.662168371811909,-0.25463462064745995,-1.4852203887866617,9.728376907906382,0.0010930411014999709,-0.0010886159756844426,0.0,10.250236469745914,61.52091739655945,-85.5625
1772316050.4461548,3.4685029742578554e-06,1.5343346970816114,-8.662168371811909,-0.25542504334336646,-1.4836495016200897,9.725574738635505,-0.0010930411014999709,0.0010886159756844426,0.0,8.875239298203264,61.51812844519596,-86.25
1772316050.4593422,3.4685029742578554e-06,1.5343346970816114,-8.662168371811909,-0.25542504334336646,-1.4836495016200897,9.725574738635505,-0.0010930411014999709,0.0010886159756844426,0.0,8.875239298203264,61.51812844519596,-86.25
1772316050.4780707,3.4685029742578554e-06,1.5343346970816114,-8.662168371811909,-0.2559510608178922,-1.4826040937586955,9.733745261409975,-2.2125629077641914e-06,0.0010908285385922067,0.0,8.875239298203264,61.51812844519596,-86.25
1772316050.4911313,3.4685029742578554e-06,1.5343346970816114,-8.662168371811909,-0.2563011195711889,-1.4819083865049085,9.739182653045667,0.0,0.0,-0.001090830782496456,8.875239298203264,61.51812844519596,-86.25
1772316050.5071073,3.4685029742578554e-06,1.5343346970816114,-8.662168371811909,-0.2563011195711889,-1.4819083865049085,9.739182653045667,0.0,0.0,-0.001090830782496456,8.875239298203264,61.51812844519596,-86.25
1772316050.5275435,3.4685029742578554e-06,1.5343346970816114,-8.662168371811909,-0.25653407976109527,-1.4814454010990725,9.736110953024935,0.0010886159756844426,0.0010930411014999709,-0.002181661564992912,9.87371599494511,62.270155230665395,-84.25
1772316050.5488782,3.4685029742578554e-06,1.5343346970816114,-8.662168371811909,-0.25668911216514223,-1.4811372894833745,9.734066770974277,-0.001095253664407735,0.0021794445142766495,0.001090830782496456,9.87371599494511,62.270155230665395,-84.25
1772316050.5632117,3.4685029742578554e-06,1.5343346970816114,-8.662168371811909,-0.25679906948283343,-1.4775871398187355,9.736051502361892,2.2125629077641914e-06,-0.0010908285385922067,0.0,9.87371599494511,62.270155230665395,-84.25
1772316050.5845904,3.4685029742578554e-06,1.5343346970816114,-8.662168371811909,-0.25679906948283343,-1.4775871398187355,9.736051502361892,2.2125629077641914e-06,-0.0010908285385922067,0.0,9.87371599494511,62.270155230665395,-84.25
1772316050.6053312,3.4685029742578554e-06,1.5343346970816114,-8.662168371811909,-0.2535203550386055,-1.4785628747162893,9.737372318929449,-2.2125629077641914e-06,0.0010908285385922067,0.0,10.264054456046821,54.70843141027994,-86.375
1772316050.6241558,3.4685029742578554e-06,1.5343346970816114,-8.662168371811909,-0.25134519218623536,-1.4758671105647143,9.73156108418603,0.0,0.0,0.0,10.264054456046821,54.70843141027994,-86.375
1772316050.6431608,3.4685029742578554e-06,1.5343346970816114,-8.662168371811909,-0.25323596544774507,-1.4774249994463475,9.72769377238003,-0.0010908285385922067,-2.2125629077641914e-06,-0.002181661564992912,10.264054456046821,54.70843141027994,-86.375
1772316050.659999,3.4685029742578554e-06,1.5343346970816114,-8.662168371811909,-0.25323596544774507,-1.4774249994463475,9.72769377238003,-0.0010908285385922067,-2.2125629077641914e-06,-0.002181661564992912,10.264054456046821,54.70843141027994,-86.375
1772316050.6793833,3.4685029742578554e-06,1.5343346970816114,-8.662168371811909,-0.2544942539319585,-1.478461757094315,9.725120119573841,2.2125629077641914e-06,-0.0010908285385922067,-0.001090830782496456,9.874476618044243,61.895156002062855,-84.75
1772316050.694705,3.4685029742578554e-06,1.5343346970816114,-8.662168371811909,-0.2553316308621993,-1.4791517077276959,9.726752494088228,0.0010864034127766784,0.002183869640092178,0.0,9.874476618044243,61.895156002062855,-84.75
1772316050.7075326,3.4685029742578554e-06,1.5343346970816114,-8.662168371811909,-0.2553316308621993,-1.4791517077276959,9.726752494088228,0.0010864034127766784,0.002183869640092178,0.0,9.874476618044243,61.895156002062855,-84.75
1772316050.7197847,3.4685029742578554e-06,1.5343346970816114,-8.662168371811909,-0.25588889585516117,-1.4796108621669573,9.724493709385415,-0.002179444514276649,-0.0010952536644077352,0.002181661564992912,9.874476618044243,61.895156002062855,-84.75
1772316050.7320914,3.4685029742578554e-06,1.5343346970816114,-8.662168371811909,-0.2529146446566953,-1.4799096393325712,9.72299051339797,0.0,0.0,0.0,10.249475846646783,61.89591662516199,-86.0
1772316050.7600875,3.4685029742578554e-06,1.5343346970816114,-8.662168371811909,-0.2542804185349033,-1.480115257183351,9.721990153260126,4.425125815528383e-06,-0.0021816570771844134,0.0,10.249475846646783,61.89591662516199,-86.0
1772316050.781402,3.4685029742578554e-06,1.5343346970816114,-8.662168371811909,-0.2542804185349033,-1.480115257183351,9.721990153260126,4.425125815528383e-06,-0.0021816570771844134,0.0,10.249475846646783,61.89591662516199,-86.0
1772316050.8141239,3.4685029742578554e-06,1.5343346970816114,-8.662168371811909,-0.2551893257941569,-1.480252093566143,9.724669536470465,-0.002179444514276649,-0.0010952536644077352,0.0,10.249475846646783,61.89591662516199,-86.0
1772316050.8400915,3.4685029742578554e-06,1.5343346970816114,-8.662168371811909,-0.2557874084374074,-1.4836882614765527,9.726452636066274,4.425125815528383e-06,-0.0021816570771844134,0.001090830782496456,11.373712909355275,62.27319772306193,-85.5625
1772316050.8543105,3.4685029742578554e-06,1.5343346970816114,-8.662168371811909,-0.25618542575546976,-1.4859749928364199,9.727639268928757,-0.0010886159756844426,-0.0010930411014999709,0.001090830782496456,11.373712909355275,62.27319772306193,-85.5625
1772316050.87232,3.4685029742578554e-06,1.5343346970816114,-8.662168371811909,-0.25618542575546976,-1.4859749928364199,9.727639268928757,-0.0010886159756844426,-0.0010930411014999709,0.001090830782496456,11.373712909355275,62.27319772306193,-85.5625
1772316050.893772,3.4685029742578554e-06,1.5343346970816114,-8.662168371811909,-0.2531119819928946,-1.4841448972011007,9.7317740715505,-0.0010886159756844426,-0.0010930411014999709,0.0,11.373712909355275,62.27319772306193,-85.5625
1772316050.9071634,3.4685029742578554e-06,1.5343346970816114,-8.662168371811909,-0.2510666395015172,-1.4829269889993035,9.7345257365065,-0.0010908285385922067,-2.2125629077641914e-06,0.001090830782496456,9.875237241143374,61.520156773460315,-85.5
1772316050.9198651,3.4685029742578554e-06,1.5343346970816114,-8.662168371811909,-0.2510666395015172,-1.4829269889993035,9.7345257365065,-0.0010908285385922067,-2.2125629077641914e-06,0.001090830782496456,9.875237241143374,61.520156773460315,-85.5
1772316050.946014,3.4685029742578554e-06,1.5343346970816114,-8.662168371811909,-0.24970548692147826,-1.4821164846959336,9.733011827089287,-0.001084190849868914,-0.003274698178684385,-0.002181661564992912,9.875237241143374,61.520156773460315,-85.5
1772316050.9614618,3.4685029742578554e-06,1.5343346970816114,-8.662168371811909,-0.24879965508453294,-1.4815771031359672,9.732004337283607,0.0010930411014999709,-0.0010886159756844426,0.001090830782496456,11.37586800813615,61.210699908688056,-86.0
1772316050.979401,3.4685029742578554e-06,1.5343346970816114,-8.662168371811909,-0.24879965508453294,-1.4815771031359672,9.732004337283607,0.0010930411014999709,-0.0010886159756844426,0.001090830782496456,11.37586800813615,61.210699908688056,-86.0
1772316051.0032692,3.4685029742578554e-06,1.5343346970816114,-8.662168371811909,-0.2481968341158505,-1.4812181507330964,9.731333864072326,-0.0010908285385922067,-2.2125629077641914e-06,0.0,11.37586800813615,61.210699908688056,-86.0
1772316051.0279844,3.4685029742578554e-06,1.5343346970816114,-8.662168371811909,-0.24778887851052034,-1.4843243767449712,9.730887671639895,2.2125629077641914e-06,-0.0010908285385922067,0.0,9.87371599494511,62.270155230665395,-85.5625
1772316051.0544813,3.4685029742578554e-06,1.5343346970816114,-8.662168371811909,-0.24751738861233583,-1.4863915354570558,9.727245623853088,-0.002183869640092178,0.0010864034127766784,0.0,9.87371599494511,62.270155230665395,-85.5625
1772316051.067502,3.4685029742578554e-06,1.5343346970816114,-8.662168371811909,-0.24751738861233583,-1.4863915354570558,9.727245623853088,-0.002183869640092178,0.0010864034127766784,0.0,9.87371599494511,62.270155230665395,-85.5625
1772316051.0804095,3.4685029742578554e-06,1.5343346970816114,-8.662168371811909,-0.2473367151178349,-1.4877672064882723,9.72482188173531,2.2125629077641914e-06,-0.0010908285385922067,0.0,9.87371599494511,62.270155230665395,-85.5625
1772316051.0973473,3.4685029742578554e-06,1.5343346970816114,-8.662168371811909,-0.2472300488947465,-1.481992490539846,9.7232089084309,-0.0010886159756844426,-0.0010930411014999709,0.0,10.250870322328526,61.20841803939066,-85.5
1772316051.1166544,3.4685029742578554e-06,1.5343346970816114,-8.662168371811909,-0.2472300488947465,-1.481992490539846,9.7232089084309,-0.0010886159756844426,-0.0010930411014999709,0.0,10.250870322328526,61.20841803939066,-85.5
1772316051.1304662,3.4685029742578554e-06,1.5343346970816114,-8.662168371811909,-0.24715906371482094,-1.4781494815839722,9.722135492714909,-2.2125629077641914e-06,0.0010908285385922067,0.0,10.250870322328526,61.20841803939066,-85.5
1772316051.1470683,3.4685029742578554e-06,1.5343346970816114,-8.662168371811909,-0.2504569286967612,-1.4755987870376843,9.728111369961393,-0.001095253664407735,0.0021794445142766495,-0.001090830782496456,10.250870322328526,61.20841803939066,-85.5
1772316051.1606047,3.4685029742578554e-06,1.5343346970816114,-8.662168371811909,-0.2504569286967612,-1.4755987870376843,9.728111369961393,-0.001095253664407735,0.0021794445142766495,-0.001090830782496456,10.250870322328526,61.20841803939066,-85.5
1772316051.175661,3.4685029742578554e-06,1.5343346970816114,-8.662168371811909,-0.25265162100267674,-1.4739013283102549,9.71870780268473,0.0010908285385922067,2.2125629077641914e-06,-0.002181661564992912,10.93697443241811,61.89731110084373,-85.0625
1772316051.1898928,3.4685029742578554e-06,1.5343346970816114,-8.662168371811909,-0.25265162100267674,-1.4739013283102549,9.71870780268473,0.0010908285385922067,2.2125629077641914e-06,-0.002181661564992912,10.93697443241811,61.89731110084373,-85.0625
1772316051.203603,3.4685029742578554e-06,1.5343346970816114,-8.662168371811909,-0.25410537923132076,-1.4761167933152313,9.725830280536115,-0.002179444514276649,-0.0010952536644077352,0.001090830782496456,10.93697443241811,61.89731110084373,-85.0625
1772316051.2172763,3.4685029742578554e-06,1.5343346970816114,-8.662168371811909,-0.2550728390929398,-1.4775911605276772,9.720534874860965,-2.2125629077641914e-06,0.0010908285385922067,0.001090830782496456,10.93697443241811,61.89731110084373,-85.0625
1772316051.2363772,3.4685029742578554e-06,1.5343346970816114,-8.662168371811909,-0.2550728390929398,-1.4775911605276772,9.720534874860965,-2.2125629077641914e-06,0.0010908285385922067,0.001090830782496456,10.93697443241811,61.89731110084373,-85.0625
1772316051.2496102,3.4685029742578554e-06,1.5343346970816114,-8.662168371811909,-0.2557166728236125,-1.478572335437799,9.717010841537709,-6.637688723292574e-06,0.0032724856157766206,-0.001090830782496456,8.74719706293922,63.01787181857308,-86.0
1772316051.2624876,3.4685029742578554e-06,1.5343346970816114,-8.662168371811909,-0.24945492732683267,-1.4792117264107967,9.711320525019795,0.0010886159756844426,0.0010930411014999709,-0.002181661564992912,8.74719706293922,63.01787181857308,-86.0
1772316051.2807188,3.4685029742578554e-06,1.5343346970816114,-8.662168371811909,-0.24945492732683267,-1.4792117264107967,9.711320525019795,0.0010886159756844426,0.0010930411014999709,-0.002181661564992912,8.74719706293922,63.01787181857308,-86.0
1772316051.2954214,3.4685029742578554e-06,1.5343346970816114,-8.662168371811909,-0.25197123031483126,-1.4829959087563325,9.707533682942124,-0.0010974662273154994,0.003270273052868856,0.001090830782496456,8.74719706293922,63.01787181857308,-86.0
1772316051.3084688,3.4685029742578554e-06,1.5343346970816114,-8.662168371811909,-0.25364580184439817,-1.4855142398352,9.711703805255869,-0.0010886159756844426,-0.0010930411014999709,-0.002181661564992912,9.87371599494511,62.270155230665395,-85.1875
1772316051.321451,3.4685029742578554e-06,1.5343346970816114,-8.662168371811909,-0.2547602104911353,-1.487190161036585,9.717824086779668,0.0,0.0,0.0,9.87371599494511,62.270155230665395,-85.1875
1772316051.3465824,3.4685029742578554e-06,1.5343346970816114,-8.662168371811909,-0.2547602104911353,-1.487190161036585,9.717824086779668,0.0,0.0,0.0,9.87371599494511,62.270155230665395,-85.1875
1772316051.3698647,3.4685029742578554e-06,1.5343346970816114,-8.662168371811909,-0.25550183699677853,-1.4883054678748397,9.721897065765733,0.0,0.0,-0.001090830782496456,9.87371599494511,62.270155230665395,-85.1875
1772316051.387785,3.4685029742578554e-06,1.5343346970816114,-8.662168371811909,-0.2559953811517733,-1.489047692116905,9.7246075877828,0.0,0.0,0.001090830782496456,10.936213809318977,62.27231032944627,-86.0
1772316051.4073322,3.4685029742578554e-06,1.5343346970816114,-8.662168371811909,-0.2559953811517733,-1.489047692116905,9.7246075877828,0.0,0.0,0.001090830782496456,10.936213809318977,62.27231032944627,-86.0
1772316051.4295928,3.4685029742578554e-06,1.5343346970816114,-8.662168371811909,-0.2529787244474485,-1.4895348490741878,9.726411409906646,0.0010864034127766784,0.002183869640092178,0.0,10.936213809318977,62.27231032944627,-86.0
1772316051.4485016,3.4685029742578554e-06,1.5343346970816114,-8.662168371811909,-0.25098474307823054,-1.4831688369349114,9.72761183338005,0.0,0.0,-0.002181661564992912,10.936213809318977,62.27231032944627,-86.0
1772316051.46711,3.4685029742578554e-06,1.5343346970816114,-8.662168371811909,-0.25098474307823054,-1.4831688369349114,9.72761183338005,0.0,0.0,-0.002181661564992912,10.936213809318977,62.27231032944627,-86.0
1772316051.4862099,3.4685029742578554e-06,1.5343346970816114,-8.662168371811909,-0.24964420078200059,-1.4856225366216864,9.728410701791994,-0.0010886159756844426,-0.0010930411014999709,0.0,10.624475075249325,61.89667724826112,-86.375
1772316051.5012047,3.4685029742578554e-06,1.5343346970816114,-8.662168371811909,-0.24876565482794497,-1.4805652367011652,9.732287451503515,0.0010930411014999709,-0.0010886159756844426,-0.002181661564992912,10.624475075249325,61.89667724826112,-86.375
1772316051.5159302,3.4685029742578554e-06,1.5343346970816114,-8.662168371811909,-0.244835887483298,-1.4771928751131769,9.728177161715763,0.0010930411014999709,-0.0010886159756844426,0.0,10.624475075249325,61.89667724826112,-86.375
1772316051.5382817,3.4685029742578554e-06,1.5343346970816114,-8.662168371811909,-0.244835887483298,-1.4771928751131769,9.728177161715763,0.0010930411014999709,-0.0010886159756844426,0.0,10.624475075249325,61.89667724826112,-86.375
1772316051.5536492,3.4685029742578554e-06,1.5343346970816114,-8.662168371811909,-0.24222067121381302,-1.4749486061481178,9.728786921484279,0.0,0.0,-0.001090830782496456,10.93773505551724,61.52231187224119,-85.5625
1772316051.568056,3.4685029742578554e-06,1.5343346970816114,-8.662168371811909,-0.2404802740003507,-1.473455070221998,9.725847598091443,0.0,0.0,0.0,10.93773505551724,61.52231187224119,-85.5625
1772316051.5879767,3.4685029742578554e-06,1.5343346970816114,-8.662168371811909,-0.2404802740003507,-1.473455070221998,9.725847598091443,0.0,0.0,0.0,10.93773505551724,61.52231187224119,-85.5625
1772316051.6099746,3.4685029742578554e-06,1.5343346970816114,-8.662168371811909,-0.24266037893790315,-1.4758130285579023,9.727236622915225,-0.0010908285385922067,-2.2125629077641914e-06,0.001090830782496456,10.93773505551724,61.52231187224119,-85.5625
1772316051.6261983,3.4685029742578554e-06,1.5343346970816114,-8.662168371811909,-0.24411121442047645,-1.4773822234903262,9.724815891711707,0.0021816570771844134,4.425125815528383e-06,-0.001090830782496456,10.938368908099852,61.20981251507241,-84.75
1772316051.6506724,3.4685029742578554e-06,1.5343346970816114,-8.662168371811909,-0.2484150490688356,-1.481778394999646,9.729895145551744,-2.2125629077641914e-06,0.0010908285385922067,-0.002181661564992912,10.938368908099852,61.20981251507241,-84.75
1772316051.6716747,3.4685029742578554e-06,1.5343346970816114,-8.662168371811909,-0.24793409812411116,-1.4846972130460214,9.726585108828667,2.2125629077641914e-06,-0.0010908285385922067,-0.001090830782496456,10.938368908099852,61.20981251507241,-84.75
1772316051.6969228,3.4685029742578554e-06,1.5343346970816114,-8.662168371811909,-0.25095913546919546,-1.4866464388351737,9.724382316364993,-6.637688723292574e-06,0.0032724856157766206,0.0,9.436216894908812,62.26926783704974,1962.4375
1772316051.7161117,3.4685029742578554e-06,1.5343346970816114,-8.662168371811909,-0.25095913546919546,-1.4866464388351737,9.724382316364993,-6.637688723292574e-06,0.0032724856157766206,0.0,9.436216894908812,62.26926783704974,1962.4375
1772316051.731042,3.4685029742578554e-06,1.5343346970816114,-8.662168371811909,-0.24964072917349023,-1.4812466321865039,9.719571270879902,0.0010886159756844426,0.0010930411014999709,0.0,9.436216894908812,62.26926783704974,1962.4375
1772316051.7457614,3.4685029742578554e-06,1.5343346970816114,-8.662168371811909,-0.252108449337486,-1.47765990616623,9.716369573852473,-0.001095253664407735,0.0021794445142766495,-0.001090830782496456,9.436216894908812,62.26926783704974,1962.4375
1772316051.7591598,3.4685029742578554e-06,1.5343346970816114,-8.662168371811909,-0.252108449337486,-1.47765990616623,9.716369573852473,-0.001095253664407735,0.0021794445142766495,-0.001090830782496456,9.436216894908812,62.26926783704974,1962.4375
1772316051.77644,3.4685029742578554e-06,1.5343346970816114,-8.662168371811909,-0.2537506895403847,-1.4752729800660929,9.720929103660659,-0.0010886159756844426,-0.0010930411014999709,-0.001090830782496456,8.749478932236618,61.892874132765456,-85.5625
1772316051.7911348,3.4685029742578554e-06,1.5343346970816114,-8.662168371811909,-0.25483679706576534,-1.4770296122363873,9.72396341981472,0.0,0.0,0.0,8.749478932236618,61.892874132765456,-85.5625
1772316051.8035922,3.4685029742578554e-06,1.5343346970816114,-8.662168371811909,-0.2555663744759135,-1.474853526496627,9.725982723319715,-0.0021816570771844134,-4.425125815528383e-06,0.0,8.749478932236618,61.892874132765456,-85.5625
1772316051.8156314,3.4685029742578554e-06,1.5343346970816114,-8.662168371811909,-0.2555663744759135,-1.474853526496627,9.725982723319715,-0.0021816570771844134,-4.425125815528383e-06,0.0,8.749478932236618,61.892874132765456,-85.5625
1772316051.8290946,3.4685029742578554e-06,1.5343346970816114,-8.662168371811909,-0.25604511510783007,-1.4767504705715113,9.723981435537873,0.0010908285385922067,2.2125629077641914e-06,0.0,10.24871522354765,62.27091585376453,-85.5625
1772316051.8485184,3.4685029742578554e-06,1.5343346970816114,-8.662168371811909,-0.25604511510783007,-1.4767504705715113,9.723981435537873,0.0010908285385922067,2.2125629077641914e-06,0.0,10.24871522354765,62.27091585376453,-85.5625
