timestamp,yaw,pitch,roll,ax,ay,az,gx,gy,gz,mx,my,mz
1774880510.0734696,0.028092641463175305,-0.3415631348984829,-9.403889790990277,0.053455382247876465,-1.5251047781207323,9.111918040164745,-0.001090830782496456,0.001090830782496456,0.002181661564992912,-2.375,21.25,-17.25
1774880510.8066435,-8.259917247882614,-0.3422935512594669,-9.396369706316369,0.05564462999413233,-1.5434678430591557,9.328708695279486,0.002181661564992912,-0.001090830782496456,0.001090830782496456,-2.6875,21.5625,-15.75
1774880511.2385216,-8.168522552447369,-0.34177828968285395,-9.396173981344537,0.06615123807489866,-1.5714590622950195,9.629540997493459,-0.001090830782496456,0.0,0.003272492347489368,-2.6875,20.5625,-18.0625
1774880511.4149754,-8.112252593081973,-0.34412834374328066,-9.396086214555057,0.07052161256652818,-1.5817886751334829,9.698877807737837,-0.001090830782496456,-0.002181661564992912,0.001090830782496456,-2.6875,20.5625,-18.0625
1774880511.4538696,-8.027893580356558,-0.3441876820821654,-9.395929515873798,0.07034712733623036,-1.5845354550278419,9.70259830529256,-0.001090830782496456,0.002181661564992912,-0.001090830782496456,-2.6875,20.5625,-18.0625
1774880511.7093263,-8.027893580356558,-0.3441876820821654,-9.395929515873798,0.07034712733623036,-1.5845354550278419,9.70259830529256,-0.001090830782496456,0.002181661564992912,-0.001090830782496456,-2.6875,20.5625,-18.0625
1774880511.727367,0.0,0.0,0.0,0.0668858976572755,-1.5863634063639958,9.705074254854546,0.001090830782496456,0.001090830782496456,0.003272492347489368,-2.375,20.5625,-17.0
1774880511.7688072,-8.020871339596528,-0.34361478964590125,-9.39591056336234,0.061237376263080574,-1.587579887558652,9.70337685992256,-0.001090830782496456,0.0,0.003272492347489368,-2.375,20.5625,-17.0
1774880511.7936997,-8.020871339596528,-0.34361478964590125,-9.39591056336234,0.061237376263080574,-1.587579887558652,9.70337685992256,-0.001090830782496456,0.0,0.003272492347489368,-2.375,20.5625,-17.0
1774880512.0264523,-8.020871339596528,-0.34361478964590125,-9.39591056336234,0.0574783483733622,-1.5883894422047102,9.702247262556467,0.0,0.002181661564992912,-0.003272492347489368,-2.6875,22.375,-17.6875
1774880512.0549755,0.0,0.0,0.0,0.054976757303847525,-1.588928191778344,9.701495528127762,0.001090830782496456,0.002181661564992912,0.0,-2.6875,22.375,-17.6875
1774880512.0853133,0.0,0.0,0.0,0.054976757303847525,-1.588928191778344,9.701495528127762,0.001090830782496456,0.002181661564992912,0.0,-2.6875,22.375,-17.6875
1774880512.1164498,-7.9922109531671035,-0.3482769056237203,-9.395347577461191,0.05331197639168876,-1.5859416118940508,9.694305033848243,0.0,-0.001090830782496456,0.001090830782496456,-2.6875,20.5625,-19.25
1774880512.1474745,-7.9922109531671035,-0.3482769056237203,-9.395347577461191,0.05220408329146842,-1.583954076343337,9.686174728520989,0.0,0.001090830782496456,-0.001090830782496456,-2.6875,20.5625,-19.25
1774880512.2026167,-7.9922109531671035,-0.3482769056237203,-9.395347577461191,0.05220408329146842,-1.583954076343337,9.686174728520989,0.0,0.001090830782496456,-0.001090830782496456,-2.6875,20.5625,-19.25
1774880512.2246315,-7.9922109531671035,-0.3482769056237203,-9.395347577461191,0.05220408329146842,-1.583954076343337,9.686174728520989,0.0,0.001090830782496456,-0.001090830782496456,-2.6875,20.5625,-19.25
1774880512.2637708,-7.9711463490278796,-0.34655822767852584,-9.3952919832722,0.050976134229405674,-1.5761799168893462,9.677163389070548,0.0,0.001090830782496456,-0.002181661564992912,-2.375,22.0,-16.0625
1774880512.3120527,-7.9711463490278796,-0.34655822767852584,-9.3952919832722,0.050976134229405674,-1.5761799168893462,9.677163389070548,0.0,0.001090830782496456,-0.002181661564992912,-2.375,22.0,-16.0625
1774880512.3467069,0.02095466941775623,-0.34656302268877726,-9.395421396364503,0.053994718132855044,-1.574112665655665,9.674767155406151,0.0,0.0,-0.003272492347489368,-1.5625,22.0,-16.0625
1774880512.4069514,0.02095466941775623,-0.34656302268877726,-9.395421396364503,0.27128301674414257,-1.553451978007106,9.673172488670179,0.0,0.0,-0.001090830782496456,-1.5625,22.0,-16.0625
1774880512.429087,0.02095466941775623,-0.34656302268877726,-9.395421396364503,0.27389722071384215,-1.5544083925338539,9.675456367478303,-0.0003033349038661268,0.002160471041292581,0.001090830782496456,-4.978591144238181,21.074986037208024,-15.75
1774880512.4592626,0.02095466941775623,-0.34656302268877726,-9.395421396364503,0.2751718450120302,-1.5517322551491224,9.676976263312511,-0.0012319029725793539,0.0009285680687132271,-0.001090830782496456,-4.978591144238181,21.074986037208024,-15.75
1774880512.4941542,0.02095466941775623,-0.34656302268877726,-9.395421396364503,0.28264533438085127,-1.5490211171318466,9.677987737011827,-0.0013835704245124174,0.0020088035893595178,-0.001090830782496456,-4.782095226680915,21.923043732405308,-16.5625
1774880512.5414877,0.02095466941775623,-0.34656302268877726,-9.395421396364503,0.28238891465781774,-1.5580849452541912,9.68535108487446,-0.0001516674519330634,0.0010802355206462905,-0.001090830782496456,-4.782095226680915,21.923043732405308,-16.5625
1774880512.579493,0.02095466941775623,-0.34656302268877726,-9.395421396364503,0.28884351133339814,-1.5631866231378666,9.690251310623058,-0.0013835704245124174,0.0020088035893595178,0.001090830782496456,-4.7017588786809545,22.24988822324159,-16.5
1774880512.5976453,0.02095466941775623,-0.34656302268877726,-9.395421396364503,0.28884351133339814,-1.5631866231378666,9.690251310623058,-0.0013835704245124174,0.0020088035893595178,0.001090830782496456,-4.7017588786809545,22.24988822324159,-16.5
1774880512.615381,0.02095466941775623,-0.34656302268877726,-9.395421396364503,0.2931389733184277,-1.5665817327799765,9.680131909290363,0.0,0.0,-0.003272492347489368,-4.7017588786809545,22.24988822324159,-16.5
1774880512.6451313,0.034862832738979055,-0.3454230793830334,-9.395542950208686,0.2955324560449353,-1.5655285197525093,9.673397560744574,0.0007769006167801637,0.0023121384932256444,0.0,-5.349948761517078,21.02284660789642,-17.25
1774880512.7267487,0.05699664084983535,-0.40576139142104817,-10.28522903799428,0.2905000509256088,-1.5657578167300406,9.682296373844233,-0.0003033349038661268,0.002160471041292581,0.0,-5.349948761517078,21.02284660789642,-17.25
1774880512.7829645,0.05699664084983535,-0.40576139142104817,-10.28522903799428,0.2905000509256088,-1.5657578167300406,9.682296373844233,-0.0003033349038661268,0.002160471041292581,0.0,-5.349948761517078,21.02284660789642,-17.25
1774880512.8225112,0.11240922005256276,-0.3460468139905186,-9.395159225293268,0.28668594229327043,-1.562597790738741,9.6882184345558,0.0001516674519330634,-0.0010802355206462905,-0.001090830782496456,-5.615963918156487,20.66993240240433,-16.5
1774880512.8369324,0.11240922005256276,-0.3460468139905186,-9.395159225293268,0.28668594229327043,-1.562597790738741,9.6882184345558,0.0001516674519330634,-0.0010802355206462905,-0.001090830782496456,-5.615963918156487,20.66993240240433,-16.5
1774880512.8808904,0.13327258228999203,-0.34433678704938364,-9.395339989961043,0.2841476956048343,-1.5604948287413345,9.685469276390956,0.0,0.0,0.0,-5.615963918156487,20.66993240240433,-16.5
1774880512.901245,0.14775180932224355,-0.3501512415912803,-9.394985043885937,0.2829236200288287,-1.5624079515921168,9.683639742342361,0.00045500235579919027,-0.003240706561938872,0.0,-5.410778095713953,21.456097161388463,-16.0625
1774880512.9292169,0.14775180932224355,-0.3501512415912803,-9.394985043885937,0.2854216319752488,-1.5632160142372546,9.689112431284894,-0.0009285680687132271,-0.0012319029725793539,0.001090830782496456,-5.410778095713953,21.456097161388463,-16.0625
1774880512.9587264,0.3161802512588954,-0.34330546763041214,-9.394810261070832,0.28330631121146255,-1.5609062495735864,9.692754444642208,0.0001516674519330634,-0.0010802355206462905,0.002181661564992912,-4.978591144238181,21.074986037208024,-15.375
1774880513.00262,0.3161802512588954,-0.34330546763041214,-9.394810261070832,0.28330631121146255,-1.5609062495735864,9.692754444642208,0.0001516674519330634,-0.0010802355206462905,0.002181661564992912,-4.978591144238181,21.074986037208024,-15.375
1774880513.0322077,0.5483447741202534,-0.3452406735143884,-9.39423216182955,0.28142686462285754,-1.561658809652632,9.691219875722787,0.0001516674519330634,-0.0010802355206462905,0.0,-4.978591144238181,21.074986037208024,-15.375
1774880513.088918,0.5483447741202534,-0.3452406735143884,-9.39423216182955,0.2811129374039967,-1.5631825678860667,9.684121590251971,0.0,0.0,0.0,-5.815831730517647,22.09346993530677,-17.6875
1774880513.1123247,0.5483447741202534,-0.3452406735143884,-9.39423216182955,0.2804389231055664,-1.5608839914004908,9.679397760564187,-0.0020088035893595178,-0.0013835704245124174,0.001090830782496456,-5.815831730517647,22.09346993530677,-17.6875
1774880513.146765,0.5483447741202534,-0.3452406735143884,-9.39423216182955,0.2804389231055664,-1.5608839914004908,9.679397760564187,-0.0020088035893595178,-0.0013835704245124174,0.001090830782496456,-5.815831730517647,22.09346993530677,-17.6875
1774880513.1789968,0.5911014282076404,-0.3487177299196717,-9.393561343665096,0.2833029946876257,-1.5588892151850466,9.676254104675603,-0.0009285680687132271,-0.0012319029725793539,-0.001090830782496456,-5.039420478435056,21.508236590700072,-16.0625
1774880513.200225,0.5911014282076404,-0.3487177299196717,-9.393561343665096,0.2790488604359222,-1.561804532947361,9.677507148506006,-0.0012319029725793539,0.0009285680687132271,0.002181661564992912,-5.039420478435056,21.508236590700072,-16.0625
1774880513.2416165,0.6258827541954438,-0.34586700740713405,-9.39385113746235,0.28284302275007017,-1.5628144458697977,9.678341035177723,-0.0009285680687132271,-0.0012319029725793539,0.0,-4.935141619811842,20.765521356142276,-16.5625
1774880513.2864368,0.6258827541954438,-0.34586700740713405,-9.39385113746235,0.28284302275007017,-1.5628144458697977,9.678341035177723,-0.0009285680687132271,-0.0012319029725793539,0.0,-4.935141619811842,20.765521356142276,-16.5625
1774880513.3281367,0.6258827541954438,-0.34586700740713405,-9.39385113746235,0.2815902755770587,-1.560639010310856,9.688931312564584,-0.0013835704245124174,0.0020088035893595178,0.0,-4.935141619811842,20.765521356142276,-16.5625
1774880513.363389,0.6751490965924604,-0.3488321662314752,-9.39381085355875,0.2873818274643857,-1.5582610837654376,9.69597902386439,0.0013835704245124174,-0.0020088035893595178,-0.002181661564992912,-5.091559907746662,21.87959420797897,-15.375
1774880513.3917706,0.6467521931769515,-0.3441564359308633,-9.3940241884363,0.2846107994126648,-1.5576087986947922,9.69397897359168,0.0001516674519330634,-0.0010802355206462905,0.0,-5.091559907746662,21.87959420797897,-15.375
1774880513.4253561,0.6467521931769515,-0.3441564359308633,-9.3940241884363,0.2893919523355195,-1.5562445117846289,9.689302850769897,-0.0003033349038661268,0.002160471041292581,-0.001090830782496456,-6.143739823370205,21.731865824929415,-16.0625
1774880513.4547555,0.6467521931769515,-0.3441564359308633,-9.3940241884363,0.2893919523355195,-1.5562445117846289,9.689302850769897,-0.0003033349038661268,0.002160471041292581,-0.001090830782496456,-6.143739823370205,21.731865824929415,-16.0625
1774880513.4756806,0.731244775237003,-0.344213036751894,-9.393700170326083,0.28926113562826994,-1.5558016933270737,9.682845831560394,0.0,0.0,-0.001090830782496456,-6.143739823370205,21.731865824929415,-16.0625
1774880513.4898062,0.731244775237003,-0.344213036751894,-9.393700170326083,0.28926113562826994,-1.5558016933270737,9.682845831560394,0.0,0.0,-0.001090830782496456,-6.143739823370205,21.731865824929415,-16.0625
1774880513.5153506,0.9362697524712319,-0.40364942826464056,-10.282821566483612,0.2901042770530642,-1.5621322437270404,9.678548757406102,-0.0015352378764454807,0.0030890391100058083,0.0,-4.348844673188868,21.983873066602182,-15.75
1774880513.544388,0.9286222758739857,-0.3490038955539701,-9.392849458914123,0.2855216522809164,-1.5699234168177478,9.684928526563219,0.0001516674519330634,-0.0010802355206462905,0.001090830782496456,-4.348844673188868,21.983873066602182,-15.75
1774880513.6089032,0.9286222758739857,-0.3490038955539701,-9.392849458914123,0.2838379728486596,-1.5686825716327397,9.686624991079892,0.0010802355206462905,0.0001516674519330634,0.0,-5.30649923709074,20.71338192683067,-16.0625
1774880513.6255527,0.9286222758739857,-0.3490038955539701,-9.392849458914123,0.28603012356285595,-1.5673917037821907,9.687753969264987,-0.0001516674519330634,0.0010802355206462905,0.0,-5.30649923709074,20.71338192683067,-16.0625
1774880513.6644444,0.9286222758739857,-0.3490038955539701,-9.392849458914123,0.28603012356285595,-1.5673917037821907,9.687753969264987,-0.0001516674519330634,0.0010802355206462905,0.0,-5.30649923709074,20.71338192683067,-16.0625
1774880513.7106423,0.9355797488674107,-0.3484336479862366,-9.392905890570761,0.2832461563246435,-1.560372503751801,9.695195515050296,0.0013835704245124174,-0.0020088035893595178,0.0,-5.46291752502556,21.827454778667363,-16.0625
1774880513.7242398,0.9355797488674107,-0.3484336479862366,-9.392905890570761,0.2832461563246435,-1.560372503751801,9.695195515050296,0.0013835704245124174,-0.0020088035893595178,0.0,-5.46291752502556,21.827454778667363,-16.0625
1774880513.7721994,0.9981993092276938,-0.34330092029163733,-9.393410677919166,0.2813934572265649,-1.5557013045411785,9.700147780642904,-0.0012319029725793539,0.0009285680687132271,-0.001090830782496456,-5.46291752502556,21.827454778667363,-16.0625
1774880513.8220658,0.9987696468809046,-0.35025875687323194,-9.392987229287362,0.2801605066727985,-1.5525926736472235,9.696753234659715,0.0013835704245124174,-0.0020088035893595178,0.001090830782496456,-5.46291752502556,21.827454778667363,-15.75
1774880513.8499334,0.9987696468809046,-0.35025875687323194,-9.392987229287362,0.2793399918522272,-1.550523914512979,9.694494202227466,0.0,0.0,0.001090830782496456,-5.46291752502556,21.827454778667363,-15.75
1774880513.9295413,1.1955767156833093,-0.3480943565204725,-9.392569548363603,0.278793948404888,-1.5491471784186928,9.69299084137885,-0.0001516674519330634,0.0010802355206462905,-0.002181661564992912,-4.444433626926814,22.664695364946827,-15.75
1774880513.962542,1.1955767156833093,-0.3480943565204725,-9.392569548363603,0.278793948404888,-1.5491471784186928,9.69299084137885,-0.0001516674519330634,0.0010802355206462905,-0.002181661564992912,-4.444433626926814,22.664695364946827,-15.75
1774880514.004655,1.2587761938328716,-0.3499194765626977,-9.392654831236117,0.28174318315882046,-1.54776587668602,9.691990371527737,0.0,0.0,-0.001090830782496456,-4.444433626926814,22.664695364946827,-15.75
1774880514.0246646,1.2587761938328716,-0.3499194765626977,-9.392654831236117,0.28417096518352686,-1.5501592563815094,9.687979458310483,-0.0003033349038661268,0.002160471041292581,-0.001090830782496456,-5.091559907746662,21.87959420797897,-15.75
1774880514.0758169,1.2587761938328716,-0.3499194765626977,-9.392654831236117,0.2895643468103737,-1.554599545160411,9.681965128661917,0.0024638059451587077,-0.0018571361374264542,0.0,-5.091559907746662,21.87959420797897,-15.75
1774880514.1359463,1.2587761938328716,-0.3499194765626977,-9.392654831236117,0.28891693684577396,-1.5604512008122609,9.675299060925397,0.0001516674519330634,-0.0010802355206462905,0.001090830782496456,-4.348844673188868,21.983873066602182,-16.5625
1774880514.1930437,1.2587761938328716,-0.3499194765626977,-9.392654831236117,0.2860974967987585,-1.5623789176926741,9.683561800973422,0.0009285680687132271,0.0012319029725793539,-0.003272492347489368,-4.348844673188868,21.983873066602182,-16.5625
1774880514.2334194,1.2587761938328716,-0.3499194765626977,-9.392654831236117,0.28799891075218564,-1.5665093130699372,9.682370338759888,-0.000758337259665317,0.005401177603231453,0.001090830782496456,-5.091559907746662,21.87959420797897,-17.0
1774880514.302826,1.2587761938328716,-0.3499194765626977,-9.392654831236117,0.28926428049800584,-1.5692580450539662,9.681577433966286,-0.0010802355206462905,-0.0001516674519330634,0.001090830782496456,-5.091559907746662,21.87959420797897,-17.0
1774880514.3192582,1.2587761938328716,-0.3499194765626977,-9.392654831236117,0.28926428049800584,-1.5692580450539662,9.681577433966286,-0.0010802355206462905,-0.0001516674519330634,0.001090830782496456,-5.091559907746662,21.87959420797897,-17.0
1774880514.3353915,1.2587761938328716,-0.3499194765626977,-9.392654831236117,0.2896412706876677,-1.5677746749155574,9.677704652976152,-0.0012319029725793539,0.0009285680687132271,-0.002181661564992912,-6.524850947550645,21.299678873453644,-14.5625
1774880514.4097407,1.2587761938328716,-0.3499194765626977,-9.392654831236117,0.2865795328791996,-1.567252607899852,9.675127360489016,0.0,0.0,-0.003272492347489368,-6.524850947550645,21.299678873453644,-14.5625
1774880514.4513202,1.2587761938328716,-0.3499194765626977,-9.392654831236117,0.28454198056951646,-1.5669051781327705,9.67675731283639,0.0010802355206462905,0.0001516674519330634,0.0,-5.772382206091307,21.784005254241023,2032.25
1774880514.4936886,1.2587761938328716,-0.3499194765626977,-9.392654831236117,0.28318601226837303,-1.566673967503823,9.677842027915807,0.0007769006167801637,0.0023121384932256444,0.0,-5.772382206091307,21.784005254241023,2032.25
1774880514.547415,1.2587761938328716,-0.3499194765626977,-9.392654831236117,0.28181853127004525,-1.5632074788446184,9.678563893684096,-0.0020088035893595178,-0.0013835704245124174,-0.002181661564992912,-4.935141619811842,20.765521356142276,-16.1875
1774880514.6333578,1.2587761938328716,-0.3499194765626977,-9.392654831236117,0.28181853127004525,-1.5632074788446184,9.678563893684096,-0.0020088035893595178,-0.0013835704245124174,-0.002181661564992912,-4.935141619811842,20.765521356142276,-16.1875
1774880514.6619074,1.2587761938328716,-0.3499194765626977,-9.392654831236117,0.28753372907828506,-1.559970370882983,9.682389398996444,0.0,0.0,-0.001090830782496456,-4.935141619811842,20.765521356142276,-16.1875
1774880514.7187967,1.2587761938328716,-0.3499194765626977,-9.392654831236117,0.28471188823986265,-1.5587463101775303,9.684935230048117,0.0010802355206462905,0.0001516674519330634,0.0,-4.625676938746094,20.808970880568616,-15.375
1774880514.7375038,1.2587761938328716,-0.3499194765626977,-9.392654831236117,0.2828339846839201,-1.5579317114517057,9.68662945217421,0.0024638059451587077,-0.0018571361374264542,0.001090830782496456,-4.625676938746094,20.808970880568616,-15.375
1774880514.8004694,1.2587761938328716,-0.3499194765626977,-9.392654831236117,0.282514459327148,-1.5640148462361965,9.684411826366103,-0.0001516674519330634,0.0010802355206462905,0.0,-5.720242776779701,21.412647636962124,-15.75
1774880514.831102,1.2587761938328716,-0.3499194765626977,-9.392654831236117,0.28561443933998,-1.567598005241132,9.686281132870631,0.0012319029725793539,-0.0009285680687132271,-0.002181661564992912,-5.720242776779701,21.412647636962124,-15.75
1774880514.8803327,1.2587761938328716,-0.3499194765626977,-9.392654831236117,0.2876774414094739,-1.5699825575324078,9.684180023760554,0.0,0.0,0.002181661564992912,-5.506367049451899,22.13691945973311,-16.0625
1774880514.9167662,1.2587761938328716,-0.3499194765626977,-9.392654831236117,0.2876774414094739,-1.5699825575324078,9.684180023760554,0.0,0.0,0.002181661564992912,-5.506367049451899,22.13691945973311,-16.0625
1774880514.9371157,1.2587761938328716,-0.3499194765626977,-9.392654831236117,0.289050346241479,-1.5715694504450575,9.686126870826042,0.0,0.0,0.0,-5.506367049451899,22.13691945973311,-16.0625
1774880515.0068982,1.2587761938328716,-0.3499194765626977,-9.392654831236117,0.28996399907082654,-1.5726255099516706,9.68742247580042,-0.0010802355206462905,-0.0001516674519330634,-0.001090830782496456,-5.091559907746662,21.87959420797897,-16.1875
1774880515.0274024,1.2587761938328716,-0.3499194765626977,-9.392654831236117,0.2905720248225865,-1.5733283057563638,9.68828468643801,-0.0013835704245124174,0.0020088035893595178,-0.001090830782496456,-5.091559907746662,21.87959420797897,-16.1875
1774880515.074881,1.2587761938328716,-0.3499194765626977,-9.392654831236117,0.2909766591682901,-1.5737960085136438,9.685513366278483,-0.0009285680687132271,-0.0012319029725793539,0.001090830782496456,-5.410778095713953,21.456097161388463,-14.5625
1774880515.1085114,1.2587761938328716,-0.3499194765626977,-9.392654831236117,0.28746821899578706,-1.5712597381466749,9.683669083669994,-0.0012319029725793539,0.0009285680687132271,-0.003272492347489368,-5.410778095713953,21.456097161388463,-14.5625
1774880515.132284,1.2587761938328716,-0.3499194765626977,-9.392654831236117,0.2846682920117558,-1.5662592579810217,9.682441734196031,-0.0009285680687132271,-0.0012319029725793539,0.0,-5.815831730517647,22.09346993530677,-16.1875
1774880515.1941516,1.2587761938328716,-0.3499194765626977,-9.392654831236117,0.28327007112219205,-1.566244114858235,9.6816249468315,0.0010802355206462905,0.0001516674519330634,-0.004363323129985824,-5.815831730517647,22.09346993530677,-16.1875
1774880515.2431085,1.2587761938328716,-0.3499194765626977,-9.392654831236117,0.27902695017090645,-1.5666991365202554,9.681081383964518,-0.0007769006167801637,-0.0023121384932256444,0.0,-5.506367049451899,22.13691945973311,-15.375
1774880515.285107,1.2587761938328716,-0.3499194765626977,-9.392654831236117,0.27902695017090645,-1.5666991365202554,9.681081383964518,-0.0007769006167801637,-0.0023121384932256444,0.0,-5.506367049451899,22.13691945973311,-15.375
1774880515.3152845,1.2587761938328716,-0.3499194765626977,-9.392654831236117,0.2762032005765926,-1.5670019483534048,9.680719648948536,-0.0001516674519330634,0.0010802355206462905,0.0,-5.506367049451899,22.13691945973311,-15.375
1774880515.33142,1.2587761938328716,-0.3499194765626977,-9.392654831236117,0.2762032005765926,-1.5670019483534048,9.680719648948536,-0.0001516674519330634,0.0010802355206462905,0.0,-5.506367049451899,22.13691945973311,-15.375
1774880515.395663,1.2587761938328716,-0.3499194765626977,-9.392654831236117,0.2841077226896627,-1.5657883389709562,9.676973603095583,-0.0001516674519330634,0.0010802355206462905,0.0,-4.782095226680915,21.923043732405308,-15.75
1774880515.4316278,1.2587761938328716,-0.3499194765626977,-9.392654831236117,0.2841077226896627,-1.5657883389709562,9.676973603095583,-0.0001516674519330634,0.0010802355206462905,0.0,-4.782095226680915,21.923043732405308,-15.75
1774880515.5142274,1.2587761938328716,-0.3499194765626977,-9.392654831236117,0.2862096390687403,-1.5654656242764708,9.67464085495986,0.0012319029725793539,-0.0009285680687132271,0.003272492347489368,-6.091600394058598,21.36050820765052,-15.75
1774880515.560076,1.2587761938328716,-0.3499194765626977,-9.392654831236117,0.28429582037064044,-1.5657159604933257,9.66974332542672,-0.0006066698077322536,0.004320942082585162,-0.001090830782496456,-6.091600394058598,21.36050820765052,-15.75
1774880515.592577,1.2587761938328716,-0.3499194765626977,-9.392654831236117,0.28429582037064044,-1.5657159604933257,9.66974332542672,-0.0006066698077322536,0.004320942082585162,-0.001090830782496456,-6.091600394058598,21.36050820765052,-15.75
1774880515.6285067,1.2587761938328716,-0.3499194765626977,-9.392654831236117,0.2891823373015987,-1.5616397373986215,9.669829185938726,0.0,0.0,0.0,-5.46291752502556,21.827454778667363,-15.375
1774880515.657332,1.2587761938328716,-0.3499194765626977,-9.392654831236117,0.29243425973318066,-1.5589270564634914,9.66988632515034,-0.0009285680687132271,-0.0012319029725793539,-0.001090830782496456,-5.46291752502556,21.827454778667363,-15.375
1774880515.682733,1.2587761938328716,-0.3499194765626977,-9.392654831236117,0.29243425973318066,-1.5589270564634914,9.66988632515034,-0.0009285680687132271,-0.0012319029725793539,-0.001090830782496456,-5.46291752502556,21.827454778667363,-15.375
1774880515.7071147,1.2587761938328716,-0.3499194765626977,-9.392654831236117,0.2945983777850447,-1.557121797603794,9.679959685779341,-0.00045500235579919027,0.003240706561938872,0.001090830782496456,-4.235875909680386,21.17926489583124,-16.1875
1774880515.7234879,1.2587761938328716,-0.3499194765626977,-9.392654831236117,0.29603857417377755,-1.555920417998728,9.69000850645845,0.0001516674519330634,-0.0010802355206462905,-0.001090830782496456,-4.235875909680386,21.17926489583124,-16.1875
1774880515.745801,1.2587761938328716,-0.3499194765626977,-9.392654831236117,0.28705914707713653,-1.5565162110150719,9.696695884367713,-0.0015352378764454807,0.0030890391100058083,0.001090830782496456,-4.235875909680386,21.17926489583124,-16.1875
1774880515.7731879,1.2587761938328716,-0.3499194765626977,-9.392654831236117,0.28705914707713653,-1.5565162110150719,9.696695884367713,-0.0015352378764454807,0.0030890391100058083,0.001090830782496456,-4.235875909680386,21.17926489583124,-16.1875
1774880515.7970927,1.2587761938328716,-0.3499194765626977,-9.392654831236117,0.281083438651095,-1.5569127046120046,9.694456036248784,0.0012319029725793539,-0.0009285680687132271,-0.003272492347489368,-5.506367049451899,22.13691945973311,-15.375
1774880515.8101277,1.2587761938328716,-0.3499194765626977,-9.392654831236117,0.281083438651095,-1.5569127046120046,9.694456036248784,0.0012319029725793539,-0.0009285680687132271,-0.003272492347489368,-5.506367049451899,22.13691945973311,-15.375
1774880515.8303168,1.2587761938328716,-0.3499194765626977,-9.392654831236117,0.2771066714466013,-1.5571765666716397,9.69296544234638,0.0,0.0,0.001090830782496456,-5.506367049451899,22.13691945973311,-15.375
1774880515.8498871,1.2587761938328716,-0.3499194765626977,-9.392654831236117,0.2771066714466013,-1.5571765666716397,9.69296544234638,0.0,0.0,0.001090830782496456,-5.506367049451899,22.13691945973311,-15.375
1774880515.8688245,1.2587761938328716,-0.3499194765626977,-9.392654831236117,0.2777727978638428,-1.5568870646837192,9.691973468755354,0.0,0.0,-0.001090830782496456,-5.506367049451899,22.13691945973311,-15.375
1774880515.886605,1.2587761938328716,-0.3499194765626977,-9.392654831236117,0.2777727978638428,-1.5568870646837192,9.691973468755354,0.0,0.0,-0.001090830782496456,-5.506367049451899,22.13691945973311,-15.375
1774880515.8994992,1.2587761938328716,-0.3499194765626977,-9.392654831236117,0.2782160975533974,-1.5566944043447073,9.691313321411597,-0.0010802355206462905,-0.0001516674519330634,0.001090830782496456,-5.506367049451899,22.13691945973311,-15.375
1774880515.9119966,1.2587761938328716,-0.3499194765626977,-9.392654831236117,0.27519848797638236,-1.5570312902823273,9.690874000728655,0.0010802355206462905,0.0001516674519330634,-0.001090830782496456,-5.506367049451899,22.13691945973311,-15.375
1774880515.9427273,1.2587761938328716,-0.3499194765626977,-9.392654831236117,0.27519848797638236,-1.5570312902823273,9.690874000728655,0.0010802355206462905,0.0001516674519330634,-0.001090830782496456,-5.506367049451899,22.13691945973311,-15.375
1774880516.0172098,1.2587761938328716,-0.3499194765626977,-9.392654831236117,0.27272520327071126,-1.5539428635421189,9.683891414307054,0.0003033349038661268,-0.002160471041292581,0.0,-5.091559907746662,21.87959420797897,-15.0
1774880516.0467906,1.2587761938328716,-0.3499194765626977,-9.392654831236117,0.2777045010643509,-1.550957351564347,9.67924458104408,-0.0009285680687132271,-0.0012319029725793539,0.0,-5.091559907746662,21.87959420797897,-15.0
1774880516.070984,1.2587761938328716,-0.3499194765626977,-9.392654831236117,0.2777045010643509,-1.550957351564347,9.67924458104408,-0.0009285680687132271,-0.0012319029725793539,0.0,-5.091559907746662,21.87959420797897,-15.0
1774880516.0872889,1.2587761938328716,-0.3499194765626977,-9.392654831236117,0.2909560298289122,-1.5475752289702684,9.679497277123417,-0.0001516674519330634,0.0010802355206462905,-0.001090830782496456,-4.5735375094344874,20.43761326328972,-16.0625
1774880516.102525,1.2587761938328716,-0.3499194765626977,-9.392654831236117,0.2909560298289122,-1.5475752289702684,9.679497277123417,-0.0001516674519330634,0.0010802355206462905,-0.001090830782496456,-4.5735375094344874,20.43761326328972,-16.0625
1774880516.1309936,1.2587761938328716,-0.3499194765626977,-9.392654831236117,0.3009010350927439,-1.5501183554721127,9.676432244706733,0.00045500235579919027,-0.003240706561938872,0.001090830782496456,-4.5735375094344874,20.43761326328972,-16.0625
1774880516.1691523,1.2587761938328716,-0.3499194765626977,-9.392654831236117,0.3009010350927439,-1.5501183554721127,9.676432244706733,0.00045500235579919027,-0.003240706561938872,0.001090830782496456,-4.5735375094344874,20.43761326328972,-16.0625
1774880516.1961603,1.2587761938328716,-0.3499194765626977,-9.392654831236117,0.29360768106989277,-1.5521899039758194,9.67428058699945,-0.0010802355206462905,-0.0001516674519330634,0.0,-6.576990376862251,21.67103649073254,-16.1875
1774880516.2180889,1.2587761938328716,-0.3499194765626977,-9.392654831236117,0.29360768106989277,-1.5521899039758194,9.67428058699945,-0.0010802355206462905,-0.0001516674519330634,0.0,-6.576990376862251,21.67103649073254,-16.1875
1774880516.241713,1.2587761938328716,-0.3499194765626977,-9.392654831236117,0.2882889361987129,-1.5502558757958915,9.672848682830844,0.0001516674519330634,-0.0010802355206462905,-0.002181661564992912,-6.576990376862251,21.67103649073254,-16.1875
1774880516.2639575,1.2587761938328716,-0.3499194765626977,-9.392654831236117,0.2882889361987129,-1.5502558757958915,9.672848682830844,0.0001516674519330634,-0.0010802355206462905,-0.002181661564992912,-6.576990376862251,21.67103649073254,-16.1875
1774880516.3111782,1.2587761938328716,-0.3499194765626977,-9.392654831236117,0.28759689222857227,-1.545191081837153,9.668550654894736,-0.0001516674519330634,0.0010802355206462905,0.0,-4.978591144238181,21.074986037208024,-15.75
1774880516.3250947,1.2587761938328716,-0.3499194765626977,-9.392654831236117,0.28713634469708144,-1.5418205180350681,9.665690365315372,0.0012319029725793539,-0.0009285680687132271,-0.001090830782496456,-4.978591144238181,21.074986037208024,-15.75
1774880516.338016,1.2587761938328716,-0.3499194765626977,-9.392654831236117,0.28713634469708144,-1.5418205180350681,9.665690365315372,0.0012319029725793539,-0.0009285680687132271,-0.001090830782496456,-4.978591144238181,21.074986037208024,-15.75
1774880516.358162,1.2587761938328716,-0.3499194765626977,-9.392654831236117,0.2853776318553965,-1.5532930269912473,9.663786874551835,0.002160471041292581,0.0003033349038661268,0.001090830782496456,-4.978591144238181,21.074986037208024,-15.75
1774880516.3855982,1.2587761938328716,-0.3499194765626977,-9.392654831236117,0.28420722810536486,-1.5609278535452622,9.672555457834044,-0.0012319029725793539,0.0009285680687132271,-0.002181661564992912,-5.815831730517647,22.09346993530677,-17.0
1774880516.4311352,1.2587761938328716,-0.3499194765626977,-9.392654831236117,0.28296323824291014,-1.5626961247619267,9.678390852056861,0.0009285680687132271,0.0012319029725793539,-0.001090830782496456,-5.815831730517647,22.09346993530677,-17.0
1774880516.449463,1.2587761938328716,-0.3499194765626977,-9.392654831236117,0.2821353768857238,-1.563872889503733,9.675584018311882,0.0001516674519330634,-0.0010802355206462905,0.0,-5.659413442582826,20.97939708347008,-15.75
1774880516.4812706,1.2587761938328716,-0.3499194765626977,-9.392654831236117,0.2815844444003336,-1.5646560132940817,9.673716101808987,-0.0001516674519330634,0.0010802355206462905,0.0,-5.659413442582826,20.97939708347008,-15.75
1774880516.4959474,1.2587761938328716,-0.3499194765626977,-9.392654831236117,0.2783702836582691,-1.5689548932379997,9.672473024242304,0.0020088035893595178,0.0013835704245124174,0.0,-5.659413442582826,20.97939708347008,-15.75
1774880516.5272875,1.2587761938328716,-0.3499194765626977,-9.392654831236117,0.2783702836582691,-1.5689548932379997,9.672473024242304,0.0020088035893595178,0.0013835704245124174,0.0,-5.659413442582826,20.97939708347008,-15.75
1774880516.545676,1.2587761938328716,-0.3499194765626977,-9.392654831236117,0.2783702836582691,-1.5689548932379997,9.672473024242304,0.0020088035893595178,0.0013835704245124174,0.0,-5.659413442582826,20.97939708347008,-15.75
1774880516.5708344,1.2587761938328716,-0.3499194765626977,-9.392654831236117,0.2753010971068028,-1.5651905086821782,9.678335993422401,-0.0010802355206462905,-0.0001516674519330634,0.0,-5.349948761517078,21.02284660789642,-17.0
1774880516.6162832,1.2587761938328716,-0.3499194765626977,-9.392654831236117,0.2737236869829375,-1.5659979733796416,9.682237733918098,0.0012319029725793539,-0.0009285680687132271,0.001090830782496456,-5.349948761517078,21.02284660789642,-17.0
1774880516.632326,1.2587761938328716,-0.3499194765626977,-9.392654831236117,0.27552145949368717,-1.5627576123063252,9.684834298632689,-0.0012319029725793539,0.0009285680687132271,0.001090830782496456,-4.729955797369308,21.55168611512641,-17.0
1774880516.6505196,1.2587761938328716,-0.3499194765626977,-9.392654831236117,0.27718295625823147,-1.5639138087776694,9.686562283444719,0.0012319029725793539,-0.0009285680687132271,0.001090830782496456,-4.729955797369308,21.55168611512641,-17.0
1774880516.6727982,1.2587761938328716,-0.3499194765626977,-9.392654831236117,0.27828866379490075,-1.5646832446137882,9.68771223803427,0.0001516674519330634,-0.0010802355206462905,-0.003272492347489368,-4.729955797369308,21.55168611512641,-17.0
1774880516.6971562,1.2587761938328716,-0.3499194765626977,-9.392654831236117,0.27828866379490075,-1.5646832446137882,9.68771223803427,0.0001516674519330634,-0.0010802355206462905,-0.003272492347489368,-4.729955797369308,21.55168611512641,-17.0
1774880516.7580574,1.2587761938328716,-0.3499194765626977,-9.392654831236117,0.27902449980899163,-1.5651952955675639,9.685132408260463,0.0,0.0,0.001090830782496456,-5.659413442582826,20.97939708347008,-16.1875
1774880516.7942824,1.2587761938328716,-0.3499194765626977,-9.392654831236117,0.2795141904565423,-1.5655360597573174,9.683415560364582,-0.0010802355206462905,-0.0001516674519330634,0.001090830782496456,-5.659413442582826,20.97939708347008,-16.1875
1774880516.8186529,1.2587761938328716,-0.3499194765626977,-9.392654831236117,0.2795141904565423,-1.5655360597573174,9.683415560364582,-0.0010802355206462905,-0.0001516674519330634,0.001090830782496456,-5.659413442582826,20.97939708347008,-16.1875
1774880516.8562248,1.2587761938328716,-0.3499194765626977,-9.392654831236117,0.2825949490227414,-1.5599315187962797,9.687083913781994,0.0001516674519330634,-0.0010802355206462905,0.001090830782496456,-5.410778095713953,21.456097161388463,-16.5625
1774880516.8906734,1.2587761938328716,-0.3499194765626977,-9.392654831236117,0.28473780585111813,-1.5582553553067602,9.688059377196733,0.0003033349038661268,-0.002160471041292581,-0.001090830782496456,-4.669126463172433,21.118435561634364,-15.75
1774880516.9787738,1.2587761938328716,-0.3499194765626977,-9.392654831236117,0.28473780585111813,-1.5582553553067602,9.688059377196733,0.0003033349038661268,-0.002160471041292581,-0.001090830782496456,-4.669126463172433,21.118435561634364,-15.75
1774880517.0472524,1.2587761938328716,-0.3499194765626977,-9.392654831236117,0.2861638531331236,-1.557139887228458,9.688708537202602,-0.0003033349038661268,0.002160471041292581,-0.002181661564992912,-5.30649923709074,20.71338192683067,-14.1875
1774880517.0972257,1.2587761938328716,-0.3499194765626977,-9.392654831236117,0.290425492237738,-1.5559324564418677,9.682450322520278,0.0009285680687132271,0.0012319029725793539,0.001090830782496456,-5.30649923709074,20.71338192683067,-14.1875
1774880517.11211,1.2587761938328716,-0.3499194765626977,-9.392654831236117,0.293726664697306,-1.5584415453097091,9.67828555055803,-0.0012319029725793539,0.0009285680687132271,0.0,-4.935141619811842,20.765521356142276,-17.0
1774880517.1402993,1.2587761938328716,-0.3499194765626977,-9.392654831236117,0.293726664697306,-1.5584415453097091,9.67828555055803,-0.0012319029725793539,0.0009285680687132271,0.0,-4.935141619811842,20.765521356142276,-17.0
1774880517.1788783,1.2587761938328716,-0.3499194765626977,-9.392654831236117,0.29261093752420425,-1.5605764151639736,9.675513941340705,-0.0013835704245124174,0.0020088035893595178,-0.001090830782496456,-4.935141619811842,20.765521356142276,-17.0
1774880517.2371514,1.2587761938328716,-0.3499194765626977,-9.392654831236117,0.28809071374448736,-1.5591496258765714,9.677014578074798,-0.00045500235579919027,0.003240706561938872,0.001090830782496456,-4.296705243877261,21.612515449323286,-16.1875
1774880517.2688873,1.2587761938328716,-0.3499194765626977,-9.392654831236117,0.2850825553132939,-1.558200113544086,9.678013235058126,0.0001516674519330634,-0.0010802355206462905,0.002181661564992912,-4.296705243877261,21.612515449323286,-16.1875
1774880517.2824945,1.2587761938328716,-0.3499194765626977,-9.392654831236117,0.2850825553132939,-1.558200113544086,9.678013235058126,0.0001516674519330634,-0.0010802355206462905,0.002181661564992912,-4.296705243877261,21.612515449323286,-16.1875
1774880517.2954223,1.2587761938328716,-0.3499194765626977,-9.392654831236117,0.28308065948066613,-1.5575682236935646,9.68202294183212,-0.0007769006167801637,-0.0023121384932256444,0.001090830782496456,-4.296705243877261,21.612515449323286,-16.1875
1774880517.308316,1.2587761938328716,-0.3499194765626977,-9.392654831236117,0.2789008988393376,-1.5609254278662215,9.681346245191534,-0.0012319029725793539,0.0009285680687132271,-0.002181661564992912,-4.235875909680386,21.17926489583124,-15.75
1774880517.325108,1.2587761938328716,-0.3499194765626977,-9.392654831236117,0.2789008988393376,-1.5609254278662215,9.681346245191534,-0.0012319029725793539,0.0009285680687132271,-0.002181661564992912,-4.235875909680386,21.17926489583124,-15.75
1774880517.3400338,1.2587761938328716,-0.3499194765626977,-9.392654831236117,0.27611931482351915,-1.563159609740697,9.684241022843741,-0.0009285680687132271,-0.0012319029725793539,-0.001090830782496456,-4.235875909680386,21.17926489583124,-15.75
1774880517.3635216,1.2587761938328716,-0.3499194765626977,-9.392654831236117,0.27611931482351915,-1.563159609740697,9.684241022843741,-0.0009285680687132271,-0.0012319029725793539,-0.001090830782496456,-4.235875909680386,21.17926489583124,-15.75
1774880517.3901565,1.2587761938328716,-0.3499194765626977,-9.392654831236117,0.27611931482351915,-1.563159609740697,9.684241022843741,-0.0009285680687132271,-0.0012319029725793539,-0.001090830782496456,-4.235875909680386,21.17926489583124,-15.75
1774880517.4091234,1.2587761938328716,-0.3499194765626977,-9.392654831236117,0.277580822301753,-1.5641813335796382,9.68282235332718,-0.0003033349038661268,0.002160471041292581,-0.002181661564992912,-4.392294197615207,22.29333774766793,-15.375
1774880517.426075,1.2587761938328716,-0.3499194765626977,-9.392654831236117,0.27855343920240944,-1.5648612793810506,9.681878244611486,-0.0009285680687132271,-0.0012319029725793539,0.001090830782496456,-4.392294197615207,22.29333774766793,-15.375
1774880517.4427698,1.2587761938328716,-0.3499194765626977,-9.392654831236117,0.2792007048849536,-1.5653137757163982,9.677904839100258,-0.0015352378764454807,0.0030890391100058083,-0.001090830782496456,-4.392294197615207,22.29333774766793,-15.375
1774880517.4738212,1.2587761938328716,-0.3499194765626977,-9.392654831236117,0.273006211829392,-1.5665451054550072,9.675260582118383,-0.00045500235579919027,0.003240706561938872,-0.001090830782496456,-5.2543598077791325,20.34202430955177,-16.5625
1774880517.5101888,1.2587761938328716,-0.3499194765626977,-9.392654831236117,0.26841874665686194,-1.5640519210727655,9.673500858635231,-0.0013835704245124174,0.0020088035893595178,-0.001090830782496456,-5.2543598077791325,20.34202430955177,-16.5625
1774880517.5307884,1.2587761938328716,-0.3499194765626977,-9.392654831236117,0.26867846039831855,-1.5619276354760028,9.675674894021911,0.0012319029725793539,-0.0009285680687132271,-0.002181661564992912,-5.2543598077791325,20.34202430955177,-16.5625
1774880517.5582597,1.2587761938328716,-0.3499194765626977,-9.392654831236117,0.26867846039831855,-1.5619276354760028,9.675674894021911,0.0012319029725793539,-0.0009285680687132271,-0.002181661564992912,-5.2543598077791325,20.34202430955177,-16.5625
1774880517.6028779,1.2587761938328716,-0.3499194765626977,-9.392654831236117,0.2792259653286338,-1.5525067856129422,9.6814296287456,0.002160471041292581,0.0003033349038661268,0.0,-4.782095226680915,21.923043732405308,-16.1875
1774880517.6172705,1.2587761938328716,-0.3499194765626977,-9.392654831236117,0.2792259653286338,-1.5525067856129422,9.6814296287456,0.002160471041292581,0.0003033349038661268,0.0,-4.782095226680915,21.923043732405308,-16.1875
1774880517.637867,1.2587761938328716,-0.3499194765626977,-9.392654831236117,0.2853433061640597,-1.5495365585034462,9.684296513667515,-0.0001516674519330634,0.0010802355206462905,0.001090830782496456,-4.782095226680915,21.923043732405308,-16.1875
1774880517.6600983,1.2587761938328716,-0.3499194765626977,-9.392654831236117,0.28656680682750457,-1.5513376253511948,9.686204393557848,-0.0001516674519330634,0.0010802355206462905,-0.001090830782496456,-4.729955797369308,21.55168611512641,-15.375
1774880517.6869838,1.2587761938328716,-0.3499194765626977,-9.392654831236117,0.29115875266113606,-1.5553837365464926,9.68078384289781,0.0007769006167801637,0.0023121384932256444,-0.001090830782496456,-4.729955797369308,21.55168611512641,-15.375
1774880517.7148309,1.2587761938328716,-0.3499194765626977,-9.392654831236117,0.2904369215085149,-1.5552288570215835,9.677176526985074,-0.0010802355206462905,-0.0001516674519330634,0.0,-5.410778095713953,21.456097161388463,-16.5625
1774880517.7334063,1.2587761938328716,-0.3499194765626977,-9.392654831236117,0.2904369215085149,-1.5552288570215835,9.677176526985074,-0.0010802355206462905,-0.0001516674519330634,0.0,-5.410778095713953,21.456097161388463,-16.5625
1774880517.7589815,1.2587761938328716,-0.3499194765626977,-9.392654831236117,0.28995655093982786,-1.555125786427874,9.674775898541506,-0.0012319029725793539,0.0009285680687132271,0.0,-5.410778095713953,21.456097161388463,-16.5625
1774880517.7778404,1.2587761938328716,-0.3499194765626977,-9.392654831236117,0.2863242491240258,-1.5555222933402095,9.676523418836409,-0.0001516674519330634,0.0010802355206462905,-0.001090830782496456,-5.410778095713953,21.456097161388463,-16.5625
1774880517.8000395,1.2587761938328716,-0.3499194765626977,-9.392654831236117,0.28344189360000427,-1.5524735436926649,9.681031485778906,0.0013835704245124174,-0.0020088035893595178,0.001090830782496456,-4.729955797369308,21.55168611512641,-16.5625
1774880517.819866,1.2587761938328716,-0.3499194765626977,-9.392654831236117,0.28344189360000427,-1.5524735436926649,9.681031485778906,0.0013835704245124174,-0.0020088035893595178,0.001090830782496456,-4.729955797369308,21.55168611512641,-16.5625
1774880517.8494885,1.2587761938328716,-0.3499194765626977,-9.392654831236117,0.28152371819678884,-1.5504446348589889,9.68403155397073,0.0001516674519330634,-0.0010802355206462905,-0.003272492347489368,-4.729955797369308,21.55168611512641,-16.5625
1774880517.888379,1.2587761938328716,-0.3499194765626977,-9.392654831236117,0.2816424916165979,-1.559032280399869,9.686028065839432,-0.0003033349038661268,0.002160471041292581,0.0,-4.669126463172433,21.118435561634364,-15.0
1774880517.901459,1.2587761938328716,-0.3499194765626977,-9.392654831236117,0.288346775137558,-1.5638170640948883,9.687356722185553,-0.0009285680687132271,-0.0012319029725793539,0.002181661564992912,-4.669126463172433,21.118435561634364,-15.0
1774880517.9186456,1.2587761938328716,-0.3499194765626977,-9.392654831236117,0.288346775137558,-1.5638170640948883,9.687356722185553,-0.0009285680687132271,-0.0012319029725793539,0.002181661564992912,-4.669126463172433,21.118435561634364,-15.0
1774880517.9565399,1.2587761938328716,-0.3499194765626977,-9.392654831236117,0.29187820244685253,-1.560376043057524,9.691586039849154,0.0,0.0,0.0,-4.669126463172433,21.118435561634364,-15.0
1774880518.0054317,1.2587761938328716,-0.3499194765626977,-9.392654831236117,0.2909157073041286,-1.5585511812369572,9.694400603509706,-0.0012319029725793539,0.0009285680687132271,-0.001090830782496456,-3.8210687679751496,20.921939644077096,-16.5625
1774880518.0334733,1.2587761938328716,-0.3499194765626977,-9.392654831236117,0.2909157073041286,-1.5585511812369572,9.694400603509706,-0.0012319029725793539,0.0009285680687132271,-0.001090830782496456,-3.8210687679751496,20.921939644077096,-16.5625
1774880518.0677104,1.2587761938328716,-0.3499194765626977,-9.392654831236117,0.2907402767794962,-1.5606493766488436,9.696273664185068,-0.0009285680687132271,-0.0012319029725793539,0.0,-3.8210687679751496,20.921939644077096,-16.5625
1774880518.0997577,1.2587761938328716,-0.3499194765626977,-9.392654831236117,0.29062352972504074,-1.5620457022570755,9.690829941726422,-0.0001516674519330634,0.0010802355206462905,0.0,-4.669126463172433,21.118435561634364,-16.1875
1774880518.1227894,1.2587761938328716,-0.3499194765626977,-9.392654831236117,0.29008073662337547,-1.5596623207829432,9.687207205240558,-0.0012319029725793539,0.0009285680687132271,-0.001090830782496456,-4.669126463172433,21.118435561634364,-16.1875
1774880518.177864,1.2587761938328716,-0.3499194765626977,-9.392654831236117,0.2897195138776134,-1.5580762070360237,9.684796314577833,0.0009285680687132271,0.0012319029725793539,0.0,-5.039420478435056,21.508236590700072,-15.375
1774880518.2045608,1.2587761938328716,-0.3499194765626977,-9.392654831236117,0.2894791241754313,-1.5570206660555004,9.683191893773204,0.0010802355206462905,0.0001516674519330634,0.002181661564992912,-5.039420478435056,21.508236590700072,-15.375
1774880518.22489,1.2587761938328716,-0.3499194765626977,-9.392654831236117,0.2935619665645401,-1.5624783572199155,9.682124169650278,-0.0012319029725793539,0.0009285680687132271,0.0,-5.039420478435056,21.508236590700072,-15.375
1774880518.2655683,1.2587761938328716,-0.3499194765626977,-9.392654831236117,0.2935619665645401,-1.5624783572199155,9.682124169650278,-0.0012319029725793539,0.0009285680687132271,0.0,-5.039420478435056,21.508236590700072,-15.375
1774880518.3040354,1.2587761938328716,-0.3499194765626977,-9.392654831236117,0.2962790525661541,-1.5661103897234285,9.68475872288105,0.0003033349038661268,-0.002160471041292581,0.002181661564992912,-5.349948761517078,21.02284660789642,-15.75
1774880518.3236244,1.2587761938328716,-0.3499194765626977,-9.392654831236117,0.29146200181152554,-1.5694576652642056,9.68985710033356,-0.0003033349038661268,0.002160471041292581,0.0,-5.349948761517078,21.02284660789642,-15.75
1774880518.349915,1.2587761938328716,-0.3499194765626977,-9.392654831236117,0.28825630834430294,-1.571685239745075,9.693250013575598,0.0003033349038661268,-0.002160471041292581,-0.001090830782496456,-5.349948761517078,21.02284660789642,-15.75
1774880518.405834,1.2587761938328716,-0.3499194765626977,-9.392654831236117,0.28897047647916513,-1.569389945868949,9.69550795943685,0.0001516674519330634,-0.0010802355206462905,0.0,-5.410778095713953,21.456097161388463,-16.1875
1774880518.4376028,1.2587761938328716,-0.3499194765626977,-9.392654831236117,0.2894457473951351,-1.5678624534345,9.693665485477284,0.0,0.0,-0.001090830782496456,-5.410778095713953,21.456097161388463,-16.1875
1774880518.4776003,1.2587761938328716,-0.3499194765626977,-9.392654831236117,0.28976203488058916,-1.5668459242825827,9.685749116224338,0.0001516674519330634,-0.0010802355206462905,0.001090830782496456,-5.091559907746662,21.87959420797897,-17.0
1774880518.4968362,1.2587761938328716,-0.3499194765626977,-9.392654831236117,0.28976203488058916,-1.5668459242825827,9.685749116224338,0.0001516674519330634,-0.0010802355206462905,0.001090830782496456,-5.091559907746662,21.87959420797897,-17.0
1774880518.5133586,1.2587761938328716,-0.3499194765626977,-9.392654831236117,0.28997252066899615,-1.5661694354873565,9.68717108433278,-0.0010802355206462905,-0.0001516674519330634,-0.003272492347489368,-5.091559907746662,21.87959420797897,-17.0
1774880518.527849,1.2587761938328716,-0.3499194765626977,-9.392654831236117,0.28997252066899615,-1.5661694354873565,9.68717108433278,-0.0010802355206462905,-0.0001516674519330634,-0.003272492347489368,-5.091559907746662,21.87959420797897,-17.0
1774880518.5706818,1.2587761938328716,-0.3499194765626977,-9.392654831236117,0.2952578488950731,-1.561332401358541,9.682068739471948,0.0015538012335603274,0.004624276986451289,-0.001090830782496456,-5.772382206091307,21.784005254241023,-15.75
1774880518.616189,1.2587761938328716,-0.3499194765626977,-9.392654831236117,0.2952578488950731,-1.561332401358541,9.682068739471948,0.0015538012335603274,0.004624276986451289,-0.001090830782496456,-5.772382206091307,21.784005254241023,-15.75
1774880518.6584966,1.2587761938328716,-0.3499194765626977,-9.392654831236117,0.29362992350337,-1.5625002475714933,9.678031611301927,0.0007769006167801637,0.0023121384932256444,0.0,-5.772382206091307,21.784005254241023,-15.75
1774880518.7140777,1.2587761938328716,-0.3499194765626977,-9.392654831236117,0.2925465573403098,-1.5632774361805162,9.675344947602456,-0.0013835704245124174,0.0020088035893595178,0.0,-4.625676938746094,20.808970880568616,-16.1875
1774880518.737359,1.2587761938328716,-0.3499194765626977,-9.392654831236117,0.2918255892607862,-1.563794646518055,9.6635216678005,0.0009285680687132271,0.0012319029725793539,0.0,-4.625676938746094,20.808970880568616,-16.1875
1774880518.7815976,1.2587761938328716,-0.3499194765626977,-9.392654831236117,0.29134579305760444,-1.5641388442200692,9.655653407166987,0.0001516674519330634,-0.0010802355206462905,0.001090830782496456,-4.296705243877261,21.612515449323286,-15.375
1774880518.8295176,1.2587761938328716,-0.3499194765626977,-9.392654831236117,0.29134579305760444,-1.5641388442200692,9.655653407166987,0.0001516674519330634,-0.0010802355206462905,0.001090830782496456,-4.296705243877261,21.612515449323286,-15.375
1774880518.8766358,1.2587761938328716,-0.3499194765626977,-9.392654831236117,0.2910264940440617,-1.5643679039458194,9.663797614438892,-0.0010802355206462905,-0.0001516674519330634,0.0,-4.296705243877261,21.612515449323286,-15.375
1774880518.8999982,1.2587761938328716,-0.3499194765626977,-9.392654831236117,0.29081400411735275,-1.5645203406345414,9.669217493401588,0.0010802355206462905,0.0001516674519330634,0.0,-5.410778095713953,21.456097161388463,-14.5625
1774880518.929807,1.2587761938328716,-0.3499194765626977,-9.392654831236117,0.29067259444479593,-1.5646217855480564,9.672824362307248,-0.0001516674519330634,0.0010802355206462905,0.003272492347489368,-5.410778095713953,21.456097161388463,-14.5625
1774880518.983318,1.2587761938328716,-0.3499194765626977,-9.392654831236117,0.29067259444479593,-1.5646217855480564,9.672824362307248,-0.0001516674519330634,0.0010802355206462905,0.003272492347489368,-5.410778095713953,21.456097161388463,-14.5625
1774880519.001906,1.2587761938328716,-0.3499194765626977,-9.392654831236117,0.2901133886462837,-1.5613766754363552,9.678569804979917,-0.0009285680687132271,-0.0012319029725793539,0.001090830782496456,-4.296705243877261,21.612515449323286,-15.375
1774880519.0214875,1.2587761938328716,-0.3499194765626977,-9.392654831236117,0.28596352362460503,-1.5563695695799167,9.685738444605098,0.0003033349038661268,-0.002160471041292581,0.002181661564992912,-4.296705243877261,21.612515449323286,-15.375
1774880519.0501828,1.2587761938328716,-0.3499194765626977,-9.392654831236117,0.28320183480970756,-1.553037396565494,9.690509094196706,-0.0007769006167801637,-0.0023121384932256444,-0.001090830782496456,-4.669126463172433,21.118435561634364,-17.0
1774880519.092744,1.2587761938328716,-0.3499194765626977,-9.392654831236117,0.28320183480970756,-1.553037396565494,9.690509094196706,-0.0007769006167801637,-0.0023121384932256444,-0.001090830782496456,-4.669126463172433,21.118435561634364,-17.0
1774880519.117558,1.2587761938328716,-0.3499194765626977,-9.392654831236117,0.281829060994554,-1.554132493215639,9.690338796500953,-0.0001516674519330634,0.0010802355206462905,0.0,-4.669126463172433,21.118435561634364,-17.0
1774880519.1380422,1.2587761938328716,-0.3499194765626977,-9.392654831236117,0.2809154953554576,-1.5548612678032796,9.68019013016482,0.0012319029725793539,-0.0009285680687132271,0.0,-4.625676938746094,20.808970880568616,-15.75
1774880519.1670182,1.2587761938328716,-0.3499194765626977,-9.392654831236117,0.28362014819626746,-1.5548811599093335,9.673436306086156,-0.0010802355206462905,-0.0001516674519330634,0.001090830782496456,-4.625676938746094,20.808970880568616,-15.75
1774880519.2135816,1.2587761938328716,-0.3499194765626977,-9.392654831236117,0.2887326850173062,-1.5544292986426276,9.675631935021602,-0.0001516674519330634,0.0010802355206462905,-0.001090830782496456,-4.1402869559424404,20.498442597486594,-17.0
1774880519.2501292,1.2587761938328716,-0.3499194765626977,-9.392654831236117,0.2892874998335727,-1.557906309826763,9.677093101551359,0.0,0.0,0.001090830782496456,-4.1402869559424404,20.498442597486594,-17.0
1774880519.2810304,1.2587761938328716,-0.3499194765626977,-9.392654831236117,0.2892874998335727,-1.557906309826763,9.677093101551359,0.0,0.0,0.001090830782496456,-4.1402869559424404,20.498442597486594,-17.0
1774880519.3015535,1.2587761938328716,-0.3499194765626977,-9.392654831236117,0.2929693434645422,-1.55975512268797,9.674720379847294,0.0010802355206462905,0.0001516674519330634,0.0,-3.8210687679751496,20.921939644077096,-15.75
1774880519.3149211,1.2587761938328716,-0.3499194765626977,-9.392654831236117,0.29117675022148193,-1.5548253450987222,9.673141360058276,-0.0009285680687132271,-0.0012319029725793539,-0.001090830782496456,-3.8210687679751496,20.921939644077096,-15.75
1774880519.3292763,1.2587761938328716,-0.3499194765626977,-9.392654831236117,0.289983799442804,-1.5515446331823015,9.672090540027492,0.0003033349038661268,-0.002160471041292581,-0.001090830782496456,-3.8210687679751496,20.921939644077096,-15.75
1774880519.359737,1.2587761938328716,-0.3499194765626977,-9.392654831236117,0.289983799442804,-1.5515446331823015,9.672090540027492,0.0003033349038661268,-0.002160471041292581,-0.001090830782496456,-3.8210687679751496,20.921939644077096,-15.75
1774880519.406791,1.2587761938328716,-0.3499194765626977,-9.392654831236117,0.2896550032668024,-1.5526739766183089,9.671391231035434,-0.0001516674519330634,0.0010802355206462905,-0.002181661564992912,-4.978591144238181,21.074986037208024,-16.1875
1774880519.4418366,1.2587761938328716,-0.3499194765626977,-9.392654831236117,0.2896000957019963,-1.55613021244877,9.670616141976103,-0.0001516674519330634,0.0010802355206462905,-0.001090830782496456,-4.978591144238181,21.074986037208024,-16.1875
1774880519.4671597,1.2587761938328716,-0.3499194765626977,-9.392654831236117,0.2896000957019963,-1.55613021244877,9.670616141976103,-0.0001516674519330634,0.0010802355206462905,-0.001090830782496456,-4.978591144238181,21.074986037208024,-16.1875
1774880519.5179157,1.2587761938328716,-0.3499194765626977,-9.392654831236117,0.29555801028666645,-1.5601988971899745,9.681427186468362,-0.0012319029725793539,0.0009285680687132271,0.001090830782496456,-3.5539900093194663,21.7167943079465,-15.75
1774880519.5529659,1.2587761938328716,-0.3499194765626977,-9.392654831236117,0.2905170569880213,-1.562211012450459,9.67091444153002,-0.0010802355206462905,-0.0001516674519330634,0.0,-3.768929338663543,20.5505820267982,-15.75
1774880519.624493,1.2587761938328716,-0.3499194765626977,-9.392654831236117,0.28716235887891095,-1.5635500526795107,9.683988997452525,-0.002160471041292581,-0.0003033349038661268,-0.002181661564992912,-3.768929338663543,20.5505820267982,-15.75
1774880519.6516082,1.2587761938328716,-0.3499194765626977,-9.392654831236117,0.2849298447617314,-1.5644411689938855,9.692689968366592,-0.0023121384932256444,0.0007769006167801638,0.001090830782496456,-4.235875909680386,21.17926489583124,-16.1875
1774880519.6890435,1.2587761938328716,-0.3499194765626977,-9.392654831236117,0.28344413155556514,-1.5650341969466803,9.69848036731369,-0.0001516674519330634,0.0010802355206462905,0.001090830782496456,-4.235875909680386,21.17926489583124,-16.1875
1774880519.720064,1.2587761938328716,-0.3499194765626977,-9.392654831236117,0.28245540601336544,-1.5654288504247091,9.698988701422671,-0.0001516674519330634,0.0010802355206462905,-0.002181661564992912,-3.925347626598364,21.66465487863489,-16.1875
1774880519.7357497,1.2587761938328716,-0.3499194765626977,-9.392654831236117,0.28245540601336544,-1.5654288504247091,9.698988701422671,-0.0001516674519330634,0.0010802355206462905,-0.002181661564992912,-3.925347626598364,21.66465487863489,-16.1875
1774880519.7589633,1.2587761938328716,-0.3499194765626977,-9.392654831236117,0.2784847996413879,-1.5661565871468444,9.699326992093733,0.0010802355206462905,0.0001516674519330634,0.003272492347489368,-3.925347626598364,21.66465487863489,-16.1875
1774880519.7883284,1.2587761938328716,-0.3499194765626977,-9.392654831236117,0.2784847996413879,-1.5661565871468444,9.699326992093733,0.0010802355206462905,0.0001516674519330634,0.003272492347489368,-3.925347626598364,21.66465487863489,-16.1875
1774880519.8329232,1.2587761938328716,-0.3499194765626977,-9.392654831236117,0.2824485755218122,-1.5624108470847788,9.699701941366504,0.0012319029725793539,-0.0009285680687132271,0.001090830782496456,-3.925347626598364,21.66465487863489,-15.75
1774880519.8778694,1.2587761938328716,-0.3499194765626977,-9.392654831236117,0.2824485755218122,-1.5624108470847788,9.699701941366504,0.0012319029725793539,-0.0009285680687132271,0.001090830782496456,-3.925347626598364,21.66465487863489,-15.75
1774880519.9356506,1.2587761938328716,-0.3499194765626977,-9.392654831236117,0.28532441032249056,-1.552720788138708,9.688725504806479,0.0,0.0,0.0,-4.296705243877261,21.612515449323286,-15.375
1774880519.9932313,1.2587761938328716,-0.3499194765626977,-9.392654831236117,0.28532441032249056,-1.552720788138708,9.688725504806479,0.0,0.0,0.0,-4.296705243877261,21.612515449323286,-15.375
1774880520.0121593,1.2587761938328716,-0.3499194765626977,-9.392654831236117,0.2860891326149454,-1.550144074034854,9.689151837685756,-0.0010802355206462905,-0.0001516674519330634,-0.001090830782496456,-4.235875909680386,21.17926489583124,-15.5
1774880520.030804,1.2587761938328716,-0.3499194765626977,-9.392654831236117,0.2865980467580664,-1.5484292995825215,9.689435557454464,0.0001516674519330634,-0.0010802355206462905,0.002181661564992912,-4.235875909680386,21.17926489583124,-15.5
1774880520.0764139,1.2587761938328716,-0.3499194765626977,-9.392654831236117,0.2865980467580664,-1.5484292995825215,9.689435557454464,0.0001516674519330634,-0.0010802355206462905,0.002181661564992912,-4.235875909680386,21.17926489583124,-15.5
1774880520.1233165,1.2587761938328716,-0.3499194765626977,-9.392654831236117,0.28555430448507974,-1.5591361778796295,9.695321268473291,-0.0001516674519330634,0.0010802355206462905,-0.001090830782496456,-3.5539900093194663,21.7167943079465,-14.5625
1774880520.1475637,1.2587761938328716,-0.3499194765626977,-9.392654831236117,0.2843248017668565,-1.5648164051892084,9.696886356433831,0.0013835704245124174,-0.0020088035893595178,0.0,-3.5539900093194663,21.7167943079465,-14.5625
1774880520.179263,1.2587761938328716,-0.3499194765626977,-9.392654831236117,0.2843248017668565,-1.5648164051892084,9.696886356433831,0.0013835704245124174,-0.0020088035893595178,0.0,-3.5539900093194663,21.7167943079465,-14.5625
1774880520.2213078,1.2587761938328716,-0.3499194765626977,-9.392654831236117,0.28350658144232416,-1.5685965330114362,9.691237681573753,-0.0009285680687132271,-0.0012319029725793539,0.0,-2.8123383767779466,21.379132708192397,-15.375
1774880520.2521114,1.7155880230065224,-0.34742034724328147,-9.391892239589133,0.27918434514696094,-1.568264644522978,9.687478551554204,0.00045500235579919027,-0.003240706561938872,0.0,-2.8123383767779466,21.379132708192397,-15.375
1774880520.2927427,1.7155880230065224,-0.34742034724328147,-9.391892239589133,0.27918434514696094,-1.568264644522978,9.687478551554204,0.00045500235579919027,-0.003240706561938872,0.0,-2.8123383767779466,21.379132708192397,-15.375
1774880520.321955,2.207756647056153,-0.34903552119040654,-9.391009009325552,0.276773044416015,-1.5713563970097781,9.684976892518428,-0.0007769006167801637,-0.0023121384932256444,0.0,-1.9642806815806633,21.182636790635133,-15.375
1774880520.372232,2.207756647056153,-0.34903552119040654,-9.391009009325552,0.2747032514744893,-1.5701013031841737,9.683312066375482,-0.0009285680687132271,-0.0012319029725793539,0.003272492347489368,-1.9642806815806633,21.182636790635133,-15.375
1774880520.395322,2.551882747069371,-0.3488167414960236,-9.390921553632635,0.2728607281519309,-1.565953431695119,9.67551391976004,-0.0012319029725793539,0.0009285680687132271,0.0,-2.8123383767779466,21.379132708192397,-15.375
1774880520.4129565,3.0013630708618915,-0.34695050384174625,-9.390651649198263,0.2716345494631024,-1.5631930695539134,9.673669452005786,-0.0010802355206462905,-0.0001516674519330634,-0.003272492347489368,-2.8123383767779466,21.379132708192397,-15.375
1774880520.4523363,3.3525142994846036,-0.34644264013606063,-9.39756589795628,0.2774437823798638,-1.5604258809020564,9.662406644197429,-0.0009285680687132271,-0.0012319029725793539,-0.001090830782496456,-2.3019422813347643,20.44098515809361,-15.375
1774880520.5180798,3.7532118038351703,-0.3485545717728344,-9.396978465976677,0.2813097619925848,-1.5585843477657682,9.66494670653673,-0.0033923740138719354,0.0006252331648471003,-0.006544984694978736,-2.3019422813347643,20.44098515809361,-15.375
1774880520.5390031,3.7532118038351703,-0.3485545717728344,-9.396978465976677,0.2813097619925848,-1.5585843477657682,9.66494670653673,-0.0033923740138719354,0.0006252331648471003,-0.006544984694978736,-2.3019422813347643,20.44098515809361,-15.375
1774880520.5801258,4.181501917327011,-0.3484233819623675,-9.397139184382567,0.2848127267211792,-1.5639840691717048,9.686707759893096,0.0006066698077322536,-0.004320942082585162,-0.002181661564992912,-1.6645695074164581,20.846038792897307,-14.5625
1774880520.6344361,4.4272481601942095,-0.3490519765801373,-9.390319788962662,0.27953154511745987,-1.585535924013899,9.701189497814864,0.0015352378764454807,-0.0030890391100058083,0.006544984694978736,-1.6645695074164581,20.846038792897307,-14.5625
1774880520.654126,4.420280787024129,-0.3496235284481665,-9.390280723549774,0.2760169777548487,-1.5998784426613861,9.687411150678953,-1.856335711484665e-05,-0.007713316096457097,-0.014180800172453928,-2.8123383767779466,21.379132708192397,-15.375
1774880520.6798341,4.420280787024129,-0.3496235284481665,-9.390280723549774,0.2760169777548487,-1.5998784426613861,9.687411150678953,-1.856335711484665e-05,-0.007713316096457097,-0.014180800172453928,-2.8123383767779466,21.379132708192397,-15.375
1774880520.7214687,4.841606329914842,-0.3500881079158001,-9.390407807367739,0.2585671931972933,-1.5980331432954318,9.678241814574227,-0.0031076024671206548,-0.009248553972902578,0.002181661564992912,-2.8123383767779466,21.379132708192397,-15.375
1774880520.745204,5.165187766495075,-0.35859241761451516,-9.390613944495803,0.2469545565011059,-1.596805117180734,9.692210394068644,-0.005571408412279363,-0.007391417835476124,-0.02399827721492203,-2.7688888523516075,21.06966802712665,-16.1875
1774880520.8163962,5.49517228137771,-0.3595546943408476,-9.391052965191355,0.21737650436474376,-1.6328348791322713,9.701506327682921,0.0004735657129140369,0.0044726095345182255,0.01090830782496456,-2.7688888523516075,21.06966802712665,-16.1875
1774880520.845853,5.49517228137771,-0.3595546943408476,-9.391052965191355,0.21737650436474376,-1.6328348791322713,9.701506327682921,0.0004735657129140369,0.0044726095345182255,0.01090830782496456,-2.7688888523516075,21.06966802712665,-16.1875
1774880520.9129865,5.746206434328905,-0.33892990496742437,-9.391672157866369,0.23413146732923465,-1.6516961915803794,9.690967109124243,0.004358068796814856,0.016033302000646447,0.011999138607461015,-1.8165522985311107,20.13045687501159,-16.5625
1774880520.9998806,6.118574530530437,-0.34342363127868586,-9.392127344252204,0.3261636458369533,-1.594776540787559,9.64028709319197,-0.0013835704245124174,0.0020088035893595178,0.002181661564992912,-2.39753123507271,21.12180745643826,-14.5625
1774880521.0629003,6.623367430682019,-0.3370399422059613,-9.393143763536735,0.2848489002530087,-1.592255462504097,9.650226392434174,0.0009285680687132271,0.0012319029725793539,-0.002181661564992912,-2.39753123507271,21.12180745643826,-14.5625
1774880521.1016796,6.623367430682019,-0.3370399422059613,-9.393143763536735,0.2848489002530087,-1.592255462504097,9.650226392434174,0.0009285680687132271,0.0012319029725793539,-0.002181661564992912,-2.39753123507271,21.12180745643826,-14.5625
1774880521.128052,6.904469363030125,-0.3420232958033051,-9.393923340804989,0.2578194978239168,-1.5938903336371744,9.656840885050613,-0.0010802355206462905,-0.0001516674519330634,-0.004363323129985824,-2.3019422813347643,20.44098515809361,-14.5625
1774880521.1649895,6.904469363030125,-0.3420232958033051,-9.393923340804989,0.23936663320448986,-1.5916657015450986,9.661242755998128,-0.0003033349038661268,0.002160471041292581,-0.007635815477475192,-2.3019422813347643,20.44098515809361,-14.5625
1774880521.2205126,7.060684464030195,-0.36428002606095333,-9.394208703280876,0.28101858550932235,-1.5893688870182505,9.650791705112303,0.005401177603231453,0.000758337259665317,0.0,-2.3019422813347643,20.44098515809361,-14.5625
1774880521.237657,7.025232015858305,-0.3601152017424943,-9.387160094296956,0.3244842506072125,-1.5315827588252995,9.633801312371714,-0.0009100047115983805,0.006481413123877744,-0.02181661564992912,-2.3019422813347643,20.44098515809361,-14.5625
1774880521.3416936,7.236142044836108,-0.3638806640701646,-9.394196226947633,0.36131685228484384,-1.5494412856895767,9.622494395797975,0.0018385727803116076,-0.005249510151298389,0.00545415391248228,-2.39753123507271,21.12180745643826,-14.5625
1774880521.4012628,7.236142044836108,-0.3638806640701646,-9.394196226947633,0.36131685228484384,-1.5494412856895767,9.622494395797975,0.0018385727803116076,-0.005249510151298389,0.00545415391248228,-2.39753123507271,21.12180745643826,-14.5625
1774880521.437559,7.651508427844776,-0.2946688233101799,-9.3957210237616,0.37553942806962753,-1.512101726539537,9.628350215953965,-0.0027114507776802945,0.027157555468090327,0.003272492347489368,-1.6645695074164581,20.846038792897307,-15.0
1774880521.4820337,7.840860448116231,-0.29314438946175003,-9.396209953800078,0.3224158500568831,-1.5467090596244462,9.632247198853978,0.003222143204824025,-0.007258313740657907,0.007635815477475192,-1.6645695074164581,20.846038792897307,-15.0
1774880521.5387442,8.002885368881751,-0.3008825654877568,-9.389654538270971,0.27950726269963755,-1.5640448105484992,9.634840597441785,-0.000758337259665317,0.005401177603231453,-0.001090830782496456,-1.9121412522690564,20.811279173356233,-16.1875
1774880521.5942068,8.016236623598935,-0.2927699600908011,-9.382717199752673,0.2542077718212444,-1.5987699031144516,9.636566475231811,-0.0033738106567570885,0.008338549261304198,0.015271630954950384,-1.9121412522690564,20.811279173356233,-16.1875
1774880521.6170928,8.173731688425296,-0.24473462311800392,-9.39698481181029,0.256316768183944,-1.6124632277290776,9.637715027621756,0.003903066441015666,0.01927400856258532,0.004363323129985824,-1.8165522985311107,20.13045687501159,-15.375
1774880521.6379533,8.222539335938936,-0.24070891992678597,-9.404051514382488,0.2889291645433981,-1.6273279508312708,9.631789152992454,0.0015723645906751747,0.012337593082908386,0.032724923474893676,-1.8165522985311107,20.13045687501159,-15.375
1774880521.6885848,8.605913396042771,-0.209172540169616,-9.404687938364672,0.30923705229305154,-1.6272823963006482,9.62784554962301,-0.006936415479676934,0.0023307018503404913,0.06763150851478027,-1.6211199829901193,20.53657411183156,-13.75
1774880521.7312973,8.92717406926217,-0.1897715728178171,-9.405689423435424,0.30950124246274907,-1.6291124772336973,9.628566237340902,0.005704512507097579,-0.001402133781627264,0.07090400086226964,-1.6211199829901193,20.53657411183156,-13.75
1774880521.7500944,9.301845991818894,-0.13797188892785922,-9.398746959772124,0.28178079579880627,-1.6241133078746046,9.662496964039743,0.008527343427466954,0.01772020732902499,0.0719948316447661,-1.3116553019243715,20.5800236362579,-14.5625
1774880521.7915475,9.410505156866595,-0.09421356642123643,-9.37742283905174,0.28983411274908444,-1.6170656225819073,9.668351925090171,0.011768049989405826,0.01817520968482418,0.06981317007977318,-1.3116553019243715,20.5800236362579,-14.5625
1774880521.8290806,9.410505156866595,-0.09421356642123643,-9.37742283905174,0.28983411274908444,-1.6170656225819073,9.668351925090171,0.011768049989405826,0.01817520968482418,0.06981317007977318,-1.3116553019243715,20.5800236362579,-14.5625
1774880521.889048,9.487293436846617,-0.0038035039992231133,-9.36933507544775,0.2686925406705965,-1.6160962606760225,9.688973894801629,0.002556622730732941,0.03670944434485903,0.032724923474893676,-2.673299898613662,20.388845728782005,-15.75
1774880521.9475155,9.642253881011015,0.16133081917315584,-9.23393202418586,0.302746293779731,-1.669497140495005,9.726113367233344,0.039436297884639884,0.0407859021899369,-0.06435901616729091,-2.673299898613662,20.388845728782005,-15.75
1774880521.996497,9.434901084500504,0.12193448362635886,-9.108098682061366,0.32540868606851253,-1.7050348294876245,9.754174382968879,0.04457442789324919,-0.0036554216084940788,-0.05235987755982989,-2.2498028520231577,20.069627540814714,-16.1875
1774880522.0237231,9.434901084500504,0.12193448362635886,-9.108098682061366,0.32540868606851253,-1.7050348294876245,9.754174382968879,0.04457442789324919,-0.0036554216084940788,-0.05235987755982989,-2.2498028520231577,20.069627540814714,-16.1875
1774880522.0506375,9.54552284269693,-0.12238544510156191,-9.069456379230164,0.33630436181151036,-1.6988711794143303,9.769503563771472,0.04592403219854621,-0.08387762168307086,-0.02181661564992912,-2.2498028520231577,20.069627540814714,-16.1875
1774880522.0974617,9.79498885468769,-0.4404235517258082,-9.004993740782414,0.346867932874234,-1.6943042399019603,9.706112504796403,0.039594286526601526,-0.08586786191531554,0.006544984694978736,-0.9901288211694623,18.289984996371363,-17.0
1774880522.127081,9.905813041251768,-0.5999278104832358,-9.0150573188132,0.3075781093365179,-1.6741229388274916,9.663926463173022,0.02109717858079637,-0.07965265698107422,0.032724923474893676,-0.9901288211694623,18.289984996371363,-17.0
1774880522.1679804,9.991565160400713,-0.7049467522173486,-9.04578358056065,0.2653900929480766,-1.642677181956048,9.65257768225822,-0.00843136604687843,-0.04194039113904258,0.020725784867432664,-1.4515762933498624,17.53095355405931,-18.5625
1774880522.213757,10.058733696980282,-0.6636666773263852,-9.094266799377108,0.22127336159241298,-1.603735055583934,9.691856759236082,-0.022325920958361434,0.01779446075748438,0.02181661564992912,-1.4515762933498624,17.53095355405931,-18.5625
1774880522.2342093,10.058733696980282,-0.6636666773263852,-9.094266799377108,0.22127336159241298,-1.603735055583934,9.691856759236082,-0.022325920958361434,0.01779446075748438,0.02181661564992912,-1.4515762933498624,17.53095355405931,-18.5625
1774880522.2608192,10.050680371383196,-0.5583627434530408,-9.134722966340945,0.20516465196512546,-1.575959108531046,9.717996546188807,-0.024752600189290448,0.03507822908782503,0.003272492347489368,0.005657257077373766,17.041309163190554,-19.0
1774880522.284944,10.020953432418212,-0.44774790383827345,-9.174457884324605,0.1977571062226744,-1.5570094268039325,9.738737394112613,-0.03055309007697655,0.06070054667946988,-0.011999138607461015,0.005657257077373766,17.041309163190554,-19.0
1774880522.3084216,9.99393621730372,-0.3722565382765321,-9.200924328279902,0.2136333891715214,-1.5482332709867654,9.749195085008134,-0.03239166285728816,0.06595005683076827,-0.01090830782496456,0.005657257077373766,17.041309163190554,-19.0
1774880522.326584,9.99393621730372,-0.3722565382765321,-9.200924328279902,0.2136333891715214,-1.5482332709867654,9.749195085008134,-0.03239166285728816,0.06595005683076827,-0.01090830782496456,0.005657257077373766,17.041309163190554,-19.0
1774880522.374676,9.940900039875869,-0.23597556569069406,-9.212379259229525,0.23175431774329183,-1.5480878799812379,9.756154561479041,-0.014671455528263167,0.05742271340330131,-0.013089969389957472,-0.7468114843819637,16.556982782403175,-20.875
1774880522.3967488,9.805317580307328,-0.12050590998907952,-9.217245243447177,0.24427869252484471,-1.551303744459615,9.757440903620665,-0.0013093169960530298,0.032862067975187904,-0.04254240051736178,-0.7468114843819637,16.556982782403175,-20.875
1774880522.416234,9.805317580307328,-0.12050590998907952,-9.217245243447177,0.24427869252484471,-1.551303744459615,9.757440903620665,-0.0013093169960530298,0.032862067975187904,-0.04254240051736178,-0.7468114843819637,16.556982782403175,-20.875
1774880522.4522314,9.682870955197917,-0.08095468649711494,-9.237449719216379,0.2360504211933765,-1.5557693625517908,9.758296949946532,-0.015674277025435782,0.025337546044893567,-0.050178215994836975,-0.633842720873482,15.752374611632233,-22.875
1774880522.5175955,9.484494893542657,0.029587760705465573,-9.256786140231352,0.22545850688627037,-1.522302355255163,9.748831304091775,-0.013003113556999471,0.04554012267619212,-0.05345070834232634,-0.633842720873482,15.752374611632233,-22.875
1774880522.5369456,9.484494893542657,0.029587760705465573,-9.256786140231352,0.22545850688627037,-1.522302355255163,9.748831304091775,-0.013003113556999471,0.04554012267619212,-0.05345070834232634,-0.633842720873482,15.752374611632233,-22.875
1774880522.5784802,9.335484379391795,0.1368084057866867,-9.255567693034147,0.21840970623432665,-1.5000304357502245,9.705735793733114,-0.014671455528263167,0.05742271340330131,-0.05999569303730508,0.48998363786475235,16.28884042173122,-26.375
1774880522.6096492,9.156260035931112,0.2696413808134205,-9.253867871838828,0.22313464472403532,-1.5041542470417701,9.643605095924624,-0.006370032981188664,0.045369891867144206,-0.03490658503988659,0.48998363786475235,16.28884042173122,-26.375
1774880522.644673,9.086189945658942,0.3551869120971408,-9.253216053394349,0.2295916590763468,-1.5064334981492278,9.602257810578445,-0.012074545488286242,0.04677202564877146,-0.020725784867432664,0.6377120209143052,15.236660506107675,-28.0
1774880522.671832,9.04044577269499,0.4005380326737948,-9.245971399329077,0.26654983644147495,-1.4999867013211539,9.59481232430392,-0.0097624069950606,0.0459951250319913,-0.017453292519943295,0.6377120209143052,15.236660506107675,-28.0
1774880522.6968594,8.994674351612755,0.4459543680672271,-9.245734075921254,0.2911450906280755,-1.49569643004751,9.593202548067074,-0.0022193217076514104,0.03934348109906565,-0.020725784867432664,0.6377120209143052,15.236660506107675,-28.0
1774880522.7142646,8.994674351612755,0.4459543680672271,-9.245734075921254,0.2911450906280755,-1.49569643004751,9.593202548067074,-0.0022193217076514104,0.03934348109906565,-0.020725784867432664,0.6377120209143052,15.236660506107675,-28.0
1774880522.7415621,8.94484585735177,0.4557852045620111,-9.224931107599124,0.2913580280602785,-1.522132862434275,9.618892153622387,0.013588059412602587,0.0052123834370686965,-0.03599741582238305,0.5421230671763593,15.917482804452321,-29.0625
1774880522.7863004,8.844237261380012,0.3985023283312537,-9.218785373380584,0.28156187383744763,-1.541121310596593,9.666094304513624,0.002256448421881104,-0.023916848906151453,-0.04254240051736178,0.5421230671763593,15.917482804452321,-29.0625
1774880522.8015833,8.844237261380012,0.3985023283312537,-9.218785373380584,0.28156187383744763,-1.541121310596593,9.666094304513624,0.002256448421881104,-0.023916848906151453,-0.04254240051736178,0.5421230671763593,15.917482804452321,-29.0625
1774880522.8213284,8.801031345858876,0.3247826827842677,-9.211922232343031,0.2637664090847511,-1.5215619035315853,9.697506808649168,-0.0019313895658858422,-0.033317070330987096,-0.030543261909900768,1.7952343971773363,15.083614112976749,-30.75
1774880522.846042,8.722959612649284,0.24852403287621944,-9.24107895502301,0.25145862683912273,-1.505232716054284,9.711721255836071,-0.017813024114599226,-0.03003923705481853,-0.04254240051736178,1.7952343971773363,15.083614112976749,-30.75
1774880522.8927307,8.619493789533706,0.22607707145673706,-9.233891426988608,0.22106671562562727,-1.4805933168014094,9.717835699945857,-0.009418784781950488,-0.003525478108690152,-0.050178215994836975,0.8950372726684462,15.651467647812911,-31.5625
1774880522.9254098,8.619493789533706,0.22607707145673706,-9.233891426988608,0.18427813537078103,-1.4665215680441213,9.698489012246867,0.031153438694680225,0.0605520398225511,-0.028361600344907856,0.8950372726684462,15.651467647812911,-31.5625
1774880522.9525776,8.499172913693412,0.32831708980584123,-9.163959709492255,0.18427813537078103,-1.4665215680441213,9.698489012246867,0.031153438694680225,0.0605520398225511,-0.028361600344907856,0.8950372726684462,15.651467647812911,-31.5625
1774880522.9886203,8.409495656921449,0.4891423657039741,-9.06546318678947,0.15979574616654926,-1.4571569764378793,9.709029789651087,0.025826514519908157,0.09064696694871417,-0.025089107997418487,1.7952343971773363,15.083614112976749,-33.0625
1774880523.0216923,8.409495656921449,0.4891423657039741,-9.06546318678947,0.15979574616654926,-1.4571569764378793,9.709029789651087,0.025826514519908157,0.09064696694871417,-0.025089107997418487,1.7952343971773363,15.083614112976749,-33.0625
1774880523.0737095,8.349203249765871,0.7294004884104001,-8.924419031420737,0.17285147551214972,-1.4434264315951595,9.726079894387356,0.03191177595434554,0.05515086221931965,0.006544984694978736,1.7952343971773363,15.083614112976749,-33.0625
1774880523.1018414,8.413409050536254,0.7268337583534341,-8.784010033555509,0.1829352152728197,-1.44422676908786,9.737426548627193,0.04103038642744419,-0.0019499529230006878,0.025089107997418487,1.4847061140953135,14.598224130173096,-35.0625
1774880523.1612895,8.479539447890808,0.6896611619056131,-8.755318344206103,0.17872084537244123,-1.4631828845553558,9.718216726614816,0.021985459340265613,-0.031060621909105992,0.039269908169872414,1.4847061140953135,14.598224130173096,-35.0625
1774880523.217668,8.518884405339742,0.6363966410065309,-8.720456711217263,0.13616478246015598,-1.4813791585381926,9.705432804653352,0.009078323163854667,-0.00974068304293146,0.00545415391248228,2.279560777964715,14.331145371517412,-35.75
1774880523.250405,8.540888038063017,0.7152637693358398,-8.72693092667692,0.08517787911736004,-1.476403447643933,9.723686141052317,-0.02262925586222756,0.01995493179877696,0.016362461737446838,2.279560777964715,14.331145371517412,-35.75
1774880523.2845085,8.57561055917547,0.8092385124187078,-8.754131313174621,0.026776874563321923,-1.4191031141681736,9.786010208132492,-0.049520603140681456,-0.0003436222131101099,0.014180800172453928,287.2876893101745,-2013.3617813192618,-36.5625
1774880523.3449132,8.576406967108497,0.8867228831622717,-8.796108686722663,-0.055152408975035164,-1.3870166724606987,9.8274861785689,-0.03674657105908872,-0.012870009462181253,-0.007635815477475192,287.2876893101745,-2013.3617813192618,-36.5625
1774880523.4562128,8.614214612509615,1.3440519007767127,-8.548167261141547,-0.10419247001687994,-1.3602306087743876,9.799911482234307,0.041404814164755416,0.0895296047138382,0.05126904677733343,2.0275535362919483,16.126040521698748,-39.375
1774880523.5248861,8.736339936739286,1.6927154574444223,-7.997771529391856,-0.08983114079679289,-1.360736912564572,9.74307419339131,0.1692904812425872,0.08875902528708661,0.039269908169872414,2.0275535362919483,16.126040521698748,-39.375
1774880523.5886676,8.772826041088585,1.867350941573791,-7.582854741123076,-0.08602580516300196,-1.3922827349202667,9.658418048677943,0.1366946214570357,0.0698626050568268,0.016362461737446838,3.0612900401286804,15.955614318797286,-39.375
1774880523.6254165,8.866527102288355,2.082487484736923,-7.425657067228417,-0.06704414572675034,-1.4582575175428734,9.602080330042295,0.06418257688390176,0.131281201686718,0.05235987755982989,3.0612900401286804,15.955614318797286,-39.375
1774880523.654906,8.94284434036443,2.311654172058589,-7.422368029614139,-0.03453634000036424,-1.4993724029451556,9.608074659818977,-0.0008203485210384364,0.10783475789846629,0.04036073895236887,2.909307249014028,15.24003240091157,-38.1875
1774880523.73206,9.079226564066422,2.2817020046016596,-7.721441995312752,-0.012902758425437977,-1.5267338998970108,9.618754042738946,-0.09977781958889909,-0.05035951501883474,0.039269908169872414,2.909307249014028,15.24003240091157,-38.1875
1774880523.8197181,9.853898124508792,2.2420769355830066,-8.065015231078613,-0.010247184338955932,-1.5094340426999249,9.619170829361023,-0.07735908184496341,-0.029587395294033633,0.06654067773228381,2.865857724587689,15.549497081977316,-39.375
1774880523.8384507,10.616248006810446,2.2751454899164685,-8.06477684546803,-0.026030156654322227,-1.5172748792759412,9.662934648397355,0.05715966580867917,-0.03052820552983312,0.05126904677733343,2.865857724587689,15.549497081977316,-39.375
1774880523.8871844,11.351707555427252,2.0889763880785246,-8.070576395745936,-0.03653354842284558,-1.5224928684293964,9.678678534262867,0.013420989198568966,-0.06420746143104518,0.011999138607461015,3.9614871646375702,15.387760783961122,-40.1875
1774880523.9380298,11.82070449990509,1.972909499868844,-8.213994206898901,-0.08292363765613882,-1.5821660798237906,9.689155914435636,-0.024046792405955388,-0.05624966109708079,-0.02181661564992912,3.9614871646375702,15.387760783961122,-40.1875
1774880523.9547446,11.82070449990509,1.972909499868844,-8.213994206898901,-0.08292363765613882,-1.5821660798237906,9.689155914435636,-0.024046792405955388,-0.05624966109708079,-0.02181661564992912,3.9614871646375702,15.387760783961122,-40.1875
1774880523.9973755,11.65255750757326,1.981634996316996,-8.63048560823327,-0.1301096419988317,-1.7264741424785257,9.639484959652595,-0.0907429443293027,0.05004669832992575,-0.10035643198967395,2.909307249014028,15.24003240091157,-41.0
1774880524.0301874,11.225889668288689,2.163126710157438,-8.982700205847445,-0.14240688717104907,-1.7377890624939432,9.646347469816819,-0.11663147011058397,0.061833311676446415,-0.13526301702956053,2.909307249014028,15.24003240091157,-41.0
1774880524.0638766,10.8594945299332,2.308728830860017,-9.21031086108566,-0.15896235280328436,-1.6856918451364955,9.667639952208445,-0.09644745683640027,0.05144883211155301,-0.11017390903214205,3.918037640211231,15.69722546502687,-43.25
1774880524.127815,10.8594945299332,2.308728830860017,-9.21031086108566,-0.15896235280328436,-1.6856918451364955,9.667639952208445,-0.09644745683640027,0.05144883211155301,-0.11017390903214205,3.918037640211231,15.69722546502687,-43.25
1774880524.1858065,10.51219308097636,2.4160425896669167,-9.298644900066716,-0.1699798302448682,-1.6510217289491638,9.681809861387459,-0.042095219185989935,0.07229836585982778,-0.1439896632895322,3.918037640211231,15.69722546502687,-43.25
1774880524.222273,10.160248809827246,2.3840336771638815,-9.481585233172659,-0.12291461159082293,-1.6304454277651603,9.677859330828557,-0.05075250611326081,0.0005849458556031171,-0.07090400086226964,3.113429469440287,15.584256701518388,-45.25
1774880524.2489095,10.160248809827246,2.3840336771638815,-9.481585233172659,-0.12291461159082293,-1.6304454277651603,9.677859330828557,-0.05075250611326081,0.0005849458556031171,-0.07090400086226964,3.113429469440287,15.584256701518388,-45.25
1774880524.2856631,10.161607111498151,2.3378485292956377,-9.616078386313783,-0.09159323432949706,-1.6167521291795506,9.671885185164607,-0.06917220003559228,-0.025133349116630253,0.004363323129985824,3.113429469440287,15.584256701518388,-45.25
1774880524.320358,10.327950153694376,2.2750145977308445,-9.634880627733278,-0.09341552650183528,-1.5905542639708568,9.647838787716912,0.011201667490917555,-0.02486398033197953,0.05672320068981571,4.203559810653726,16.810234714847287,-48.0
1774880524.3570435,10.489355168561717,2.1441419053106205,-9.459046584038834,-0.09462824158618899,-1.5731198773238007,9.631836178831332,0.07099537005380335,-0.050616241423428306,0.05235987755982989,4.203559810653726,16.810234714847287,-48.0
1774880524.4109292,10.702436605412968,1.9936623276109318,-9.191906024978678,-0.07887218708575301,-1.5591919915596684,9.664673073573983,0.085530560892234,-0.03645863891732315,0.05345070834232634,3.0178405157023414,16.265078999863032,-50.0
1774880524.455986,10.825467247681644,1.9658804566789125,-9.09224700800194,-0.06838670882237405,-1.5499231391683168,9.68652566021307,0.04347562901548806,-0.01152040515688424,0.050178215994836975,3.0178405157023414,16.265078999863032,-50.0
1774880524.5273726,10.825467247681644,1.9658804566789125,-9.09224700800194,-0.06838670882237405,-1.5499231391683168,9.68652566021307,0.04347562901548806,-0.01152040515688424,0.050178215994836975,3.0178405157023414,16.265078999863032,-50.0
1774880524.564839,11.122180061960544,1.7951021560098253,-8.916881299765791,-0.09101432613911106,-1.4960615766796594,9.638320084809333,0.014915939765770464,-0.019936368441662113,0.016362461737446838,4.351288193703279,15.758054799223745,-52.0
1774880524.5997388,11.122180061960544,1.7951021560098253,-8.916881299765791,-0.09101432613911106,-1.4960615766796594,9.638320084809333,0.014915939765770464,-0.019936368441662113,0.016362461737446838,4.351288193703279,15.758054799223745,-52.0
1774880524.6574256,11.184040153214687,1.7168407649978026,-8.95352104627913,-0.09152112008292566,-1.47286702474909,9.648917370328451,-0.012278742416549556,-0.038074451412256606,0.02399827721492203,3.0178405157023414,16.265078999863032,-53.0625
1774880524.695289,11.253556737532534,1.62598227968826,-9.01840151118268,-0.08569824389548691,-1.4531884904888361,9.662659968876628,-0.02076895912978682,-0.0403680265483674,0.020725784867432664,3.0178405157023414,16.265078999863032,-53.0625
1774880524.7179458,11.302501322681408,1.5386620413784704,-9.02023006689196,-0.08565783052894739,-1.4608985676550086,9.668460402988236,0.012111672202515935,-0.03134539345585727,0.008726646259971648,3.650958881555548,14.902370801157469,-55.875
1774880524.7572012,11.307003427420733,1.4822174195628108,-9.00032312907694,-0.08179629019455026,-1.4452236159891507,9.675665638801735,0.010861205872821736,-0.038130141483601145,0.001090830782496456,3.650958881555548,14.902370801157469,-55.875
1774880524.8146718,11.378338777661652,1.3817971738033068,-8.974464680269415,-0.09294205975304279,-1.4333398871520748,9.677115531040542,0.005138130008609309,-0.04444132379843097,0.04363323129985824,3.590129547358673,15.335621354649515,-55.5
1774880524.8554614,11.494722354096991,1.3337212703810812,-8.939649043773173,-0.09704682431938393,-1.4249662991198748,9.68142552983643,0.017986415518661425,-0.026114446661673733,0.04581489286485115,3.590129547358673,15.335621354649515,-55.5
1774880524.8845527,11.494722354096991,1.3337212703810812,-8.939649043773173,-0.09704682431938393,-1.4249662991198748,9.68142552983643,0.017986415518661425,-0.026114446661673733,0.04581489286485115,3.590129547358673,15.335621354649515,-55.5
1774880524.9222229,11.801954608864959,1.276766671330181,-8.826333465179607,-0.07747785599873547,-1.4190548602754185,9.659488964565387,0.015541172930617566,-0.01654399442779018,0.06654067773228381,3.156878993866626,15.27479202045264,-57.0625
1774880524.9646535,11.801954608864959,1.276766671330181,-8.826333465179607,-0.07747785599873547,-1.4190548602754185,9.659488964565387,0.015541172930617566,-0.01654399442779018,0.06654067773228381,3.156878993866626,15.27479202045264,-57.0625
1774880525.0128078,11.889312310659886,1.144057018622009,-8.851348899017506,-0.04888753314202286,-1.4462648878230824,9.721057382979879,0.010235972707974635,-0.04152251549747307,-0.02399827721492203,3.217708328063501,14.841541466960594,-59.5
1774880525.0331497,11.860387880806472,1.0639341908663416,-8.832869549188448,-0.05163102537997451,-1.4279296259109047,9.690597671195494,0.02010975984572431,-0.04123774395072179,-0.028361600344907856,3.217708328063501,14.841541466960594,-59.5
1774880525.0995843,11.783718705113118,0.9661409939850177,-8.815346957712366,-0.053456788817515,-1.4157277139266464,9.67032707326026,0.005478591626705129,-0.031175162646809366,-0.032724923474893676,2.632474983456802,14.065130214878003,-59.5
1774880525.1290812,11.729100993341692,0.9476965439028381,-8.809432458359307,-0.05234631778470819,-1.4241705806475684,9.69697855725961,-0.0018385727803116076,0.005249510151298389,-0.032724923474893676,2.632474983456802,14.065130214878003,-59.5
1774880525.151962,11.729100993341692,0.9476965439028381,-8.809432458359307,-0.05234631778470819,-1.4241705806475684,9.69697855725961,-0.0018385727803116076,0.005249510151298389,-0.032724923474893676,2.632474983456802,14.065130214878003,-59.5
1774880525.1989167,11.661693940179829,0.9997334334555437,-8.843209021758032,-0.03318381191069029,-1.4407142002056916,9.718059933851913,-0.017076410807063045,0.019633033537795986,-0.020725784867432664,3.3654367111130536,13.789361551337052,-61.0
1774880525.2245176,11.601094948077126,1.058165192940114,-8.841897278835312,-0.015666534138185362,-1.4375431134614063,9.742124689601644,-0.0013278803531678774,0.02514875187873081,-0.020725784867432664,3.3654367111130536,13.789361551337052,-61.0
1774880525.26069,11.601094948077126,1.058165192940114,-8.841897278835312,-0.015666534138185362,-1.4375431134614063,9.742124689601644,-0.0013278803531678774,0.02514875187873081,-0.020725784867432664,3.3654367111130536,13.789361551337052,-61.0
1774880525.2947853,11.510080823077072,1.0627450981968158,-8.765310802500435,0.05463106440731661,-1.4440892064003241,9.788245521098027,0.029336589866497755,0.01072810177800352,-0.022907446432425576,3.9116560281135824,13.04558271476298,-62.5625
1774880525.3227317,11.488224137923497,0.9828238747867404,-8.732531307932003,0.1014133309637189,-1.448445558126524,9.818938419255424,0.03028688188734012,-0.0431134434452631,-0.022907446432425576,3.9116560281135824,13.04558271476298,-62.5625
1774880525.34913,11.493215893755416,0.9194637189060418,-8.713493244942157,0.11929592449111885,-1.453205058500974,9.829328864995077,0.01944739996664752,-0.06005675015750793,0.00545415391248228,3.9116560281135824,13.04558271476298,-62.5625
1774880525.3881927,11.552715518711096,0.7826299891248051,-8.681849902303274,0.11562061224284215,-1.44166974695521,9.802792473492739,0.014235016529578823,-0.04646869074490534,0.013089969389957472,2.3132567954895116,13.641633168287498,-64.5625
1774880525.4076414,11.553163298896521,0.7811385269272094,-8.633050934935614,0.10323687129224694,-1.435388423702603,9.76506213113493,0.04152251549747307,0.010235972707974635,0.001090830782496456,2.3132567954895116,13.641633168287498,-64.5625
1774880525.4256208,11.553163298896521,0.7811385269272094,-8.633050934935614,0.10323687129224694,-1.435388423702603,9.76506213113493,0.04152251549747307,0.010235972707974635,0.001090830782496456,2.3132567954895116,13.641633168287498,-64.5625
1774880525.4518363,11.54551062094803,0.7925778292721216,-8.569422141630719,0.09685602698937729,-1.4444587555186978,9.723227451234754,0.05698627440461697,0.025625478186659136,0.004363323129985824,2.3132567954895116,13.641633168287498,-64.5625
1774880525.5072982,11.573603054647934,0.9005863087426177,-8.369421347735077,0.08267178467922379,-1.4518902577432893,9.695386939085182,0.05855863899529215,0.03796307126956752,0.014180800172453928,2.4262255589979933,12.837024997516554,-66.5
1774880525.532188,11.608627585232938,1.011516934091745,-8.246995465572265,0.08642588626300676,-1.4786288857142316,9.680204500955858,0.04563293946176635,0.051569694039284956,0.02181661564992912,2.4262255589979933,12.837024997516554,-66.5
1774880525.5523915,11.608627585232938,1.011516934091745,-8.246995465572265,0.08642588626300676,-1.4786288857142316,9.680204500955858,0.04563293946176635,0.051569694039284956,0.02181661564992912,2.4262255589979933,12.837024997516554,-66.5
1774880525.572719,11.612026134715505,1.0659922740256578,-8.188901621367087,0.08700687608574588,-1.5068261048852185,9.670100757979741,0.052132915942758935,0.06019301484734044,0.014180800172453928,2.4262255589979933,12.837024997516554,-66.5
1774880525.6078491,11.56971413360124,1.1841632746146808,-8.031047848517806,0.0893108411679032,-1.5151880783135634,9.673412165017297,0.06401550666986813,0.061861356818604135,-0.018544123302439753,3.5218549990478745,12.67528869950036,-67.25
1774880525.6301074,11.502950390614677,1.246919693508121,-7.945558974003444,0.1026992887436035,-1.5089546195511672,9.709066986483144,0.03712415939141423,0.041562802806717064,-0.03599741582238305,3.5218549990478745,12.67528869950036,-67.25
1774880525.64892,11.502950390614677,1.246919693508121,-7.945558974003444,0.1026992887436035,-1.5089546195511672,9.709066986483144,0.03712415939141423,0.041562802806717064,-0.03599741582238305,3.5218549990478745,12.67528869950036,-67.25
1774880525.6738276,11.446341225752217,1.2625503741055448,-7.896838064209084,0.11160915104647312,-1.5048063223770896,9.732794871878212,0.020221139988413395,0.005042152628020786,-0.019634954084936207,3.4262660453099283,13.356110997845004,-68.5
1774880525.6891794,11.446341225752217,1.2625503741055448,-7.896838064209084,0.11160915104647312,-1.5048063223770896,9.732794871878212,0.020221139988413395,0.005042152628020786,-0.019634954084936207,3.4262660453099283,13.356110997845004,-68.5
1774880525.709241,11.439961609841657,1.2489414163485268,-7.9252419120931386,0.11091332374248614,-1.5029758754294071,9.76531107308738,-0.023650640716515025,-0.01984355165608788,0.007635815477475192,3.4262660453099283,13.356110997845004,-68.5
1774880525.7298326,11.470733870135023,1.2037883724989618,-7.982611607773033,0.0957475525667257,-1.5173337119122592,9.770224683225717,-0.029695614841708424,-0.031707579026082226,0.013089969389957472,3.4784054746215354,12.984753380566106,-70.875
1774880525.7559922,11.479214894250012,1.177413543434821,-8.018228574992586,0.032652972167115095,-1.5343302795612583,9.773494635884157,-0.025223005307190193,-0.03218114473899627,0.008726646259971648,3.4784054746215354,12.984753380566106,-70.875
1774880525.7828023,11.479214894250012,1.177413543434821,-8.018228574992586,0.032652972167115095,-1.5343302795612583,9.773494635884157,-0.025223005307190193,-0.03218114473899627,0.008726646259971648,3.4784054746215354,12.984753380566106,-70.875
1774880525.8080664,11.513079340061124,1.1880752353798516,-8.059434461335073,-0.05849289791816402,-1.522367957376835,9.657872990117943,-0.000872877997368687,0.021908045316791937,0.022907446432425576,2.4359790658995353,13.21707251968072,-71.5625
1774880525.8572874,11.513079340061124,1.1880752353798516,-8.059434461335073,-0.05849289791816402,-1.522367957376835,9.657872990117943,-0.000872877997368687,0.021908045316791937,0.022907446432425576,2.4359790658995353,13.21707251968072,-71.5625
1774880525.8870604,11.527856941034688,1.2802842671594579,-8.056928818822989,-0.08882399781848184,-1.499789463824848,9.615098046488596,-0.003166453133479485,0.0303982620300292,0.0,2.865857724587689,15.549497081977316,-73.5625
1774880525.909092,11.5233617164259,1.3432536811182476,-8.062018343675486,-0.11133450218693305,-1.4682006257421414,9.633463363233165,-0.006540263790236573,0.0387368112913334,0.001090830782496456,2.865857724587689,15.549497081977316,-73.5625
1774880525.924665,11.5233617164259,1.3432536811182476,-8.062018343675486,-0.11133450218693305,-1.4682006257421414,9.633463363233165,-0.006540263790236573,0.0387368112913334,0.001090830782496456,2.865857724587689,15.549497081977316,-73.5625
1774880525.9688804,11.68207483611803,1.5677011085710826,-8.144666466924336,-0.01876880622002614,-1.3885597949527666,9.66608029263509,-0.028884748105712853,0.04881795595236068,0.04581489286485115,2.865857724587689,15.549497081977316,-77.0625
1774880526.0375962,11.850894323709511,1.5420335023375331,-8.269874658181186,0.012463842691056572,-1.3664530389966223,9.68746214877857,-0.050541987994968916,-0.04014210566797495,0.05890486225480862,2.865857724587689,15.549497081977316,-77.0625
1774880526.0695632,11.931271284296951,1.4872395873649473,-8.34098828307799,0.0001795418464219628,-1.3327387890471083,9.70503664689839,-0.0583295575198854,-0.07097680669668849,0.06654067773228381,2.0275535362919483,16.126040521698748,-79.5
1774880526.099189,11.931271284296951,1.4872395873649473,-8.34098828307799,0.0001795418464219628,-1.3327387890471083,9.70503664689839,-0.0583295575198854,-0.07097680669668849,0.06654067773228381,2.0275535362919483,16.126040521698748,-79.5
1774880526.1248121,12.15888447522937,1.327312557706464,-8.4984388326873,-0.017933384846345577,-1.3116976300417809,9.713387167369804,-0.04136768745052573,-0.07410297252092399,0.07417649320975901,2.0275535362919483,16.126040521698748,-79.5
1774880526.168311,12.273700757678997,1.2883894252302655,-8.540962522433247,-0.06177516906772964,-1.3359372711050268,9.715599233754785,-0.023081097623012463,-0.039591125931587236,0.06435901616729091,1.980732117061716,18.70710043086422,-81.5
1774880526.185458,12.41430276584289,1.3776936716987291,-8.578860832302555,-0.09095138672224148,-1.3520684814580843,9.703690892394311,-0.022270230887016892,0.04093440904685567,0.06654067773228381,1.980732117061716,18.70710043086422,-81.5
1774880526.2359426,12.529778460137448,1.6179066960567414,-8.575459104850731,-0.09711735137788616,-1.3609432247863162,9.695766024243806,-0.015185308550421188,0.10031023596817196,0.06544984694978735,1.5148491480611475,19.777723758274572,-83.375
1774880526.2825377,12.529778460137448,1.6179066960567414,-8.575459104850731,-0.09711735137788616,-1.3609432247863162,9.695766024243806,-0.015185308550421188,0.10031023596817196,0.06544984694978735,1.5148491480611475,19.777723758274572,-83.375
1774880526.3209517,12.861281325319665,2.0596245043911336,-8.630894401064191,-0.08087990932621417,-1.3673712924558563,9.690492113016223,-0.029964983626359146,0.04866628850042762,0.07853981633974483,1.8404489481260873,22.852863555128963,-84.5
1774880526.3465626,12.861281325319665,2.0596245043911336,-8.630894401064191,-0.08087990932621417,-1.3673712924558563,9.690492113016223,-0.029964983626359146,0.04866628850042762,0.07853981633974483,1.8404489481260873,22.852863555128963,-84.5
1774880526.3827083,13.097408818543038,2.1720015422748022,-8.69949558676016,-0.06263248516773542,-1.424651028778621,9.683637272300395,-0.024638059451587077,0.01857136137426454,0.09599310885968812,1.8404489481260873,22.852863555128963,-84.5
1774880526.4167647,13.50201798397531,2.290343846420582,-8.758089792245405,-0.04008606728098154,-1.464687376290047,9.722561904572752,-0.030779010957369006,0.030927517814287774,0.15926129424448257,2.312713529224305,24.4338829779825,-86.5625
1774880526.4458892,13.823780771628222,2.40016949005388,-8.768621787100214,-0.008518575195178945,-1.4890056221182189,9.748465812533372,-0.022536439076653328,0.05852151228106245,0.21271200258680892,2.312713529224305,24.4338829779825,-86.5625
1774880526.4710321,13.823780771628222,2.40016949005388,-8.768621787100214,-0.008518575195178945,-1.4890056221182189,9.748465812533372,-0.022536439076653328,0.05852151228106245,0.21271200258680892,2.312713529224305,24.4338829779825,-86.5625
1774880526.5050845,14.344116744182404,2.3814117046144183,-8.838286700892512,0.011093940432704976,-1.495251281358967,9.772394797330191,-0.03333247309308765,-0.06856869082287433,0.17671458676442586,1.0757373182225198,28.299441941886123,-87.75
1774880526.5230448,14.758570611166519,2.175479624201161,-8.962779515306078,-0.025543458029567805,-1.506384186431228,9.7883192694082,-0.016918422165101407,-0.10702073056745645,0.1189005552921137,1.0757373182225198,28.299441941886123,-87.75
1774880526.6049254,15.076817430529553,2.2214962300488725,-9.067874802127411,-0.1266944615164667,-1.5684845588106116,9.732014593541718,-0.03837778631612273,0.014439213457842137,0.11344640137963143,-0.2903427752869387,29.93791880413264,-89.25
1774880526.643209,15.282947188189127,2.3614427408412757,-9.126501539387384,-0.20121351654600142,-1.6547361272763905,9.694544460717017,-0.0147642723138374,0.018856132921015824,0.07090400086226964,-0.2903427752869387,29.93791880413264,-89.25
1774880526.6714253,15.282947188189127,2.3614427408412757,-9.126501539387384,-0.20121351654600142,-1.6547361272763905,9.694544460717017,-0.0147642723138374,0.018856132921015824,0.07090400086226964,-0.2903427752869387,29.93791880413264,-89.25
1774880526.7161849,15.46926650546202,2.4052492384201423,-9.134890717210954,-0.25406080992329527,-1.688947238618194,9.783342303939847,-0.002160471041292581,-0.0003033349038661268,0.04690572364734761,-1.226544210108244,33.90882022867575,-89.6875
1774880526.768066,15.468171004526768,2.413533605991606,-9.15533440732323,-0.26604174934391484,-1.708458656365484,9.842436276667735,-0.01605186535776129,-0.0033552472996422416,-0.008726646259971648,-1.226544210108244,33.90882022867575,-89.6875
1774880526.7932665,15.250904988928228,2.312591071173665,-9.17218377758322,-0.2625109936212385,-1.6590255212412666,9.844966426614704,-0.0011544889491056773,-0.031004931837761453,-0.0719948316447661,0.4183142642359219,37.9265430724491,-89.25
1774880526.8426437,15.05528757419876,2.205859241780541,-9.181598408525124,-0.25301404887007944,-1.6048573008865858,9.799818649238313,-0.007957800333964395,-0.03746778160452435,-0.12435470920459599,0.4183142642359219,37.9265430724491,-89.25
1774880526.8863468,15.05528757419876,2.205859241780541,-9.181598408525124,-0.25301404887007944,-1.6048573008865858,9.799818649238313,-0.007957800333964395,-0.03746778160452435,-0.12435470920459599,0.4183142642359219,37.9265430724491,-89.25
1774880526.9311666,14.442617760641074,2.2193303971806575,-9.18284647712774,-0.20735066476499742,-1.5362617006577837,9.763083084313404,-0.010975746610525106,0.05463700919716163,-0.14508049407202864,-1.1910831660610355,41.298022148663804,-88.0625
1774880526.9892962,14.260643059927629,2.2059351976262294,-9.207496207326063,-0.17696219273648858,-1.4906120949685784,9.708529970853151,-0.008186881809371134,-0.004454046177403379,-0.1090830782496456,-1.1910831660610355,41.298022148663804,-88.0625
1774880527.0345583,13.912586345489329,2.1681986808870994,-9.165020567317834,-0.1591214261492722,-1.467323132699859,9.662190148121603,0.01470542164747857,0.020790683081915954,-0.10471975511965978,0.40607137579169156,43.85744783999364,-87.0
1774880527.0655558,13.497107758783008,2.291336560483094,-9.067549544956092,-0.1449230990745247,-1.468387691306939,9.614625955206897,0.01805750835210652,0.06752558201645774,-0.11453723216212788,0.40607137579169156,43.85744783999364,-87.0
1774880527.1082325,13.327810955109852,2.310222453661694,-9.013096048880913,-0.13547427101198595,-1.469096143168052,9.599698074685607,0.035400127348806,0.030305445244454967,-0.09599310885968812,0.9357933962828905,47.27681193745485,-86.0625
1774880527.1427941,13.25161480200947,2.3085843679579443,-8.958307368545572,-0.1528965505876938,-1.4931641273068885,9.546277284758888,0.013606622769717434,0.012925699533525794,-0.006544984694978736,0.9357933962828905,47.27681193745485,-86.0625
1774880527.1873236,13.25161480200947,2.3085843679579443,-8.958307368545572,-0.1528965505876938,-1.4931641273068885,9.546277284758888,0.013606622769717434,0.012925699533525794,-0.006544984694978736,0.9357933962828905,47.27681193745485,-86.0625
1774880527.2142162,13.32856991790088,2.4109835462194087,-8.91707299173337,-0.16170028757926114,-1.529056825304875,9.567593244836411,0.018438257279446327,0.03343161106869047,0.031634092692397225,0.7880650132333377,48.32899185307839,-85.6875
1774880527.243746,13.35888748443934,2.4079169089615786,-8.804321070605255,-0.16279423203040075,-1.5387623341189502,9.581778778153126,0.052761309702620336,0.0007986245689093007,0.011999138607461015,0.7880650132333377,48.32899185307839,-85.6875
1774880527.2701988,13.35888748443934,2.4079169089615786,-8.804321070605255,-0.16279423203040075,-1.5387623341189502,9.581778778153126,0.052761309702620336,0.0007986245689093007,0.011999138607461015,0.7880650132333377,48.32899185307839,-85.6875
1774880527.3343444,13.16181113264946,2.1623311311196582,-8.685281967720751,-0.15750246399364642,-1.5317167530657134,9.708926439221315,0.0128885728192961,-0.02903325496263163,-0.0719948316447661,0.9074153888394682,50.176026432571334,-84.5625
1774880527.3940535,12.916616082118091,2.053482194134135,-8.714471563029846,-0.15570088239544902,-1.5230391850061393,9.695905110464967,-0.002045930303589211,-0.01681020261742661,-0.05999569303730508,-0.7062364495225885,51.779743675276784,-83.375
1774880527.4338386,12.916616082118091,2.053482194134135,-8.714471563029846,-0.15570088239544902,-1.5230391850061393,9.695905110464967,-0.002045930303589211,-0.01681020261742661,-0.05999569303730508,-0.7062364495225885,51.779743675276784,-83.375
1774880527.4936142,12.770245501171923,2.0304773692409186,-8.76692528550323,-0.1322438044699626,-1.5073834245728897,9.68723956163539,-0.019140904467767103,-0.0048904851760877225,-0.06872233929727672,-0.7062364495225885,51.779743675276784,-83.375
1774880527.5338907,12.465594830914315,2.0225668384133337,-8.982029574822697,-0.11663338114328087,-1.4969646908908651,9.68147273568983,-0.049653707235499674,0.008449929403993278,-0.061086523819801536,0.9191150110184917,55.0373714747218,-81.75
1774880527.5647287,12.357293967296178,2.051054352123353,-9.031706575775221,-0.12612054220981858,-1.4928217354568103,9.650874083784172,-0.024941394355453207,0.020731832415557122,-0.061086523819801536,0.9191150110184917,55.0373714747218,-81.75
1774880527.6095023,12.357293967296178,2.051054352123353,-9.031706575775221,-0.12612054220981858,-1.4928217354568103,9.650874083784172,-0.024941394355453207,0.020731832415557122,-0.061086523819801536,0.9191150110184917,55.0373714747218,-81.75
1774880527.638408,12.115133563182292,2.16206400079761,-9.13671431514028,-0.13812918457577913,-1.497620084514305,9.630511022750294,-0.04446304775056011,0.04993531818723666,-0.07744898555724837,0.5140613762147977,55.6747442486401,-79.5
1774880527.6854978,12.115133563182292,2.16206400079761,-9.13671431514028,-0.13812918457577913,-1.497620084514305,9.630511022750294,-0.04446304775056011,0.04993531818723666,-0.07744898555724837,0.5140613762147977,55.6747442486401,-79.5
1774880527.7243829,11.94809425937382,2.2755563566005104,-9.34638096614388,-0.1461208019250011,-1.5008133322109967,9.65041075017574,-0.0730598637145074,0.026092722709544595,-0.037088246604879506,0.5140613762147977,55.6747442486401,-79.5
1774880527.7763593,11.94733643450334,2.2413406018960793,-9.565560336611064,-0.14615226470415044,-1.4684168994746887,9.700450025263365,-0.06604603421135678,-0.008171479047270577,-0.016362461737446838,0.8918006055913438,58.3785264282156,-78.25
1774880527.8393593,12.32159806606953,2.120748309756233,-9.626745267622681,-0.14617320283221197,-1.4468574353805417,9.733750603858851,-0.005190659484939559,-0.041485388783243385,0.10471975511965978,0.8918006055913438,58.3785264282156,-78.25
1774880527.895012,12.588640859702728,2.1394927169090505,-9.530946633640582,-0.1547866267855172,-1.4674964555094983,9.732495984971075,0.024486391999654016,-0.017491125853618252,0.11017390903214205,0.744072222541791,59.43070634383914,-76.0
1774880527.9385624,12.920351396851517,2.248491008048903,-9.303171063305612,-0.16051876420819175,-1.4812314928523576,9.731661050116271,0.08046668431208406,0.03883594926693621,0.11999138607461016,0.744072222541791,59.43070634383914,-76.0
1774880527.9729164,12.920351396851517,2.248491008048903,-9.303171063305612,-0.16051876420819175,-1.4812314928523576,9.731661050116271,0.08046668431208406,0.03883594926693621,0.11999138607461016,0.744072222541791,59.43070634383914,-76.0
1774880528.0097506,13.373108064723564,2.3681487582077554,-8.974551663572605,-0.13928469668748855,-1.5003667943598105,9.731105410297232,0.08075145585883536,0.028962162129186533,0.1439896632895322,-0.7413582465737972,59.22214862659271,-74.0
1774880528.0488286,13.829174338287453,2.4156543045225582,-8.788669337193394,-0.10341754157764603,-1.5235610105849717,9.747461196741163,0.04366442318165081,0.002825991515383664,0.14289883250703572,-0.7413582465737972,59.22214862659271,-74.0
1774880528.1016726,14.031989816667117,2.4371908919322283,-8.763380437215137,-0.07675775506796963,-1.5588722257970344,9.778416460157409,0.013891394316468714,0.003051912395776115,0.11344640137963143,1.4867874570995867,59.53498520246235,-72.375
1774880528.1302962,14.293378612835324,2.421797745948797,-8.752752677615161,-0.06564120609197198,-1.5833016435506932,9.79901684216797,-0.002500932659388401,-0.013569496055487741,0.05781403147231216,1.4867874570995867,59.53498520246235,-72.375
1774880528.159792,14.34548341507706,2.383321869655224,-8.746798863245196,-0.06289425933918641,-1.5664329424869594,9.816071277981974,0.015807381120253997,-0.034131097661996956,0.037088246604879506,0.3629610983613517,58.99851939236337,-73.5625
1774880528.221716,14.34548341507706,2.383321869655224,-8.746798863245196,-0.06289425933918641,-1.5664329424869594,9.816071277981974,0.015807381120253997,-0.034131097661996956,0.037088246604879506,0.3629610983613517,58.99851939236337,-73.5625
1774880528.2371943,14.472490055430667,2.194863899617862,-8.719893642488929,-0.0615312962016887,-1.5518943897963504,9.827420814505663,-0.012486099939827161,-0.0601341641809816,0.026179938779914945,0.3629610983613517,58.99851939236337,-73.5625
1774880528.2705948,14.544779752526956,2.0524033013982312,-8.83198827925607,-0.10700094741702297,-1.5487305347620783,9.791487352084395,-0.027002727421142972,-0.06657845059062965,0.019634954084936207,0.3629610983613517,58.99851939236337,-71.25
1774880528.2972617,14.544779752526956,2.0524033013982312,-8.83198827925607,-0.10700094741702297,-1.5487305347620783,9.791487352084395,-0.027002727421142972,-0.06657845059062965,0.019634954084936207,0.3629610983613517,58.99851939236337,-71.25
1774880528.3154378,14.555088379654023,1.995111072995035,-8.919458472900322,-0.13964291445782404,-1.5537153649572852,9.71070713522169,-0.044685808035938274,-0.04262447497024851,0.006544984694978736,0.3629610983613517,58.99851939236337,-71.25
1774880528.3333373,14.555032701845871,1.9852375354567813,-8.990426803512289,-0.1613657788888134,-1.5570327137679936,9.620152574493192,-0.06036008506137406,-0.01728692892535494,0.0,0.3629610983613517,58.99851939236337,-71.25
1774880528.3669708,14.548073037266352,2.034117739460942,-9.23387910842053,-0.15216865928724452,-1.559297298225211,9.559889525889101,-0.0916126617316571,0.009167979354414612,0.003272492347489368,-1.2755157638851646,57.63243929885391,-70.75
1774880528.4096057,14.585658037432335,2.135660606065104,-9.473494476019924,-0.14366565684467691,-1.5537140135064844,9.5298204753474,-0.11132310929292676,0.024025068453826244,0.02945243112740431,-1.2755157638851646,57.63243929885391,-70.75
1774880528.4362364,14.585658037432335,2.135660606065104,-9.473494476019924,-0.14366565684467691,-1.5537140135064844,9.5298204753474,-0.11132310929292676,0.024025068453826244,0.02945243112740431,-1.2755157638851646,57.63243929885391,-70.75
1774880528.4524946,14.705247488457777,2.1964789640703097,-9.616086368322504,-0.1394023014271348,-1.5400605381902541,9.580057203958907,-0.09962931273198032,0.01134701375282204,0.07744898555724837,-1.2755157638851646,57.63243929885391,-70.75
1774880528.5138361,15.012184642202337,2.272355244776412,-9.846529906704976,-0.13656508602156103,-1.5309743028866154,9.677046308107904,-0.08530147941682727,0.003444903490202184,0.09272061651219876,-1.4319340518199855,58.746512150690606,-68.0625
1774880528.5557718,15.345771314446873,2.3705651558852088,-10.039756898044269,-0.13421185162184923,-1.5282401353603745,9.751626808601737,-0.10165667967845468,0.002250127231852523,0.16144295580947549,-1.4319340518199855,58.746512150690606,-68.0625
1774880528.6082506,15.345771314446873,2.3705651558852088,-10.039756898044269,-0.13421185162184923,-1.5282401353603745,9.751626808601737,-0.10165667967845468,0.002250127231852523,0.16144295580947549,-1.4319340518199855,58.746512150690606,-68.0625
1774880528.6406434,16.47722323631361,2.7621778508797235,-10.248702533693482,-0.1625732372938868,-1.5779133570241841,9.801259298561604,-0.07152462583806192,0.023003683599538784,0.284706834231575,-1.7316452259841904,59.08311014842843,-67.6875
1774880528.7133,16.681482134215955,3.0629232595816633,-9.983304924626903,-0.18807266377805443,-1.6119005296373563,9.834289166198655,0.10136558694167483,0.1331971884905033,0.0719948316447661,-1.7316452259841904,59.08311014842843,-67.6875
1774880528.738723,16.885856152988225,2.9538988955545418,-9.360454558973043,-0.20504224725601006,-1.6345186133498277,9.7157754824359,0.20037914829385092,-0.06990249215309989,0.11126473981463851,-0.7413582465737972,59.22214862659271,-67.0
1774880528.7798438,17.28611751738781,2.960406426609345,-9.035348800246894,-0.22377690335512498,-1.5965687663050208,9.636905949776379,0.12235138537978212,0.007264634930686487,0.18435040224190105,-0.7413582465737972,59.22214862659271,-67.0
1774880528.810901,17.574367357880067,3.1941775092690867,-8.86241485493514,-0.27773290753910096,-1.708877555532459,9.584419156821875,0.06994277946234387,0.15301901619446204,0.17671458676442586,-0.9552339739015993,58.49787680382173,-67.25
1774880528.8425045,17.574367357880067,3.1941775092690867,-8.86241485493514,-0.27773290753910096,-1.708877555532459,9.584419156821875,0.06994277946234387,0.15301901619446204,0.17671458676442586,-0.9552339739015993,58.49787680382173,-67.25
1774880528.8942018,17.722949952501963,3.544503868825456,-8.625945672547926,-0.3136400255954776,-1.78361780019194,9.626427351694893,0.09242036787263838,0.13414431991633136,0.04036073895236887,-0.9552339739015993,58.49787680382173,-67.25
1774880528.9507802,17.07896527696536,3.4102929197560505,-8.286234710498539,-0.39448623810033456,-1.9089109942997242,9.654383336120603,0.0755236696596661,-0.027949858846971043,-0.18435040224190105,0.5193793862961723,57.884446540526675,-66.5
1774880528.9744747,16.593774759750904,3.114778639108553,-8.572795449935658,-0.4482884894109488,-1.9922922153617697,9.649571949515868,-0.07407492737876628,-0.1392792893299264,-0.2476185876266955,0.5193793862961723,57.884446540526675,-66.5
1774880529.0159347,16.593774759750904,3.114778639108553,-8.572795449935658,-0.4482884894109488,-1.9922922153617697,9.649571949515868,-0.07407492737876628,-0.1392792893299264,-0.2476185876266955,0.5193793862961723,57.884446540526675,-66.5
1774880529.066217,16.00270972924807,2.8818714412406146,-9.094227295144309,-0.4730544488174747,-1.9820511003026386,9.599538461574657,-0.12587370289345795,-0.06063261444103906,-0.17016960206944712,-0.9713690929007913,55.466186531393674,-64.1875
1774880529.1147125,15.329377313991943,3.1171044455449315,-9.437416733257038,-0.4851792473362315,-1.9340890080871327,9.566241734260462,-0.08092800785791185,0.0899782858796088,-0.19634954084936207,-0.9713690929007913,55.466186531393674,-64.1875
1774880529.146168,14.291200667525608,2.92632304982697,-9.717118197736486,-0.46929342330166596,-1.8093016278221539,9.685331726430471,-0.05281699977396487,-0.02393857285828059,-0.25743606466916363,-0.7032267322288327,56.70298165364039,-62.5625
1774880529.1838818,14.291200667525608,2.92632304982697,-9.717118197736486,-0.46929342330166596,-1.8093016278221539,9.685331726430471,-0.05281699977396487,-0.02393857285828059,-0.25743606466916363,-0.7032267322288327,56.70298165364039,-62.5625
1774880529.2293856,13.497978845261446,2.890130611004139,-9.798966299990903,-0.3981808855303262,-1.69916932846735,9.706963986331427,-0.03165188895473769,0.05283556313107972,-0.37306412761378793,-0.4372115755894238,57.05589585913248,-62.1875
1774880529.2700202,12.507862141104926,2.8442178144979446,-9.919816913803515,-0.3522515837458221,-1.615939651799827,9.721360013647336,-0.09407646767681581,0.011025115491841063,-0.3097959422289935,-0.4372115755894238,57.05589585913248,-62.1875
1774880529.3095229,12.092105732313325,2.7780943395088276,-10.24756889061749,-0.3528381034303585,-1.531145819958283,9.730940409011913,-0.15833961917920553,-0.025535821996099193,-0.11017390903214205,-1.1364772857208798,56.64215231944352,-61.0
1774880529.3281372,12.078357279069204,2.787141750491609,-10.521377600699669,-0.3532284257285633,-1.474716472076901,9.549989799497125,-0.16648937427434696,-0.014563235980588375,-0.003272492347489368,-1.1364772857208798,56.64215231944352,-61.0
1774880529.3678453,12.078357279069204,2.787141750491609,-10.521377600699669,-0.3532284257285633,-1.474716472076901,9.549989799497125,-0.16648937427434696,-0.014563235980588375,-0.003272492347489368,-1.1364772857208798,56.64215231944352,-61.0
1774880529.411117,12.450466156424659,3.0304310144593463,-10.807152340914415,-0.33506468105137366,-1.4480883574873105,9.429569190215785,-0.11177811164872595,0.027265775015765114,0.12544553998709243,-0.4806611000157629,57.365360540198225,-59.0625
1774880529.4319718,12.674384309527895,3.2167447397254705,-10.717585784170526,-0.2863006899008237,-1.5231779464804593,9.509995981876731,0.02430984000057752,0.10144932215517707,0.1538071403320003,-0.4806611000157629,57.365360540198225,-59.0625
1774880529.4620166,12.674384309527895,3.2167447397254705,-10.717585784170526,-0.2863006899008237,-1.5231779464804593,9.509995981876731,0.02430984000057752,0.10144932215517707,0.1538071403320003,-0.4806611000157629,57.365360540198225,-59.0625
1774880529.4888706,13.299456201628534,3.614619041785588,-10.446421366608211,-0.24112034136785984,-1.5916296548370943,9.640456682569306,0.05057595411418431,0.11835550215319221,0.21380283336930536,-0.4806611000157629,57.365360540198225,-59.75
1774880529.5369754,13.951257983746562,3.926998534930032,-10.293502675303849,-0.20634540582507738,-1.64665626455697,9.777453497148489,0.019252284610456187,0.0511703817548303,0.21271200258680892,-0.4806611000157629,57.365360540198225,-59.75
1774880529.5939248,14.55128556697843,3.7966729014426384,-10.135052706291907,-0.1851203975280448,-1.6936788195844106,9.868623346896245,0.03946118243178331,-0.07707431029821214,0.039269908169872414,0.5715188156077792,57.51308892324778,-57.5
1774880529.6432972,14.49592445717335,3.7784609819342285,-9.912653471011271,-0.27176930638142294,-1.7289869202057768,9.802181618591286,0.13667605809992087,0.0621492889603697,-0.07308566242726255,0.5715188156077792,57.51308892324778,-57.5
1774880529.6898456,14.49592445717335,3.7784609819342285,-9.912653471011271,-0.27176930638142294,-1.7289869202057768,9.802181618591286,0.13667605809992087,0.0621492889603697,-0.07308566242726255,0.5715188156077792,57.51308892324778,-57.5
1774880529.7193465,14.109292888031948,3.9425305751488207,-9.437016698124623,-0.3512262335474085,-1.7656776231447902,9.741239832070475,0.17952329335554754,0.1100232740819166,-0.14180800172453928,1.4195765108050622,57.316593005690514,-59.0625
1774880529.7422113,13.776121764928313,3.9854332681432543,-9.185041333714311,-0.4038665352668831,-1.8880212695375154,9.700683753905237,0.15723765970643008,0.0804576027400121,-0.1930770485018727,1.4195765108050622,57.316593005690514,-59.0625
1774880529.7739205,13.776121764928313,3.9854332681432543,-9.185041333714311,-0.4038665352668831,-1.8880212695375154,9.700683753905237,0.15723765970643008,0.0804576027400121,-0.1930770485018727,1.4195765108050622,57.316593005690514,-59.0625
1774880529.8073351,13.118625920326119,3.88503653588776,-9.096752988661983,-0.4455233091673571,-1.970369798025946,9.700455030585903,0.06657845059062965,-0.027002727421142975,-0.24652775684419906,0.8669755817068848,55.4087290920007,-58.5625
1774880529.843478,12.639631857024403,3.7197783963102324,-9.096536201789247,-0.48213923832280225,-1.9858854762615548,9.700302817771894,0.03131142733664187,-0.06610172428270132,-0.32070425005395803,0.8669755817068848,55.4087290920007,-58.5625
