timestamp,yaw,pitch,roll,ax,ay,az,gx,gy,gz,mx,my,mz
1772906191.4473946,-0.08528052620722255,1.0737378495566554,-9.082146596932073,-0.1966918052886342,-1.5546233821997206,9.591988658286475,0.001090830782496456,0.003272492347489368,0.001090830782496456,2.25,-2.6875,-91.25
1772906191.4677074,-0.09369678585814536,1.0737378495566554,-9.987019773015119,-0.19445332166722298,-1.563112144329309,9.654880552313948,0.001090830782496456,0.0,0.001090830782496456,2.25,-2.6875,-91.25
1772906191.4807284,-0.09369678585814536,1.0737378495566554,-9.987019773015119,-0.19445332166722298,-1.563112144329309,9.654880552313948,0.001090830782496456,0.0,0.001090830782496456,2.25,-2.6875,-91.25
1772906191.4930449,-0.08528052620722255,1.0737378495566554,-9.082146596932073,-0.1929636358226743,-1.568761320700864,9.696734405240742,0.003272492347489368,0.0,0.001090830782496456,2.25,-2.6875,-91.25
1772906191.5042946,-0.08528052620722255,1.0737378495566554,-9.082146596932073,-0.1929636358226743,-1.568761320700864,9.696734405240742,0.003272492347489368,0.0,0.001090830782496456,2.25,-2.6875,-91.25
1772906191.5170648,-0.08528052620722255,1.0737378495566554,-9.082146596932073,-0.1929636358226743,-1.568761320700864,9.696734405240742,0.003272492347489368,0.0,0.001090830782496456,2.25,-2.6875,-91.25
1772906191.5285795,-0.08528052620722255,1.0737378495566554,-9.082146596932073,-0.19197226653400842,-1.5725207844706988,9.721242565118033,-0.001090830782496456,0.001090830782496456,-0.002181661564992912,0.0625,-5.25,-89.25
1772906191.5459373,-0.08528052620722255,1.0737378495566554,-9.082146596932073,-0.19131252134672183,-1.5750226656135617,9.744242695156926,0.0,0.003272492347489368,0.001090830782496456,0.0625,-5.25,-89.25
1772906191.5576096,-0.08528052620722255,1.0737378495566554,-9.082146596932073,-0.19131252134672183,-1.5750226656135617,9.744242695156926,0.0,0.003272492347489368,0.001090830782496456,0.0625,-5.25,-89.25
1772906191.5697014,-0.08528052620722255,1.0737378495566554,-9.082146596932073,-0.19087346829441926,-1.573342527858974,9.759549024769521,0.0,0.001090830782496456,-0.001090830782496456,0.0625,-5.25,-89.25
1772906191.5811296,-0.08528052620722255,1.0737378495566554,-9.082146596932073,-0.19087346829441926,-1.573342527858974,9.759549024769521,0.0,0.001090830782496456,-0.001090830782496456,0.0625,-5.25,-89.25
1772906191.594427,-0.08528052620722255,1.0737378495566554,-9.082146596932073,-0.19058128339265584,-1.5722244149516647,9.769735216143799,0.0,0.002181661564992912,0.001090830782496456,2.6875,-2.5625,-88.875
1772906191.605137,-0.08528052620722255,1.0737378495566554,-9.082146596932073,-0.19058128339265584,-1.5722244149516647,9.769735216143799,0.0,0.002181661564992912,0.001090830782496456,2.6875,-2.5625,-88.875
1772906191.6419685,-0.08528052620722255,1.0737378495566554,-9.082146596932073,-0.19248357057837817,-1.5709851386211793,9.781025226110957,-0.001090830782496456,-0.002181661564992912,-0.001090830782496456,2.6875,-2.5625,-88.875
1772906191.6681058,-0.08528052620722255,1.0737378495566554,-9.082146596932073,-0.1916527884766095,-1.5740007104549947,9.790717611646274,-0.001090830782496456,0.0,0.001090830782496456,2.25,-2.5625,-88.5
1772906191.695964,-0.08528052620722255,1.0737378495566554,-9.082146596932073,-0.1877548005610072,-1.5760075398242543,9.797167785948988,0.0,0.004363323129985824,0.001090830782496456,2.25,-2.5625,-88.5
1772906191.7348783,-0.08528052620722255,1.0737378495566554,-9.082146596932073,-0.18850584485387137,-1.5739979506444244,9.788079858064997,-0.001090830782496456,0.0,-0.001090830782496456,2.25,-2.5625,-88.5
1772906191.755854,-0.08528052620722255,1.0737378495566554,-9.082146596932073,-0.18850584485387137,-1.5739979506444244,9.788079858064997,-0.001090830782496456,0.0,-0.001090830782496456,2.25,-2.5625,-88.5
1772906191.7932644,-0.08528052620722255,1.0737378495566554,-9.082146596932073,-0.1856605447337386,-1.56931547978651,9.782031943577007,0.0,0.003272492347489368,-0.001090830782496456,2.0,-2.5625,-90.0
1772906191.8119678,-0.08528052620722255,1.0737378495566554,-9.082146596932073,-0.1856605447337386,-1.56931547978651,9.782031943577007,0.0,0.003272492347489368,-0.001090830782496456,2.0,-2.5625,-90.0
1772906191.8421943,-0.08528052620722255,1.0737378495566554,-9.082146596932073,-0.18711214099519458,-1.5695444594445143,9.778007124044882,0.0,0.001090830782496456,0.0,2.0,-2.5625,-90.0
1772906191.8669739,-0.08528052620722255,1.0737378495566554,-9.082146596932073,-0.18711214099519458,-1.5695444594445143,9.778007124044882,0.0,0.001090830782496456,0.0,2.0,-2.5625,-90.0
1772906191.8807807,-0.08528052620722255,1.0737378495566554,-9.082146596932073,-0.1880781620918008,-1.5663517311417263,9.778673763313751,-0.001090830782496456,-0.001090830782496456,-0.002181661564992912,2.6875,-2.5625,-88.0625
1772906191.9010615,-0.08528052620722255,1.0737378495566554,-9.082146596932073,-0.18872103834042955,-1.564227006121333,9.779117404300337,0.0,-0.001090830782496456,0.001090830782496456,2.6875,-2.5625,-88.0625
1772906191.9545505,-0.08528052620722255,1.0737378495566554,-9.082146596932073,-0.18872103834042955,-1.564227006121333,9.779117404300337,0.0,-0.001090830782496456,0.001090830782496456,2.6875,-2.5625,-88.0625
1772906192.0190568,-0.08528052620722255,1.0737378495566554,-9.082146596932073,-0.18914886530249372,-1.5628130253549948,9.782757754128435,0.002181661564992912,0.0,-0.002181661564992912,3.0625,-2.5625,-90.375
1772906192.032618,-0.08528052620722255,1.0737378495566554,-9.082146596932073,-0.18914886530249372,-1.5628130253549948,9.782757754128435,0.002181661564992912,0.0,-0.002181661564992912,3.0625,-2.5625,-90.375
1772906192.0557828,-0.08528052620722255,1.0737378495566554,-9.082146596932073,-0.1927786910739265,-1.5652171486575162,9.78183525456634,0.001090830782496456,0.001090830782496456,-0.001090830782496456,3.0625,-2.5625,-90.375
1772906192.071181,-0.08528052620722255,1.0737378495566554,-9.082146596932073,-0.19184918786968497,-1.5668170658595273,9.784566453120082,0.0,0.001090830782496456,0.001090830782496456,3.5,-2.5625,-88.75
1772906192.0843663,-0.08528052620722255,1.0737378495566554,-9.082146596932073,-0.19184918786968497,-1.5668170658595273,9.784566453120082,0.0,0.001090830782496456,0.001090830782496456,3.5,-2.5625,-88.75
1772906192.1007104,-0.08528052620722255,1.0737378495566554,-9.082146596932073,-0.19123061387049334,-1.5645366811779,9.78303892354079,-0.001090830782496456,0.001090830782496456,0.0,3.5,-2.5625,-88.75
1772906192.1395378,-0.08528052620722255,1.0737378495566554,-9.082146596932073,-0.19123061387049334,-1.5645366811779,9.78303892354079,-0.001090830782496456,0.001090830782496456,0.0,3.5,-2.5625,-88.75
1772906192.1579154,-0.08528052620722255,1.0737378495566554,-9.082146596932073,-0.19081895978395566,-1.563019110645843,9.785367481376715,0.0,0.001090830782496456,0.0,2.25,-2.5625,-88.75
1772906192.182855,-0.08528052620722255,1.0737378495566554,-9.082146596932073,-0.1905450085878423,-1.5620091844091328,9.786917110604827,0.001090830782496456,0.0,0.0,2.25,-2.5625,-88.75
1772906192.203751,-0.08528052620722255,1.0737378495566554,-9.082146596932073,-0.1905450085878423,-1.5620091844091328,9.786917110604827,0.001090830782496456,0.0,0.0,2.25,-2.5625,-88.75
1772906192.2351995,-0.08528052620722255,1.0737378495566554,-9.082146596932073,-0.19036269712706422,-1.5680273131948563,9.787948371545644,0.001090830782496456,-0.001090830782496456,0.0,2.0,-3.25,-88.0625
1772906192.2487924,-0.08528052620722255,1.0737378495566554,-9.082146596932073,-0.19024137088646886,-1.5720323106748517,9.788634664181817,0.0,-0.003272492347489368,0.001090830782496456,2.0,-3.25,-88.0625
1772906192.2650647,-0.08528052620722255,1.0737378495566554,-9.082146596932073,-0.19024137088646886,-1.5720323106748517,9.788634664181817,0.0,-0.003272492347489368,0.001090830782496456,2.0,-3.25,-88.0625
1772906192.2778475,-0.08528052620722255,1.0737378495566554,-9.082146596932073,-0.19016062962865557,-1.5746975917590356,9.7890913842648,0.001090830782496456,0.0,0.0,2.0,-3.25,-88.0625
1772906192.2954748,-0.08528052620722255,1.0737378495566554,-9.082146596932073,-0.19010689722351976,-1.5731261948400999,9.782705102963488,0.001090830782496456,0.002181661564992912,0.002181661564992912,3.0625,-2.1875,-89.25
1772906192.31574,-0.08528052620722255,1.0737378495566554,-9.082146596932073,-0.19007113890813218,-1.5720804477442019,9.778455104096903,-0.001090830782496456,0.001090830782496456,0.0,3.0625,-2.1875,-89.25
1772906192.3533704,-0.08528052620722255,1.0737378495566554,-9.082146596932073,-0.19007113890813218,-1.5720804477442019,9.778455104096903,-0.001090830782496456,0.001090830782496456,0.0,3.0625,-2.1875,-89.25
1772906192.3730545,-0.08528052620722255,1.0737378495566554,-9.082146596932073,-0.1900473421486883,-1.5713845147336423,9.772281665619468,-0.001090830782496456,0.0,0.0,2.6875,-1.5,-88.5
1772906192.3897107,-0.08528052620722255,1.0737378495566554,-9.082146596932073,-0.1900315056711056,-1.570921379089196,9.764828199567242,-0.002181661564992912,0.0,-0.001090830782496456,2.6875,-1.5,-88.5
1772906192.4140625,-0.08528052620722255,1.0737378495566554,-9.082146596932073,-0.1900315056711056,-1.570921379089196,9.764828199567242,-0.002181661564992912,0.0,-0.001090830782496456,2.6875,-1.5,-88.5
1772906192.4401155,-0.08528052620722255,1.0737378495566554,-9.082146596932073,-0.19002096667217938,-1.5706131674913812,9.763213112877477,-0.001090830782496456,0.001090830782496456,0.0,3.0625,-2.1875,-89.25
1772906192.4651706,-0.08528052620722255,1.0737378495566554,-9.082146596932073,-0.19002096667217938,-1.5706131674913812,9.763213112877477,-0.001090830782496456,0.001090830782496456,0.0,3.0625,-2.1875,-89.25
1772906192.493786,-0.08528052620722255,1.0737378495566554,-9.082146596932073,-0.1933590647934417,-1.5704080561159846,9.762138290727139,-0.001090830782496456,0.001090830782496456,0.0,3.0625,-2.1875,-89.25
1772906192.5211735,-0.08528052620722255,1.0737378495566554,-9.082146596932073,-0.1933590647934417,-1.5704080561159846,9.762138290727139,-0.001090830782496456,0.001090830782496456,0.0,3.0625,-2.1875,-89.25
1772906192.5447755,-0.08528052620722255,1.0737378495566554,-9.082146596932073,-0.19558053180414248,-1.5702715567869023,9.761423008592638,-0.002181661564992912,0.002181661564992912,-0.001090830782496456,2.6875,-2.5625,-89.5625
1772906192.5700204,-0.08528052620722255,1.0737378495566554,-9.082146596932073,-0.19705889328435136,-1.5701807180081955,9.760946996322353,-0.001090830782496456,0.001090830782496456,0.0,2.6875,-2.5625,-89.5625
1772906192.5995054,-0.08528052620722255,1.0737378495566554,-9.082146596932073,-0.19804272633505055,-1.5701202658157016,9.763975327181203,0.0,0.001090830782496456,0.0,2.6875,-2.1875,-90.0
1772906192.62881,-0.08528052620722255,1.0737378495566554,-9.082146596932073,-0.19804272633505055,-1.5701202658157016,9.763975327181203,0.0,0.001090830782496456,0.0,2.6875,-2.1875,-90.0
1772906192.6770277,-0.08528052620722255,1.0737378495566554,-9.082146596932073,-0.1953523445328362,-1.566734923849573,9.765990647539097,0.0,0.0,0.0,2.6875,-2.1875,-90.0
1772906192.6931133,-0.08528052620722255,1.0737378495566554,-9.082146596932073,-0.19356192549699647,-1.564482016587862,9.76733182072467,-0.002181661564992912,0.0,0.0,3.0625,-2.1875,-89.1875
1772906192.7090466,-0.08528052620722255,1.0737378495566554,-9.082146596932073,-0.19237042162893625,-1.5629827319718164,9.764879244790464,0.0,0.0,-0.001090830782496456,3.0625,-2.1875,-89.1875
1772906192.7292745,-0.08528052620722255,1.0737378495566554,-9.082146596932073,-0.19157748911471248,-1.5619849748079444,9.763247082903318,0.001090830782496456,0.002181661564992912,-0.001090830782496456,3.0625,-2.1875,-89.1875
1772906192.7589493,-0.08528052620722255,1.0737378495566554,-9.082146596932073,-0.19104980138413313,-1.5646660902683849,9.765506009107185,0.0,0.0,0.0,2.6875,-2.5625,-89.25
1772906192.7723346,-0.08528052620722255,1.0737378495566554,-9.082146596932073,-0.19104980138413313,-1.5646660902683849,9.765506009107185,0.0,0.0,0.0,2.6875,-2.5625,-89.25
1772906192.7846782,-0.08528052620722255,1.0737378495566554,-9.082146596932073,-0.19069863109409074,-1.566450342657286,9.767009299261998,-0.001090830782496456,0.003272492347489368,-0.002181661564992912,2.6875,-2.5625,-89.25
1772906192.7974603,-0.08528052620722255,1.0737378495566554,-9.082146596932073,-0.19069863109409074,-1.566450342657286,9.767009299261998,-0.001090830782496456,0.003272492347489368,-0.002181661564992912,2.6875,-2.5625,-89.25
1772906192.816472,-0.08528052620722255,1.0737378495566554,-9.082146596932073,-0.1904649311888967,-1.5676377426906944,9.768009722067175,0.0,0.0,0.0,2.6875,-2.5625,-89.25
1772906192.8320901,-0.08528052620722255,1.0737378495566554,-9.082146596932073,-0.1904649311888967,-1.5676377426906944,9.768009722067175,0.0,0.0,0.0,2.6875,-2.5625,-89.25
1772906192.8466487,-0.08528052620722255,1.0737378495566554,-9.082146596932073,-0.19030940651258907,-1.5684279441488003,9.765330380561247,-0.002181661564992912,-0.001090830782496456,0.0,3.0625,-2.1875,-90.875
1772906192.8604443,-0.08528052620722255,1.0737378495566554,-9.082146596932073,-0.19030940651258907,-1.5684279441488003,9.765330380561247,-0.002181661564992912,-0.001090830782496456,0.0,3.0625,-2.1875,-90.875
1772906192.878148,-0.08528052620722255,1.0737378495566554,-9.082146596932073,-0.19020590657783082,-1.5689538143920412,9.763547308719257,0.001090830782496456,-0.001090830782496456,0.0,3.0625,-2.1875,-90.875
1772906192.9052014,-0.08528052620722255,1.0737378495566554,-9.082146596932073,-0.19013702852741923,-1.5726488868718818,9.762360694326631,0.0,-0.001090830782496456,0.0,3.0625,-2.1875,-90.875
1772906192.9290955,-0.08528052620722255,1.0737378495566554,-9.082146596932073,-0.19009119095428856,-1.5717628046232321,9.761571015703689,-0.001090830782496456,0.0,-0.003272492347489368,3.0625,-2.5625,-89.6875
1772906192.9446323,-0.08528052620722255,1.0737378495566554,-9.082146596932073,-0.19009119095428856,-1.5717628046232321,9.761571015703689,-0.001090830782496456,0.0,-0.003272492347489368,3.0625,-2.5625,-89.6875
1772906192.957503,-0.08528052620722255,1.0737378495566554,-9.082146596932073,-0.19006068656140934,-1.5678280150776238,9.76104549340141,-0.001090830782496456,0.0,0.0,3.0625,-2.5625,-89.6875
1772906192.9810822,-0.08528052620722255,1.0737378495566554,-9.082146596932073,-0.19006068656140934,-1.5678280150776238,9.76104549340141,-0.001090830782496456,0.0,0.0,3.0625,-2.5625,-89.6875
1772906192.9933298,-0.08528052620722255,1.0737378495566554,-9.082146596932073,-0.19004038622870462,-1.5652094565895007,9.757350652472391,-0.001090830782496456,-0.002181661564992912,0.0,3.0625,-2.5625,-89.6875
1772906193.015486,-0.08528052620722255,1.0737378495566554,-9.082146596932073,-0.19004038622870462,-1.5652094565895007,9.757350652472391,-0.001090830782496456,-0.002181661564992912,0.0,3.0625,-2.5625,-89.6875
1772906193.0299556,-0.08528052620722255,1.0737378495566554,-9.082146596932073,-0.19001788606646028,-1.5678783862576597,9.753255423020782,0.0,0.0,0.001090830782496456,2.6875,-4.0,-90.0
1772906193.0590863,-0.08528052620722255,1.0737378495566554,-9.082146596932073,-0.19001190297742887,-1.568588089754451,9.755511559362192,0.001090830782496456,-0.001090830782496456,0.0,2.6875,-4.0,-90.0
1772906193.0813224,-0.08528052620722255,1.0737378495566554,-9.082146596932073,-0.19001190297742887,-1.568588089754451,9.755511559362192,0.001090830782496456,-0.001090830782496456,0.0,2.6875,-4.0,-90.0
1772906193.099866,-0.08528052620722255,1.0737378495566554,-9.082146596932073,-0.19000792129851393,-1.5690603895036581,9.753667881187386,0.0,-0.001090830782496456,-0.001090830782496456,3.0625,-2.5625,-88.875
1772906193.1582282,-0.08528052620722255,1.0737378495566554,-9.082146596932073,-0.1933503832429937,-1.5693746997108216,9.755786045664607,0.0,0.0,0.0,3.0625,-2.5625,-88.875
1772906193.180348,-0.08528052620722255,1.0737378495566554,-9.082146596932073,-0.1922296426219792,-1.572928981349933,9.75719566046275,-0.002181661564992912,0.001090830782496456,0.0,2.6875,-3.0,-89.25
1772906193.2259486,-0.08528052620722255,1.0737378495566554,-9.082146596932073,-0.1948289139655065,-1.5752943160768342,9.758133743364485,0.001090830782496456,0.001090830782496456,0.0,2.6875,-3.0,-89.25
1772906193.2708085,-0.08528052620722255,1.0737378495566554,-9.082146596932073,-0.18986847659422174,-1.5735233082077476,9.758758027056517,0.0,0.001090830782496456,-0.002181661564992912,2.6875,-2.5625,-90.75
1772906193.2897525,-0.08528052620722255,1.0737378495566554,-9.082146596932073,-0.18986847659422174,-1.5735233082077476,9.758758027056517,0.0,0.001090830782496456,-0.002181661564992912,2.6875,-2.5625,-90.75
1772906193.3472974,-0.08528052620722255,1.0737378495566554,-9.082146596932073,-0.19551299770263397,-1.5715603864679892,9.759449960758369,0.0,-0.001090830782496456,-0.001090830782496456,2.6875,-2.1875,-88.875
1772906193.3814733,-0.08528052620722255,1.0737378495566554,-9.082146596932073,-0.19551299770263397,-1.5715603864679892,9.759449960758369,0.0,-0.001090830782496456,-0.001090830782496456,2.6875,-2.1875,-88.875
1772906193.4116688,-0.08528052620722255,1.0737378495566554,-9.082146596932073,-0.19701395009420278,-1.5710384197637879,9.759633955029035,0.0,0.001090830782496456,0.0,2.6875,-2.1875,-88.875
1772906193.4760008,-0.08528052620722255,1.0737378495566554,-9.082146596932073,-0.19310630582646135,-1.5704598905494398,9.759837887693697,0.0,-0.001090830782496456,0.0,2.6875,-3.0,-89.5625
1772906193.489148,-0.08528052620722255,1.0737378495566554,-9.082146596932073,-0.18872210012048093,-1.5736511637306576,9.759892116071068,0.001090830782496456,0.0,0.001090830782496456,2.6875,-3.0,-89.5625
1772906193.5319796,-0.08528052620722255,1.0737378495566554,-9.082146596932073,-0.18580446019793767,-1.5757749203839007,9.759928204450437,0.002181661564992912,0.0,0.0,2.25,-3.0,-88.875
1772906193.5623057,-0.08528052620722255,1.0737378495566554,-9.082146596932073,-0.1838628034216586,-1.570498033298079,9.759952220863775,0.001090830782496456,-0.001090830782496456,0.0,2.25,-3.0,-88.875
1772906193.5875733,-0.08528052620722255,1.0737378495566554,-9.082146596932073,-0.18591576423409162,-1.5669863238891557,9.76331331522589,0.0,-0.001090830782496456,0.001090830782496456,2.25,-3.0,-88.875
1772906193.6228144,-0.08528052620722255,1.0737378495566554,-9.082146596932073,-0.18728198672169089,-1.5713395439205204,9.765550085977992,0.002181661564992912,-0.003272492347489368,-0.001090830782496456,2.25,-3.0,-88.875
1772906193.6525686,-0.08528052620722255,1.0737378495566554,-9.082146596932073,-0.18728198672169089,-1.5713395439205204,9.765550085977992,0.002181661564992912,-0.003272492347489368,-0.001090830782496456,2.25,-3.0,-88.875
1772906193.6763155,-0.08528052620722255,1.0737378495566554,-9.082146596932073,-0.18819119252548303,-1.5742365632227397,9.76703863192715,0.001090830782496456,-0.002181661564992912,0.002181661564992912,2.25,-3.0,-88.875
1772906193.6924226,-0.08528052620722255,1.0737378495566554,-9.082146596932073,-0.18879625883141238,-1.5728193854992212,9.768029242628167,0.0,-0.001090830782496456,-0.002181661564992912,2.25,-3.0,-88.875
1772906193.7111094,-0.08528052620722255,1.0737378495566554,-9.082146596932073,-0.18879625883141238,-1.5728193854992212,9.768029242628167,0.0,-0.001090830782496456,-0.002181661564992912,2.25,-3.0,-88.875
1772906193.7424035,1.4911765138019723e-06,1.0737190757565556,-9.081988454791631,-0.1868640724739465,-1.5688110288644397,9.765343371276527,0.00108920595391074,0.0010924531944431558,-0.001090830782496456,2.00446306085025,-2.997019826041671,-88.875
1772906194.2323065,1.4911765138019723e-06,1.0737190757565556,-9.081988454791631,-0.18899214471468367,-1.567032004624143,9.773780157597331,3.247240532415603e-06,-0.002181659148353896,0.0,2.6907529536483477,-2.1834974335759347,-89.5625
1772906194.4883275,1.4911765138019723e-06,1.0737190757565556,-9.081988454791631,-0.19117825186892912,-1.5720880796009995,9.754745983292041,-3.247240532415603e-06,0.002181659148353896,0.0,2.6923344056577028,-3.245996256638597,-88.875
1772906194.5227635,1.4911765138019723e-06,1.0737190757565556,-9.081988454791631,-0.19334247706679628,-1.5748336988892975,9.753158398864747,-0.0010957004349755714,0.0032708651022646364,-0.001090830782496456,2.6923344056577028,-3.245996256638597,-88.875
1772906194.5532699,1.4911765138019723e-06,1.0737190757565556,-9.081988454791631,-0.19478274475999735,-1.5766608778550828,9.755446990870182,0.0010875823336445323,0.0021832827686201037,-0.001090830782496456,2.691311113181061,-2.558497018186286,-89.6875
1772906194.614343,1.4911765138019723e-06,1.0737190757565556,-9.081988454791631,-0.19574122682097833,-1.5778768450458864,9.75697002328455,0.0010875823336445323,0.0021832827686201037,-0.002181661564992912,2.691311113181061,-2.558497018186286,-89.6875
1772906194.666629,1.4911765138019723e-06,1.0737190757565556,-9.081988454791631,-0.19574122682097833,-1.5778768450458864,9.75697002328455,0.0010875823336445323,0.0021832827686201037,-0.002181661564992912,2.691311113181061,-2.558497018186286,-89.6875
1772906194.7255652,1.4911765138019723e-06,1.0737190757565556,-9.081988454791631,-0.19680855298369745,-1.575879471560184,9.758658097905055,-0.002180035528087688,-0.0010940768147093636,0.001090830782496456,2.00446306085025,-2.997019826041671,-90.0625
1772906194.8225985,1.4911765138019723e-06,1.0737190757565556,-9.081988454791631,-0.1937542294607698,-1.570661632932372,9.759106979145843,-1.6236202662078016e-06,0.001090829574176948,0.0,2.691311113181061,-2.558497018186286,-90.0625
1772906194.9833217,1.4911765138019723e-06,1.0737190757565556,-9.081988454791631,-0.19371403458060732,-1.5648833462870555,9.759604503048187,-3.247240532415603e-06,0.002181659148353896,-0.001090830782496456,3.7538099362437234,-2.5569155661769307,-90.5
1772906195.074407,1.4911765138019723e-06,1.0737190757565556,-9.081988454791631,-0.19503499108416902,-1.5666939213490922,9.763081912903878,-1.6236202662078016e-06,0.001090829574176948,-0.001090830782496456,3.7538099362437234,-2.5569155661769307,-90.5
1772906195.1363504,1.4911765138019723e-06,1.0737190757565556,-9.081988454791631,-0.19591407288123833,-1.567898838827429,9.762050978610308,0.0,0.0,-0.002181661564992912,2.2532534382696046,-2.184148619697434,-88.875
1772906195.1861777,1.4911765138019723e-06,1.0737190757565556,-9.081988454791631,-0.19688841568378218,-1.5692343262378052,9.763134462409145,-0.0010924531944431558,0.00108920595391074,0.0,2.6907529536483477,-2.1834974335759347,-89.25
1772906195.297338,1.4911765138019723e-06,1.0737190757565556,-9.081988454791631,-0.1971475062481715,-1.5695894499026857,9.765431061426366,0.0010924531944431558,-0.00108920595391074,-0.002181661564992912,2.6907529536483477,-2.1834974335759347,-89.25
1772906195.3746524,1.4911765138019723e-06,1.0737190757565556,-9.081988454791631,-0.19731992812454138,-1.5698257807346723,9.763614310710315,-1.6236202662078016e-06,0.001090829574176948,0.0,2.6907529536483477,-2.1834974335759347,-89.25
1772906195.4559166,1.4911765138019723e-06,1.0737190757565556,-9.081988454791631,-0.19743467295718697,-1.569983056263371,9.762405283403218,-1.6236202662078016e-06,0.001090829574176948,0.0,2.690101767526848,-1.7459979181971914,-90.0625
1772906195.5226202,1.4911765138019723e-06,1.0737190757565556,-9.081988454791631,-0.19743467295718697,-1.569983056263371,9.762405283403218,-1.6236202662078016e-06,0.001090829574176948,0.0,2.690101767526848,-1.7459979181971914,-90.0625
1772906195.539974,1.4911765138019723e-06,1.0737190757565556,-9.081988454791631,-0.19416592635960886,-1.5700827424215373,9.761600689236065,-0.001090829574176948,-1.6236202662078016e-06,-0.002181661564992912,2.690101767526848,-1.7459979181971914,-90.0625
1772906195.5558865,1.4911765138019723e-06,1.0737190757565556,-9.081988454791631,-0.19416592635960886,-1.5700827424215373,9.761600689236065,-0.001090829574176948,-1.6236202662078016e-06,-0.002181661564992912,2.690101767526848,-1.7459979181971914,-90.0625
1772906195.5789053,1.4911765138019723e-06,1.0737190757565556,-9.081988454791631,-0.19199061201321263,-1.5701490824462296,9.761065240805731,0.001090829574176948,1.6236202662078016e-06,0.0,2.252602252148105,-1.7466491043186907,-89.25
1772906195.5998762,1.4911765138019723e-06,1.0737190757565556,-9.081988454791631,-0.19199061201321263,-1.5701490824462296,9.761065240805731,0.001090829574176948,1.6236202662078016e-06,0.0,2.252602252148105,-1.7466491043186907,-89.25
1772906195.6200101,1.4911765138019723e-06,1.0737190757565556,-9.081988454791631,-0.1905429646155394,-1.5701932309915958,9.760708905856694,-0.0010924531944431558,0.00108920595391074,0.001090830782496456,2.252602252148105,-1.7466491043186907,-89.25
1772906195.6691706,1.4911765138019723e-06,1.0737190757565556,-9.081988454791631,-0.19292467944558886,-1.5702275903046652,9.760471768928632,-1.6236202662078016e-06,0.001090829574176948,0.0,1.5669635454715067,-2.99767101216317,-89.25
1772906195.7536812,1.4911765138019723e-06,1.0737190757565556,-9.081988454791631,-0.19450968405948885,-1.5702504560436943,9.760313956952,-0.0010940768147093636,0.002180035528087688,-0.001090830782496456,1.5669635454715067,-2.99767101216317,-89.25
1772906195.783482,1.4911765138019723e-06,1.0737190757565556,-9.081988454791631,-0.19556448692437764,-1.570265672937591,9.760208934844426,-0.0010940768147093636,0.002180035528087688,-0.002181661564992912,2.004835167205392,-3.2470195491152385,-89.5625
1772906195.8019993,1.4911765138019723e-06,1.0737190757565556,-9.081988454791631,-0.19291635949682126,-1.5736159286631157,9.76013904380501,0.00108920595391074,0.0010924531944431558,0.0,2.004835167205392,-3.2470195491152385,-89.5625
1772906195.8372712,1.4911765138019723e-06,1.0737190757565556,-9.081988454791631,-0.19291635949682126,-1.5736159286631157,9.76013904380501,0.00108920595391074,0.0010924531944431558,0.0,2.004835167205392,-3.2470195491152385,-89.5625
1772906195.8592505,1.4911765138019723e-06,1.0737190757565556,-9.081988454791631,-0.19115406027530416,-1.5758454864236437,9.760092532099012,0.0010875823336445323,0.0021832827686201037,-0.001090830782496456,1.1907546152069421,-2.1857300717067893,-89.5625
1772906195.898412,1.4911765138019723e-06,1.0737190757565556,-9.081988454791631,-0.1899812698295567,-1.577329232207483,9.760061579078242,-1.6236202662078016e-06,0.001090829574176948,-0.001090830782496456,1.1907546152069421,-2.1857300717067893,-89.5625
1772906195.9231503,1.4911765138019723e-06,1.0737190757565556,-9.081988454791631,-0.18920079088883945,-1.5783166484521016,9.760040980188686,0.0010957004349755714,-0.0032708651022646364,-0.001090830782496456,3.0770087555017582,-9.74543089701864,-89.25
1772906195.9405575,1.4911765138019723e-06,1.0737190757565556,-9.081988454791631,-0.18920079088883945,-1.5783166484521016,9.760040980188686,0.0010957004349755714,-0.0032708651022646364,-0.001090830782496456,3.0770087555017582,-9.74543089701864,-89.25
1772906195.9575124,1.4911765138019723e-06,1.0737190757565556,-9.081988454791631,-0.18868636982161296,-1.575628654930813,9.760027271857792,-0.0010940768147093636,0.002180035528087688,0.002181661564992912,3.0770087555017582,-9.74543089701864,-89.25
1772906195.971804,1.4911765138019723e-06,1.0737190757565556,-9.081988454791631,-0.18868636982161296,-1.575628654930813,9.760027271857792,-0.0010940768147093636,0.002180035528087688,0.002181661564992912,3.0770087555017582,-9.74543089701864,-89.25
1772906195.995017,1.4911765138019723e-06,1.0737190757565556,-9.081988454791631,-0.1883390493985338,-1.5771849332711707,9.763363260824033,-0.00108920595391074,-0.0010924531944431558,0.0,2.691311113181061,-2.558497018186286,-90.0625
1772906196.021753,1.4911765138019723e-06,1.0737190757565556,-9.081988454791631,-0.18810791153679793,-1.5782206191219106,9.762238212508308,-3.247240532415603e-06,0.002181659148353896,-0.001090830782496456,2.691311113181061,-2.558497018186286,-90.0625
1772906196.0665476,1.4911765138019723e-06,1.0737190757565556,-9.081988454791631,-0.18810791153679793,-1.5782206191219106,9.762238212508308,-3.247240532415603e-06,0.002181659148353896,-0.001090830782496456,2.691311113181061,-2.558497018186286,-90.0625
1772906196.0902488,1.4911765138019723e-06,1.0737190757565556,-9.081988454791631,-0.1878567055523083,-1.5760234282509435,9.760991249219346,-0.0010875823336445323,-0.0021832827686201037,-0.001090830782496456,2.2532534382696046,-2.184148619697434,-88.875
1772906196.11545,1.4911765138019723e-06,1.0737190757565556,-9.081988454791631,-0.1878567055523083,-1.5760234282509435,9.760991249219346,-0.0010875823336445323,-0.0021832827686201037,-0.001090830782496456,2.2532534382696046,-2.184148619697434,-88.875
1772906196.1352088,1.4911765138019723e-06,1.0737190757565556,-9.081988454791631,-0.18779687499386832,-1.5707574345019706,9.760659665282496,-0.00108920595391074,-0.0010924531944431558,0.001090830782496456,2.2532534382696046,-2.184148619697434,-88.875
1772906196.1519341,1.4911765138019723e-06,1.0737190757565556,-9.081988454791631,-0.1911021664274976,-1.5672579534363336,9.760438999876557,0.0010924531944431558,-0.00108920595391074,0.0,3.0669618839129122,-2.9954383740323154,-89.5625
1772906196.2081308,1.4911765138019723e-06,1.0737190757565556,-9.081988454791631,-0.19663695105737364,-1.5716242828320566,9.763637261221218,-0.002181659148353896,-3.247240532415603e-06,-0.001090830782496456,3.0669618839129122,-2.9954383740323154,-89.5625
1772906196.247062,1.4911765138019723e-06,1.0737190757565556,-9.081988454791631,-0.20032028840096072,-1.5745300262698154,9.76242055671185,0.0,0.0,0.002181661564992912,3.503810213170156,-2.557287672532073,-89.25
1772906196.2650566,1.4911765138019723e-06,1.0737190757565556,-9.081988454791631,-0.19942640025562383,-1.5764587871190627,9.761610853452346,0.0,0.0,0.001090830782496456,3.503810213170156,-2.557287672532073,-89.25
1772906196.2938316,1.4911765138019723e-06,1.0737190757565556,-9.081988454791631,-0.19549139862766685,-1.5743922689673466,9.761072004978125,-0.001090829574176948,-1.6236202662078016e-06,-0.001090830782496456,3.503810213170156,-2.557287672532073,-89.25
1772906196.315473,1.4911765138019723e-06,1.0737190757565556,-9.081988454791631,-0.19549139862766685,-1.5743922689673466,9.761072004978125,-0.001090829574176948,-1.6236202662078016e-06,-0.001090830782496456,3.503810213170156,-2.557287672532073,-89.25
1772906196.3378663,1.4911765138019723e-06,1.0737190757565556,-9.081988454791631,-0.19287269900110984,-1.5730170242219002,9.760713407337862,0.001090829574176948,1.6236202662078016e-06,0.0,2.2544627839238176,-2.9966477196865284,-89.25
1772906196.3524766,1.4911765138019723e-06,1.0737190757565556,-9.081988454791631,-0.1911299836524277,-1.5721018142062957,9.760474764614065,0.0,0.0,0.0,2.2544627839238176,-2.9966477196865284,-89.25
1772906196.3668964,1.4911765138019723e-06,1.0737190757565556,-9.081988454791631,-0.1911299836524277,-1.5721018142062957,9.760474764614065,0.0,0.0,0.0,2.2544627839238176,-2.9966477196865284,-89.25
1772906196.3896568,1.4911765138019723e-06,1.0737190757565556,-9.081988454791631,-0.1899702260552857,-1.5714927521644766,9.760315950547191,0.00108920595391074,0.0010924531944431558,-0.001090830782496456,2.2544627839238176,-2.9966477196865284,-89.25
1772906196.4036264,1.4911765138019723e-06,1.0737190757565556,-9.081988454791631,-0.1892033992790288,-1.567742320177395,9.760210261559758,-0.0010875823336445323,-0.0021832827686201037,-0.002181661564992912,2.6919622993025607,-2.9959965335650294,-88.5
1772906196.436221,1.4911765138019723e-06,1.0737190757565556,-9.081988454791631,-0.1886930846254462,-1.5652464495850624,9.760139926719242,6.494481064831206e-06,-0.004363318296707792,0.001090830782496456,2.6919622993025607,-2.9959965335650294,-88.5
1772906196.4532537,1.4911765138019723e-06,1.0737190757565556,-9.081988454791631,-0.1886930846254462,-1.5652464495850624,9.760139926719242,6.494481064831206e-06,-0.004363318296707792,0.001090830782496456,2.6919622993025607,-2.9959965335650294,-88.5
1772906196.4846132,1.4911765138019723e-06,1.0737190757565556,-9.081988454791631,-0.18835347592407514,-1.5635854755865666,9.756748007961253,3.247240532415603e-06,-0.002181659148353896,0.0,3.754833228720365,-3.2444148046292414,-89.25
1772906196.4998574,1.4911765138019723e-06,1.0737190757565556,-9.081988454791631,-0.1881274701269905,-1.5624801159448627,9.754490723918027,0.0021849063888863115,-0.00217841190782148,0.0,3.754833228720365,-3.2444148046292414,-89.25
1772906196.5245037,1.4911765138019723e-06,1.0737190757565556,-9.081988454791631,-0.18797706579368084,-1.5617445114509851,9.752988526602774,1.6236202662078016e-06,-0.001090829574176948,0.0,3.754833228720365,-3.2444148046292414,-89.25
1772906196.558682,1.4911765138019723e-06,1.0737190757565556,-9.081988454791631,-0.18787199444068992,-1.5646000828794702,9.755333942777435,-0.002181659148353896,-3.247240532415603e-06,0.0,3.5032520536374423,-2.1822880879217217,-88.875
1772906196.5823858,1.4911765138019723e-06,1.0737190757565556,-9.081988454791631,-0.18787199444068992,-1.5646000828794702,9.755333942777435,-0.002181659148353896,-3.247240532415603e-06,0.0,3.5032520536374423,-2.1822880879217217,-88.875
1772906196.6054344,1.4911765138019723e-06,1.0737190757565556,-9.081988454791631,-0.18780207062899837,-1.5665004337663042,9.756894791041658,1.6236202662078016e-06,-0.001090829574176948,0.0,3.5032520536374423,-2.1822880879217217,-88.875
1772906196.6278818,1.4911765138019723e-06,1.0737190757565556,-9.081988454791631,-0.18775553711341783,-1.5677650960531817,9.75793351812568,0.0,0.0,0.0,3.5032520536374423,-2.1822880879217217,-88.875
1772906196.6411977,1.4911765138019723e-06,1.0737190757565556,-9.081988454791631,-0.18772954852791224,-1.5652616066759755,9.761969891104075,-1.6236202662078016e-06,0.001090829574176948,0.0,2.691311113181061,-2.558497018186286,-88.875
1772906196.6693716,1.4911765138019723e-06,1.0737190757565556,-9.081988454791631,-0.18772954852791224,-1.5652616066759755,9.761969891104075,-1.6236202662078016e-06,0.001090829574176948,0.0,2.691311113181061,-2.558497018186286,-88.875
1772906196.6878307,1.4911765138019723e-06,1.0737190757565556,-9.081988454791631,-0.18770229551597012,-1.5702857784650934,9.764656052231956,0.001090829574176948,1.6236202662078016e-06,0.0,2.691311113181061,-2.558497018186286,-88.875
1772906196.715123,1.4911765138019723e-06,1.0737190757565556,-9.081988454791631,-0.1876990957888582,-1.563593984661315,9.769788774163494,-0.0021832827686201037,0.0010875823336445323,-0.001090830782496456,2.691311113181061,-2.558497018186286,-88.875
1772906196.7398884,1.4911765138019723e-06,1.0737190757565556,-9.081988454791631,-0.18768700850760886,-1.5658308866409754,9.773204543272671,0.0010940768147093636,-0.002180035528087688,-0.001090830782496456,3.0651013521371997,-1.7454397586644776,-90.0625
1772906196.7548733,1.4911765138019723e-06,1.0737190757565556,-9.081988454791631,-0.18767896455696123,-1.5673195199206067,9.775477699458188,-0.0010875823336445323,-0.0021832827686201037,0.0,3.0651013521371997,-1.7454397586644776,-90.0625
1772906196.7730777,1.4911765138019723e-06,1.0737190757565556,-9.081988454791631,-0.18767896455696123,-1.5673195199206067,9.775477699458188,-0.0010875823336445323,-0.0021832827686201037,0.0,3.0651013521371997,-1.7454397586644776,-90.0625
1772906196.8094468,1.4911765138019723e-06,1.0737190757565556,-9.081988454791631,-0.18767361139766203,-1.5683101887390782,9.766955124384873,3.247240532415603e-06,-0.002181659148353896,0.0,3.0651013521371997,-1.7454397586644776,-90.0625
1772906196.8392022,1.4911765138019723e-06,1.0737190757565556,-9.081988454791631,-0.18767004892994713,-1.5689694677712753,9.761283445876984,0.0,0.0,-0.001090830782496456,1.5669635454715067,-2.99767101216317,-88.0625
1772906196.863931,1.4911765138019723e-06,1.0737190757565556,-9.081988454791631,-0.18766767814747823,-1.569408210602573,9.757509007186783,-0.0010940768147093636,0.002180035528087688,0.0,1.5669635454715067,-2.99767101216317,-88.0625
1772906196.8962975,1.4911765138019723e-06,1.0737190757565556,-9.081988454791631,-0.18432099241630856,-1.5696952101064232,9.758342272109017,0.0,0.0,0.001090830782496456,1.5669635454715067,-2.99767101216317,-88.0625
1772906196.922104,1.4911765138019723e-06,1.0737190757565556,-9.081988454791631,-0.18543891844906432,-1.5698911840195409,9.755551688899265,-0.0010957004349755714,0.0032708651022646364,0.0,2.0038118747287506,-2.559520310662928,-89.6875
1772906196.9745142,1.4911765138019723e-06,1.0737190757565556,-9.081988454791631,-0.18618288573581124,-1.5700216024695484,9.757039698653351,0.0,0.0,0.0,2.0038118747287506,-2.559520310662928,-89.6875
1772906197.0152647,1.4911765138019723e-06,1.0737190757565556,-9.081988454791631,-0.1866779876544822,-1.5701083944911591,9.758029952522538,0.0,0.0,-0.001090830782496456,2.691311113181061,-2.558497018186286,-90.0625
1772906197.0870612,1.4911765138019723e-06,1.0737190757565556,-9.081988454791631,-0.1870074724507069,-1.5701661536120106,9.762034067117941,-0.0010940768147093636,0.002180035528087688,0.0,2.691311113181061,-2.558497018186286,-90.0625
1772906197.1365647,1.4911765138019723e-06,1.0737190757565556,-9.081988454791631,-0.1870074724507069,-1.5701661536120106,9.762034067117941,-0.0010940768147093636,0.002180035528087688,0.0,2.691311113181061,-2.558497018186286,-90.0625
1772906197.1679437,1.4911765138019723e-06,1.0737190757565556,-9.081988454791631,-0.1870074724507069,-1.5701661536120106,9.762034067117941,-0.0010940768147093636,0.002180035528087688,0.0,2.691311113181061,-2.558497018186286,-90.0625
1772906197.2150202,1.4911765138019723e-06,1.0737190757565556,-9.081988454791631,-0.1896037725642327,-1.5668883771876503,9.763126972725503,-0.00108920595391074,-0.0010924531944431558,0.002181661564992912,2.252602252148105,-1.7466491043186907,-90.5
1772906197.2757082,1.4911765138019723e-06,1.0737190757565556,-9.081988454791631,-0.18895952857428674,-1.5646781600645556,9.762080965418248,0.0010875823336445323,0.0021832827686201037,-0.001090830782496456,1.1919639608611552,-2.998229171695884,-88.5
1772906197.3086026,1.4911765138019723e-06,1.0737190757565556,-9.081988454791631,-0.1885258124463548,-1.566552393260799,9.758039747532617,-0.00108920595391074,-0.0010924531944431558,0.002181661564992912,1.1919639608611552,-2.998229171695884,-88.5
1772906197.3397584,1.4911765138019723e-06,1.0737190757565556,-9.081988454791631,-0.18823717920814267,-1.5677996745163425,9.76204058558773,-0.002180035528087688,-0.0010940768147093636,0.001090830782496456,1.1919639608611552,-2.998229171695884,-88.5
1772906197.3585289,1.4911765138019723e-06,1.0737190757565556,-9.081988454791631,-0.18804509701235705,-1.5686297262588622,9.761357986913799,-0.001090829574176948,-1.6236202662078016e-06,-0.003272492347489368,2.6907529536483477,-2.1834974335759347,-89.5625
1772906197.3797827,1.4911765138019723e-06,1.0737190757565556,-9.081988454791631,-0.18792224740606026,-1.5658370084193034,9.760903725121425,3.247240532415603e-06,-0.002181659148353896,0.0,2.6907529536483477,-2.1834974335759347,-89.5625
1772906197.3964822,1.4911765138019723e-06,1.0737190757565556,-9.081988454791631,-0.18449538436346977,-1.5639735069444796,9.760601418973037,0.0021849063888863115,-0.00217841190782148,-0.001090830782496456,2.6907529536483477,-2.1834974335759347,-89.5625
1772906197.4349575,1.4911765138019723e-06,1.0737190757565556,-9.081988454791631,-0.18449538436346977,-1.5639735069444796,9.760601418973037,0.0021849063888863115,-0.00217841190782148,-0.001090830782496456,2.6907529536483477,-2.1834974335759347,-89.5625
1772906197.4807563,1.4911765138019723e-06,1.0737190757565556,-9.081988454791631,-0.1840323221138749,-1.568603263555502,9.760266353657354,1.6236202662078016e-06,-0.001090829574176948,-0.002181661564992912,2.253811597802318,-2.5591482043077853,-88.5
1772906197.512011,1.4911765138019723e-06,1.0737190757565556,-9.081988454791631,-0.1840323221138749,-1.568603263555502,9.760266353657354,1.6236202662078016e-06,-0.001090829574176948,-0.002181661564992912,2.253811597802318,-2.5591482043077853,-88.5
1772906197.5492105,1.4911765138019723e-06,1.0737190757565556,-9.081988454791631,-0.18524183263815347,-1.572509613789665,9.760177255383603,0.0010924531944431558,-0.00108920595391074,0.0,1.5679868379481485,-3.685170250615481,-89.25
1772906197.599443,1.4911765138019723e-06,1.0737190757565556,-9.081988454791631,-0.186046748380943,-1.575109246233709,9.760117961477714,-0.0010859587133783244,-0.003274112342797052,0.0,1.5679868379481485,-3.685170250615481,-89.25
1772906197.6262052,1.4911765138019723e-06,1.0737190757565556,-9.081988454791631,-0.1865873897655713,-1.5734941645835032,9.753388278631064,-1.6236202662078016e-06,0.001090829574176948,0.001090830782496456,3.5044613992916553,-2.9947871879108163,-89.6875
1772906197.6500926,1.4911765138019723e-06,1.0737190757565556,-9.081988454791631,-0.1865873897655713,-1.5734941645835032,9.753388278631064,-1.6236202662078016e-06,0.001090829574176948,0.001090830782496456,3.5044613992916553,-2.9947871879108163,-89.6875
1772906197.6714194,1.4911765138019723e-06,1.0737190757565556,-9.081988454791631,-0.1869471805676814,-1.5724193457869355,9.748909749872102,0.0010924531944431558,-0.00108920595391074,0.001090830782496456,3.5044613992916553,-2.9947871879108163,-89.6875
1772906197.6954565,1.4911765138019723e-06,1.0737190757565556,-9.081988454791631,-0.18718163837805923,-1.5750491738862522,9.755964674133415,0.0010924531944431558,-0.00108920595391074,0.0,2.00446306085025,-2.997019826041671,-90.0625
1772906197.755637,1.4911765138019723e-06,1.0737190757565556,-9.081988454791631,-0.1873376674318004,-1.5767992951092429,9.76400475912797,1.6236202662078016e-06,-0.001090829574176948,0.0,2.00446306085025,-2.997019826041671,-90.0625
1772906197.7891273,1.4911765138019723e-06,1.0737190757565556,-9.081988454791631,-0.19078661102602637,-1.577968960182308,9.76935534587821,-0.002180035528087688,-0.0010940768147093636,-0.001090830782496456,3.503810213170156,-2.557287672532073,-88.875
1772906197.8321238,1.4911765138019723e-06,1.0737190757565556,-9.081988454791631,-0.19078661102602637,-1.577968960182308,9.76935534587821,-0.002180035528087688,-0.0010940768147093636,-0.001090830782496456,3.503810213170156,-2.557287672532073,-88.875
1772906197.883134,1.4911765138019723e-06,1.0737190757565556,-9.081988454791631,-0.1930868234100592,-1.575402251220498,9.769570989883208,-0.0010940768147093636,0.002180035528087688,0.001090830782496456,3.503810213170156,-2.557287672532073,-88.875
1772906197.9068656,1.4911765138019723e-06,1.0737190757565556,-9.081988454791631,-0.19461758905657708,-1.5736941350784308,9.769714498559631,0.0010875823336445323,0.0021832827686201037,0.002181661564992912,2.2548348902789597,-3.246647442760096,-90.5
1772906197.929175,1.4911765138019723e-06,1.0737190757565556,-9.081988454791631,-0.19563629649456207,-1.5725574028667928,9.763119778566056,-0.00327573596306326,0.0021767882875552724,0.0,2.2548348902789597,-3.246647442760096,-90.5
1772906197.9486775,1.4911765138019723e-06,1.0737190757565556,-9.081988454791631,-0.19631423491483332,-1.5718009202780785,9.765421289492819,-0.001090829574176948,-1.6236202662078016e-06,-0.001090830782496456,2.2548348902789597,-3.246647442760096,-90.5
1772906197.9800365,1.4911765138019723e-06,1.0737190757565556,-9.081988454791631,-0.19631423491483332,-1.5718009202780785,9.765421289492819,-0.001090829574176948,-1.6236202662078016e-06,-0.001090830782496456,2.2548348902789597,-3.246647442760096,-90.5
1772906198.0173354,1.4911765138019723e-06,1.0737190757565556,-9.081988454791631,-0.1967653953604555,-1.5712974895657534,9.766952919305018,-0.0010924531944431558,0.00108920595391074,-0.001090830782496456,2.2544627839238176,-2.9966477196865284,-89.25
1772906198.045499,1.4911765138019723e-06,1.0737190757565556,-9.081988454791631,-0.19706563759722467,-1.5709624620503908,9.767972201835612,-0.001090829574176948,-1.6236202662078016e-06,0.0,2.2544627839238176,-2.9966477196865284,-89.25
1772906198.0746984,1.4911765138019723e-06,1.0737190757565556,-9.081988454791631,-0.19706563759722467,-1.5709624620503908,9.767972201835612,-0.001090829574176948,-1.6236202662078016e-06,0.0,2.2544627839238176,-2.9966477196865284,-89.25
1772906198.1116233,1.4911765138019723e-06,1.0737190757565556,-9.081988454791631,-0.19392033744994902,-1.5707345260321195,9.76530541126627,1.6236202662078016e-06,-0.001090829574176948,-0.001090830782496456,3.0673339902680543,-3.245438097105883,-88.875
1772906198.1427822,1.4911765138019723e-06,1.0737190757565556,-9.081988454791631,-0.19852237029038167,-1.5672476870548517,9.760185580225057,-4.870860798623405e-06,0.0032724887225308442,-0.003272492347489368,3.0673339902680543,-3.245438097105883,-88.875
1772906198.1747785,1.4911765138019723e-06,1.0737190757565556,-9.081988454791631,-0.1948947557337744,-1.564917276767424,9.75677838985939,-1.6236202662078016e-06,0.001090829574176948,0.001090830782496456,2.0038118747287506,-2.559520310662928,-90.0625
1772906198.205964,1.4911765138019723e-06,1.0737190757565556,-9.081988454791631,-0.19248061876946207,-1.5633664147535296,9.761201166146487,-0.0010957004349755714,0.0032708651022646364,0.0,2.0038118747287506,-2.559520310662928,-90.0625
1772906198.2348144,1.4911765138019723e-06,1.0737190757565556,-9.081988454791631,-0.19248061876946207,-1.5633664147535296,9.761201166146487,-0.0010957004349755714,0.0032708651022646364,0.0,2.0038118747287506,-2.559520310662928,-90.0625
1772906198.2545996,1.4911765138019723e-06,1.0737190757565556,-9.081988454791631,-0.1908740375873891,-1.5623343334075466,9.7641444743599,-0.0010924531944431558,0.00108920595391074,0.0,3.5048335056467974,-3.244786910984384,-90.0625
1772906198.2700555,1.4911765138019723e-06,1.0737190757565556,-9.081988454791631,-0.1908740375873891,-1.5623343334075466,9.7641444743599,-0.0010924531944431558,0.00108920595391074,0.0,3.5048335056467974,-3.244786910984384,-90.0625
1772906198.298073,1.4911765138019723e-06,1.0737190757565556,-9.081988454791631,-0.18979989680810744,-1.564992602802819,9.762758101389702,-0.001090829574176948,-1.6236202662078016e-06,-0.001090830782496456,3.5048335056467974,-3.244786910984384,-90.0625
1772906198.3203785,1.4911765138019723e-06,1.0737190757565556,-9.081988454791631,-0.18574493906581405,-1.563411564439338,9.761835485664836,-0.0010875823336445323,-0.0021832827686201037,0.001090830782496456,3.5048335056467974,-3.244786910984384,-90.0625
1772906198.3533387,1.4911765138019723e-06,1.0737190757565556,-9.081988454791631,-0.18639151798708373,-1.562364380019097,9.76122149520623,0.0,0.0,-0.001090830782496456,3.0663106977914127,-2.5579388586535723,-89.25
1772906198.382198,1.4911765138019723e-06,1.0737190757565556,-9.081988454791631,-0.18682180903642887,-1.561667490485243,9.760812891414751,3.247240532415603e-06,-0.002181659148353896,0.0,3.0663106977914127,-2.5579388586535723,-89.25
1772906198.4042044,1.4911765138019723e-06,1.0737190757565556,-9.081988454791631,-0.18682180903642887,-1.561667490485243,9.760812891414751,3.247240532415603e-06,-0.002181659148353896,0.0,3.0663106977914127,-2.5579388586535723,-89.25
1772906198.42816,1.4911765138019723e-06,1.0737190757565556,-9.081988454791631,-0.18710816292310212,-1.5612037182852292,9.760540970155924,3.247240532415603e-06,-0.002181659148353896,0.002181661564992912,3.0663106977914127,-2.5579388586535723,-89.25
1772906198.4454868,1.4911765138019723e-06,1.0737190757565556,-9.081988454791631,-0.18729374928660086,-1.5642401910687154,9.760360009595734,-0.00108920595391074,-0.0010924531944431558,-0.002181661564992912,2.6907529536483477,-2.1834974335759347,-90.875
1772906198.4706752,1.4911765138019723e-06,1.0737190757565556,-9.081988454791631,-0.18729374928660086,-1.5642401910687154,9.760360009595734,-0.00108920595391074,-0.0010924531944431558,-0.002181661564992912,2.6907529536483477,-2.1834974335759347,-90.875
1772906198.5043478,1.4911765138019723e-06,1.0737190757565556,-9.081988454791631,-0.1874122759890739,-1.5696060377884216,9.76023958236439,-0.00108920595391074,-0.0010924531944431558,-0.001090830782496456,2.6907529536483477,-2.1834974335759347,-90.875
1772906198.5365667,1.4911765138019723e-06,1.0737190757565556,-9.081988454791631,-0.1874911541855397,-1.573176948839951,9.760159439387191,-0.0010859587133783244,-0.003274112342797052,-0.001090830782496456,3.0663106977914127,-2.5579388586535723,-88.5
1772906198.5563781,1.4911765138019723e-06,1.0737190757565556,-9.081988454791631,-0.18755360464276014,-1.5688631342512136,9.760106105131122,-0.002181659148353896,-3.247240532415603e-06,-0.001090830782496456,3.0663106977914127,-2.5579388586535723,-88.5
1772906198.5790927,1.4911765138019723e-06,1.0737190757565556,-9.081988454791631,-0.18759516472442303,-1.5659923388308752,9.76007061177949,-1.6236202662078016e-06,0.001090829574176948,0.001090830782496456,3.0663106977914127,-2.5579388586535723,-88.5
1772906198.6138947,1.4911765138019723e-06,1.0737190757565556,-9.081988454791631,-0.1876178435452133,-1.567426964549446,9.760046991350466,-1.6236202662078016e-06,0.001090829574176948,-0.001090830782496456,2.2544627839238176,-2.9966477196865284,-89.6875
1772906198.6368775,1.4911765138019723e-06,1.0737190757565556,-9.081988454791631,-0.1876178435452133,-1.567426964549446,9.760046991350466,-1.6236202662078016e-06,0.001090829574176948,-0.001090830782496456,2.2544627839238176,-2.9966477196865284,-89.6875
1772906198.6716416,1.4911765138019723e-06,1.0737190757565556,-9.081988454791631,-0.18763293604711026,-1.5683816919393356,9.763376383926126,-0.0021832827686201037,0.0010875823336445323,0.0,2.2544627839238176,-2.9966477196865284,-89.6875
1772906198.6957886,1.4911765138019723e-06,1.0737190757565556,-9.081988454791631,-0.18764297993852835,-1.5690170523523035,9.765592057493476,0.00108920595391074,0.0010924531944431558,0.0,2.0038118747287506,-2.559520310662928,-89.6875
1772906198.7388868,1.4911765138019723e-06,1.0737190757565556,-9.081988454791631,-0.1876546429853693,-1.5660947696077727,9.767066563501853,0.0010924531944431558,-0.00108920595391074,-0.001090830782496456,2.0038118747287506,-2.559520310662928,-89.6875
1772906198.7612655,1.4911765138019723e-06,1.0737190757565556,-9.081988454791631,-0.18432227556013703,-1.560799936134105,9.768047830779116,0.0010940768147093636,-0.002180035528087688,0.001090830782496456,2.0038118747287506,-2.559520310662928,-89.6875
1772906198.791804,1.4911765138019723e-06,1.0737190757565556,-9.081988454791631,-0.18544973026554812,-1.5572812625538441,9.765355741483342,0.002181659148353896,3.247240532415603e-06,-0.001090830782496456,2.691311113181061,-2.558497018186286,-87.6875
1772906198.815504,1.4911765138019723e-06,1.0737190757565556,-9.081988454791631,-0.1828499518262852,-1.5582797536449602,9.76690929783693,-0.0021849063888863115,0.00217841190782148,-0.001090830782496456,2.691311113181061,-2.558497018186286,-87.6875
1772906198.8346643,1.4911765138019723e-06,1.0737190757565556,-9.081988454791631,-0.18780506537092384,-1.562299304212741,9.764598060528563,-0.0021849063888863115,0.00217841190782148,0.0,2.691311113181061,-2.558497018186286,-87.6875
1772906198.8702168,1.4911765138019723e-06,1.0737190757565556,-9.081988454791631,-0.18780506537092384,-1.562299304212741,9.764598060528563,-0.0021849063888863115,0.00217841190782148,0.0,2.691311113181061,-2.558497018186286,-87.6875
1772906198.8942308,1.4911765138019723e-06,1.0737190757565556,-9.081988454791631,-0.18775753008071577,-1.5649692912649775,9.763059957918056,0.00108920595391074,0.0010924531944431558,-0.001090830782496456,1.5657541998172937,-2.185171912174076,-88.0625
1772906198.9234843,1.4911765138019723e-06,1.0737190757565556,-9.081988454791631,-0.18772589587608626,-1.5667461378225311,9.762036367812497,0.0,0.0,0.0,1.5657541998172937,-2.185171912174076,-88.0625
1772906198.9787438,1.4911765138019723e-06,1.0737190757565556,-9.081988454791631,-0.18769083365582678,-1.5687155309556264,9.760901857172609,4.870860798623405e-06,-0.0032724887225308442,-0.001090830782496456,3.5048335056467974,-3.244786910984384,-88.5
1772906199.0020254,1.4911765138019723e-06,1.0737190757565556,-9.081988454791631,-0.18768151015037052,-1.5692392184884187,9.763945287581286,1.6236202662078016e-06,-0.001090829574176948,0.0,3.5048335056467974,-3.244786910984384,-88.5
1772906199.0174322,1.4911765138019723e-06,1.0737190757565556,-9.081988454791631,-0.18768151015037052,-1.5692392184884187,9.763945287581286,1.6236202662078016e-06,-0.001090829574176948,0.0,3.5048335056467974,-3.244786910984384,-88.5
1772906199.0504827,1.4911765138019723e-06,1.0737190757565556,-9.081988454791631,-0.19436552146547975,-1.5695976845901185,9.762625544813597,-1.6236202662078016e-06,0.001090829574176948,-0.001090830782496456,3.5032520536374423,-2.1822880879217217,-89.6875
1772906199.071755,1.4911765138019723e-06,1.0737190757565556,-9.081988454791631,-0.19880867738108643,-1.5731813477783911,9.765092382451511,-0.0010875823336445323,-0.0021832827686201037,0.001090830782496456,3.5032520536374423,-2.1822880879217217,-89.6875
1772906199.0892181,1.4911765138019723e-06,1.0737190757565556,-9.081988454791631,-0.195075332005779,-1.575556277699446,9.760043811928522,1.6236202662078016e-06,-0.001090829574176948,0.0,3.5032520536374423,-2.1822880879217217,-89.6875
1772906199.1027536,1.4911765138019723e-06,1.0737190757565556,-9.081988454791631,-0.195075332005779,-1.575556277699446,9.760043811928522,1.6236202662078016e-06,-0.001090829574176948,0.0,3.5032520536374423,-2.1822880879217217,-89.6875
1772906199.1210122,1.4911765138019723e-06,1.0737190757565556,-9.081988454791631,-0.1892507033100922,-1.5737866800809828,9.76002915634902,-0.00108920595391074,-0.0010924531944431558,-0.002181661564992912,3.0663106977914127,-2.5579388586535723,-88.875
1772906199.154657,1.4911765138019723e-06,1.0737190757565556,-9.081988454791631,-0.18871958598039842,-1.572614011582896,9.760019403224575,0.0,0.0,-0.002181661564992912,3.0663106977914127,-2.5579388586535723,-88.875
1772906199.1781244,1.4911765138019723e-06,1.0737190757565556,-9.081988454791631,-0.18871958598039842,-1.572614011582896,9.760019403224575,0.0,0.0,-0.002181661564992912,3.0663106977914127,-2.5579388586535723,-88.875
1772906199.193543,1.4911765138019723e-06,1.0737190757565556,-9.081988454791631,-0.1883661333304565,-1.5718336137969846,9.760012912629206,-0.0010875823336445323,-0.0021832827686201037,0.0,2.690101767526848,-1.7459979181971914,-90.5
1772906199.2235737,1.4911765138019723e-06,1.0737190757565556,-9.081988454791631,-0.18812593559094512,-1.574659375789995,9.760008593210493,1.6236202662078016e-06,-0.001090829574176948,-0.001090830782496456,2.690101767526848,-1.7459979181971914,-90.5
1772906199.2486486,1.4911765138019723e-06,1.0737190757565556,-9.081988454791631,-0.18812593559094512,-1.574659375789995,9.760008593210493,1.6236202662078016e-06,-0.001090829574176948,-0.001090830782496456,2.690101767526848,-1.7459979181971914,-90.5
1772906199.2930899,1.4911765138019723e-06,1.0737190757565556,-9.081988454791631,-0.18796608667848488,-1.5765398888305138,9.773386165514868,-0.00108920595391074,-0.0010924531944431558,0.0,2.0038118747287506,-2.559520310662928,-89.25
1772906199.3196638,1.4911765138019723e-06,1.0737190757565556,-9.081988454791631,-0.1878646879621718,-1.5744462412503517,9.782288790446156,0.0010940768147093636,-0.002180035528087688,0.002181661564992912,2.0038118747287506,-2.559520310662928,-89.25
1772906199.3560615,1.4911765138019723e-06,1.0737190757565556,-9.081988454791631,-0.18779720824916327,-1.57305294217333,9.781523164474452,0.0010924531944431558,-0.00108920595391074,0.001090830782496456,3.5022287611608003,-1.4947888494694108,-89.6875
1772906199.369563,1.4911765138019723e-06,1.0737190757565556,-9.081988454791631,-0.18779720824916327,-1.57305294217333,9.781523164474452,0.0010924531944431558,-0.00108920595391074,0.001090830782496456,3.5022287611608003,-1.4947888494694108,-89.6875
1772906199.385041,1.4911765138019723e-06,1.0737190757565556,-9.081988454791631,-0.1877523012539539,-1.5721257172017424,9.777668537235567,0.001090829574176948,1.6236202662078016e-06,-0.001090830782496456,3.5022287611608003,-1.4947888494694108,-89.6875
1772906199.4206727,1.4911765138019723e-06,1.0737190757565556,-9.081988454791631,-0.18772241615028606,-1.5715086593409326,9.775103325867095,0.001090829574176948,1.6236202662078016e-06,0.0,1.5669635454715067,-2.99767101216317,-89.25
1772906199.4575422,1.4911765138019723e-06,1.0737190757565556,-9.081988454791631,-0.18770252794763362,-1.5710980142275515,9.773396206356667,0.0,0.0,0.001090830782496456,1.5669635454715067,-2.99767101216317,-89.25
1772906199.4864118,1.4911765138019723e-06,1.0737190757565556,-9.081988454791631,-0.18768929257093417,-1.570824734491803,9.772260137392252,0.0,0.0,-0.001090830782496456,2.691311113181061,-2.558497018186286,-89.6875
1772906199.5168571,1.4911765138019723e-06,1.0737190757565556,-9.081988454791631,-0.18768048457558958,-1.570642869880397,9.768158984479834,-1.6236202662078016e-06,0.001090829574176948,-0.001090830782496456,2.691311113181061,-2.558497018186286,-89.6875
1772906199.5306172,1.4911765138019723e-06,1.0737190757565556,-9.081988454791631,-0.1876746229530795,-1.570521841013067,9.765429713029501,1.6236202662078016e-06,-0.001090829574176948,0.004363323129985824,2.691311113181061,-2.558497018186286,-89.6875
1772906199.5462894,1.4911765138019723e-06,1.0737190757565556,-9.081988454791631,-0.1876746229530795,-1.570521841013067,9.765429713029501,1.6236202662078016e-06,-0.001090829574176948,0.004363323129985824,2.691311113181061,-2.558497018186286,-89.6875
1772906199.5660431,1.4911765138019723e-06,1.0737190757565556,-9.081988454791631,-0.1876707221087776,-1.57044129765384,9.763613413367265,0.0010957004349755714,-0.0032708651022646364,0.001090830782496456,2.00446306085025,-2.997019826041671,-90.5
1772906199.6088402,1.4911765138019723e-06,1.0737190757565556,-9.081988454791631,-0.18766812614047,-1.5703876969480026,9.762404686231443,0.00217841190782148,0.0021849063888863115,-0.002181661564992912,2.00446306085025,-2.997019826041671,-90.5
1772906199.6434906,1.4911765138019723e-06,1.0737190757565556,-9.081988454791631,-0.19101150655448015,-1.5703570052263267,9.76160029182492,0.001090829574176948,1.6236202662078016e-06,-0.001090830782496456,2.691311113181061,-2.558497018186286,-88.875
1772906199.6644106,1.4911765138019723e-06,1.0737190757565556,-9.081988454791631,-0.19323648887199754,-1.5703365802284006,9.761064976333053,0.0010875823336445323,0.0021832827686201037,-0.001090830782496456,2.691311113181061,-2.558497018186286,-88.875
1772906199.690565,1.4911765138019723e-06,1.0737190757565556,-9.081988454791631,-0.19471718974962432,-1.570322987620443,9.760708729853082,0.0010924531944431558,-0.00108920595391074,-0.002181661564992912,2.691311113181061,-2.558497018186286,-88.875
1772906199.7210376,1.4911765138019723e-06,1.0737190757565556,-9.081988454791631,-0.19235249269195254,-1.5736540709443065,9.760471651800195,0.001090829574176948,1.6236202662078016e-06,0.0,2.6923344056577028,-3.245996256638597,-89.25
1772906199.7548006,1.4911765138019723e-06,1.0737190757565556,-9.081988454791631,-0.1907788132154689,-1.575870869685699,9.760313879004334,0.0,0.0,-0.001090830782496456,2.6923344056577028,-3.245996256638597,-89.25
1772906199.7811844,1.4911765138019723e-06,1.0737190757565556,-9.081988454791631,-0.1897365260523205,-1.574001016482911,9.760208882971126,0.00108920595391074,0.0010924531944431558,0.0,2.6923344056577028,-3.245996256638597,-89.25
1772906199.7949862,1.4911765138019723e-06,1.0737190757565556,-9.081988454791631,-0.1897365260523205,-1.574001016482911,9.760208882971126,0.00108920595391074,0.0010924531944431558,0.0,2.6923344056577028,-3.245996256638597,-89.25
1772906199.8243866,1.4911765138019723e-06,1.0737190757565556,-9.081988454791631,-0.18904787453765554,-1.5694115420621648,9.763484120991228,0.0010875823336445323,0.0021832827686201037,0.0,3.5044613992916553,-2.9947871879108163,-89.25
1772906199.8519282,1.4911765138019723e-06,1.0737190757565556,-9.081988454791631,-0.18858958464738745,-1.5663572981029465,9.76231864359948,0.001090829574176948,1.6236202662078016e-06,-0.002181661564992912,3.5044613992916553,-2.9947871879108163,-89.25
1772906199.8760152,1.4911765138019723e-06,1.0737190757565556,-9.081988454791631,-0.18858958464738745,-1.5663572981029465,9.76231864359948,0.001090829574176948,1.6236202662078016e-06,-0.002181661564992912,3.5044613992916553,-2.9947871879108163,-89.25
1772906199.932603,1.4911765138019723e-06,1.0737190757565556,-9.081988454791631,-0.1880816325346831,-1.562972083406432,9.754336646754926,-0.0010924531944431558,0.00108920595391074,0.0,2.2544627839238176,-2.9966477196865284,-90.875
1772906199.9728696,1.4911765138019723e-06,1.0737190757565556,-9.081988454791631,-0.18794656138803972,-1.562071910301023,9.749540878264565,1.6236202662078016e-06,-0.001090829574176948,-0.001090830782496456,3.0669618839129122,-2.9954383740323154,-89.6875
1772906200.0078216,1.4911765138019723e-06,1.0737190757565556,-9.081988454791631,-0.18794656138803972,-1.562071910301023,9.749540878264565,1.6236202662078016e-06,-0.001090829574176948,-0.001090830782496456,3.0669618839129122,-2.9954383740323154,-89.6875
1772906200.0338998,1.4911765138019723e-06,1.0737190757565556,-9.081988454791631,-0.1878566730487921,-1.5614728551549657,9.746349347906474,0.0,0.0,0.0,3.0669618839129122,-2.9954383740323154,-89.6875
1772906200.048972,1.4911765138019723e-06,1.0737190757565556,-9.081988454791631,-0.1878566730487921,-1.5614728551549657,9.746349347906474,0.0,0.0,0.0,3.0669618839129122,-2.9954383740323154,-89.6875
1772906200.0699587,1.4911765138019723e-06,1.0737190757565556,-9.081988454791631,-0.18779685336314136,-1.561074190647149,9.750915643519534,-0.0010924531944431558,0.00108920595391074,0.0,3.0673339902680543,-3.245438097105883,-90.0625
1772906200.0851831,1.4911765138019723e-06,1.0737190757565556,-9.081988454791631,-0.18775704403057047,-1.5608088838705714,9.7606446856558,-0.0010924531944431558,0.00108920595391074,0.0,3.0673339902680543,-3.245438097105883,-90.0625
1772906200.0989168,1.4911765138019723e-06,1.0737190757565556,-9.081988454791631,-0.18775704403057047,-1.5608088838705714,9.7606446856558,-0.0010924531944431558,0.00108920595391074,0.0,3.0673339902680543,-3.245438097105883,-90.0625
1772906200.1233253,1.4911765138019723e-06,1.0737190757565556,-9.081988454791631,-0.18772557241514412,-1.5639774331763496,9.767119254516963,-0.0010924531944431558,0.00108920595391074,-0.002181661564992912,3.0673339902680543,-3.245438097105883,-90.0625
1772906200.1874473,1.4911765138019723e-06,1.0737190757565556,-9.081988454791631,-0.18770462840663885,-1.5660860673443302,9.768082896061074,3.247240532415603e-06,-0.002181659148353896,0.0,2.691311113181061,-2.558497018186286,-89.25
1772906200.2158012,1.4911765138019723e-06,1.0737190757565556,-9.081988454791631,-0.1876906904029385,-1.5674893398281342,9.76537907703678,0.0,0.0,0.0,2.691311113181061,-2.558497018186286,-89.25
1772906200.2789004,1.4911765138019723e-06,1.0737190757565556,-9.081988454791631,-0.1876906904029385,-1.5674893398281342,9.76537907703678,0.0,0.0,0.0,2.691311113181061,-2.558497018186286,-89.25
1772906200.3006325,1.4911765138019723e-06,1.0737190757565556,-9.081988454791631,-0.1910265228190936,-1.568428180939825,9.76357971567975,1.6236202662078016e-06,-0.001090829574176948,0.002181661564992912,2.252602252148105,-1.7466491043186907,-90.0625
1772906200.3317664,1.4911765138019723e-06,1.0737190757565556,-9.081988454791631,-0.19324648202835512,-1.5690529692121127,9.76238226079683,3.247240532415603e-06,-0.002181659148353896,0.001090830782496456,2.252602252148105,-1.7466491043186907,-90.0625
1772906200.3559268,1.4911765138019723e-06,1.0737190757565556,-9.081988454791631,-0.19324648202835512,-1.5690529692121127,9.76238226079683,3.247240532415603e-06,-0.002181659148353896,0.001090830782496456,2.252602252148105,-1.7466491043186907,-90.0625
1772906200.4111662,1.4911765138019723e-06,1.0737190757565556,-9.081988454791631,-0.19570700536611038,-1.5697454621726619,9.766626290841328,-0.0021865300091525194,0.0032692414819984286,-0.003272492347489368,2.2544627839238176,-2.9966477196865284,-88.875
1772906200.4313328,1.4911765138019723e-06,1.0737190757565556,-9.081988454791631,-0.19570700536611038,-1.5697454621726619,9.766626290841328,-0.0021865300091525194,0.0032692414819984286,-0.003272492347489368,2.2544627839238176,-2.9966477196865284,-88.875
1772906200.4962475,1.4911765138019723e-06,1.0737190757565556,-9.081988454791631,-0.19679173162964503,-1.5733972582589346,9.762934621086805,-0.0010924531944431558,0.00108920595391074,0.0,2.6919622993025607,-2.9959965335650294,-89.25
1772906200.5532284,1.4911765138019723e-06,1.0737190757565556,-9.081988454791631,-0.19679173162964503,-1.5733972582589346,9.762934621086805,-0.0010924531944431558,0.00108920595391074,0.0,2.6919622993025607,-2.9959965335650294,-89.25
1772906200.6216571,1.4911765138019723e-06,1.0737190757565556,-9.081988454791631,-0.1905786007488633,-1.5772307229545661,9.770216029323008,-4.870860798623405e-06,0.0032724887225308442,0.0,2.0038118747287506,-2.559520310662928,-89.6875
1772906200.677762,1.4911765138019723e-06,1.0737190757565556,-9.081988454791631,-0.18625817889039425,-1.5749010046934862,9.770143765101256,3.247240532415603e-06,-0.002181659148353896,0.001090830782496456,2.6907529536483477,-2.1834974335759347,-89.6875
1772906200.7178679,1.4911765138019723e-06,1.0737190757565556,-9.081988454791631,-0.18672809440777757,-1.5733555821646954,9.766750562361604,0.00108920595391074,0.0010924531944431558,-0.002181661564992912,2.6907529536483477,-2.1834974335759347,-89.6875
1772906200.802073,1.4911765138019723e-06,1.0737190757565556,-9.081988454791631,-0.18672809440777757,-1.5733555821646954,9.766750562361604,0.00108920595391074,0.0010924531944431558,-0.002181661564992912,2.6907529536483477,-2.1834974335759347,-89.6875
1772906200.8473868,1.4911765138019723e-06,1.0737190757565556,-9.081988454791631,-0.1870408179352958,-1.5723271207352858,9.764492423842926,-0.0010957004349755714,0.0032708651022646364,0.001090830782496456,2.690101767526848,-1.7459979181971914,-89.25
1772906200.9004004,1.4911765138019723e-06,1.0737190757565556,-9.081988454791631,-0.18725391089880836,-1.5682975831407608,9.762989657883805,-0.0010940768147093636,0.002180035528087688,0.0,2.690101767526848,-1.7459979181971914,-89.25
1772906200.948058,1.4911765138019723e-06,1.0737190757565556,-9.081988454791631,-0.18725391089880836,-1.5682975831407608,9.762989657883805,-0.0010940768147093636,0.002180035528087688,0.0,2.690101767526848,-1.7459979181971914,-89.25
1772906201.0224617,1.4911765138019723e-06,1.0737190757565556,-9.081988454791631,-0.1873957218856216,-1.5656159708844888,9.761989583925006,-0.00217841190782148,-0.0021849063888863115,0.0,1.191312774739656,-2.560729656317141,-90.0625
1772906201.1028335,1.4911765138019723e-06,1.0737190757565556,-9.081988454791631,-0.18748013761461363,-1.5705216038873513,9.761324045876982,-0.001097324055241779,0.004361694676441584,0.0,1.191312774739656,-2.560729656317141,-90.0625
1772906201.1600063,1.4911765138019723e-06,1.0737190757565556,-9.081988454791631,-0.18753631533927237,-1.573786247851245,9.76088113774057,-0.0010924531944431558,0.00108920595391074,0.0,2.00446306085025,-2.997019826041671,-89.25
1772906201.1863682,1.4911765138019723e-06,1.0737190757565556,-9.081988454791631,-0.18753631533927237,-1.573786247851245,9.76088113774057,-0.0010924531944431558,0.00108920595391074,0.0,2.00446306085025,-2.997019826041671,-89.25
1772906201.2330189,1.4911765138019723e-06,1.0737190757565556,-9.081988454791631,-0.18757370098748644,-1.5759588319407536,9.757241275616076,1.6236202662078016e-06,-0.001090829574176948,0.001090830782496456,2.00446306085025,-2.997019826041671,-89.25
1772906201.2494419,1.4911765138019723e-06,1.0737190757565556,-9.081988454791631,-0.18757370098748644,-1.5759588319407536,9.757241275616076,1.6236202662078016e-06,-0.001090829574176948,0.001090830782496456,2.00446306085025,-2.997019826041671,-89.25
1772906201.2712562,1.4911765138019723e-06,1.0737190757565556,-9.081988454791631,-0.1876085386173475,-1.5707144463791272,9.758164099739469,-0.00108920595391074,-0.0010924531944431558,0.001090830782496456,3.754461122365223,-2.994415081555674,-89.6875
1772906201.291974,1.4911765138019723e-06,1.0737190757565556,-9.081988454791631,-0.1876317226708582,-1.5672243663714902,9.762123340592286,-0.0010940768147093636,0.002180035528087688,-0.001090830782496456,3.754461122365223,-2.994415081555674,-89.6875
1772906201.3127222,1.4911765138019723e-06,1.0737190757565556,-9.081988454791631,-0.18764715139948673,-1.564901757113156,9.764758171152216,-0.001090829574176948,-1.6236202662078016e-06,0.001090830782496456,3.754461122365223,-2.994415081555674,-89.6875
1772906201.3522568,1.4911765138019723e-06,1.0737190757565556,-9.081988454791631,-0.18764715139948673,-1.564901757113156,9.764758171152216,-0.001090829574176948,-1.6236202662078016e-06,0.001090830782496456,3.754461122365223,-2.994415081555674,-89.6875
1772906201.3866713,1.4911765138019723e-06,1.0737190757565556,-9.081988454791631,-0.18765244009673904,-1.5667011945989,9.766511621456864,3.247240532415603e-06,-0.002181659148353896,-0.001090830782496456,3.0669618839129122,-2.9954383740323154,-89.25
1772906201.4025009,1.4911765138019723e-06,1.0737190757565556,-9.081988454791631,-0.18765595966568177,-1.567898700144629,9.767678523047284,0.0,0.0,0.0,3.0669618839129122,-2.9954383740323154,-89.25
1772906201.4711032,1.4911765138019723e-06,1.0737190757565556,-9.081988454791631,-0.187658301899497,-1.5686956267082979,9.768455083020564,-1.6236202662078016e-06,0.001090829574176948,-0.001090830782496456,2.2548348902789597,-3.246647442760096,-88.5
1772906201.5065463,1.4911765138019723e-06,1.0737190757565556,-9.081988454791631,-0.19435007663377657,-1.5692359303327663,9.768971875008038,1.6236202662078016e-06,-0.001090829574176948,0.001090830782496456,2.2548348902789597,-3.246647442760096,-88.5
1772906201.5543425,0.0010707295308617784,-1.067009801768794,9.024749629284559,-0.19880337796741787,-1.5695954963592629,9.769315794302758,1.6236202662078016e-06,-0.001090829574176948,0.002181661564992912,3.0669618839129122,-2.9954383740323154,-89.25
1772906201.5978477,1.4911765138019723e-06,1.0737190757565556,-9.081988454791631,-0.2017670002583207,-1.5698347835332809,9.772889780458883,-0.0010875823336445323,-0.0021832827686201037,0.001090830782496456,3.0669618839129122,-2.9954383740323154,-89.25
1772906201.652465,1.4911765138019723e-06,1.0737190757565556,-9.081988454791631,-0.20373427883778653,-1.5733391344764969,9.771923116614424,-1.6236202662078016e-06,0.001090829574176948,-0.001090830782496456,2.0038118747287506,-2.559520310662928,-89.25
1772906201.6821396,1.4911765138019723e-06,1.0737190757565556,-9.081988454791631,-0.20505343865507902,-1.5689810248792022,9.771279812624279,-0.00108920595391074,-0.0010924531944431558,-0.002181661564992912,2.0038118747287506,-2.559520310662928,-89.25
1772906201.7284038,1.4911765138019723e-06,1.0737190757565556,-9.081988454791631,-0.20259119572488632,-1.5627306646742567,9.767506589297694,-1.6236202662078016e-06,0.001090829574176948,0.0,2.2532534382696046,-2.184148619697434,-88.875
1772906201.774192,1.4911765138019723e-06,1.0737190757565556,-9.081988454791631,-0.19760749255797883,-1.558566140829664,9.76499555132352,-0.001090829574176948,-1.6236202662078016e-06,0.002181661564992912,2.2532534382696046,-2.184148619697434,-88.875
1772906201.8090591,1.4911765138019723e-06,1.0737190757565556,-9.081988454791631,-0.197636001773934,-1.5557996756811672,9.766669595309157,-3.247240532415603e-06,0.002181659148353896,0.0,2.00446306085025,-2.997019826041671,-89.6875
1772906201.8831003,1.4911765138019723e-06,1.0737190757565556,-9.081988454791631,-0.1943048873874636,-1.5572987530809033,9.767783652881302,0.0010924531944431558,-0.00108920595391074,-0.002181661564992912,1.1919639608611552,-2.998229171695884,-89.0
1772906201.96052,1.4911765138019723e-06,1.0737190757565556,-9.081988454791631,-0.1920880679742534,-1.5582963723446357,9.765179934043406,-1.6236202662078016e-06,0.001090829574176948,0.001090830782496456,1.1919639608611552,-2.998229171695884,-89.0
1772906201.990165,1.4911765138019723e-06,1.0737190757565556,-9.081988454791631,-0.19061279941825743,-1.5589602768205124,9.763447188242232,0.00108920595391074,0.0010924531944431558,-0.001090830782496456,3.0663106977914127,-2.5579388586535723,-89.6875
1772906202.0346267,1.4911765138019723e-06,1.0737190757565556,-9.081988454791631,-0.19061279941825743,-1.5589602768205124,9.763447188242232,0.00108920595391074,0.0010924531944431558,-0.001090830782496456,3.0663106977914127,-2.5579388586535723,-89.6875
1772906202.062949,1.4911765138019723e-06,1.0737190757565556,-9.081988454791631,-0.1889693721645182,-1.5652673647910882,9.761526674809193,-1.6236202662078016e-06,0.001090829574176948,0.0,3.505484691768297,-3.682286426363127,-90.0625
1772906202.0985274,1.4911765138019723e-06,1.0737190757565556,-9.081988454791631,-0.1889693721645182,-1.5652673647910882,9.761526674809193,-1.6236202662078016e-06,0.001090829574176948,0.0,3.505484691768297,-3.682286426363127,-90.0625
1772906202.1237543,1.4911765138019723e-06,1.0737190757565556,-9.081988454791631,-0.18853734219499355,-1.5635993944225386,9.764361096738762,0.0,0.0,-0.001090830782496456,3.505484691768297,-3.682286426363127,-90.0625
1772906202.1685865,1.4911765138019723e-06,1.0737190757565556,-9.081988454791631,-0.18853734219499355,-1.5635993944225386,9.764361096738762,0.0,0.0,-0.001090830782496456,3.505484691768297,-3.682286426363127,-90.0625
1772906202.2165067,1.4911765138019723e-06,1.0737190757565556,-9.081988454791631,-0.19159493907828587,-1.5624943577240182,9.762902261163003,-3.247240532415603e-06,0.002181659148353896,-0.001090830782496456,3.0669618839129122,-2.9954383740323154,-87.6875
1772906202.2499046,1.4911765138019723e-06,1.0737190757565556,-9.081988454791631,-0.1936297356485217,-1.561758968145222,9.761931422383597,0.0,0.0,0.0,3.0669618839129122,-2.9954383740323154,-87.6875
1772906202.2741053,1.4911765138019723e-06,1.0737190757565556,-9.081988454791631,-0.1936297356485217,-1.561758968145222,9.761931422383597,0.0,0.0,0.0,3.0669618839129122,-2.9954383740323154,-87.6875
1772906202.3175588,1.4911765138019723e-06,1.0737190757565556,-9.081988454791631,-0.19588503134393911,-1.5609438886548324,9.760855379425708,0.0010875823336445323,0.0021832827686201037,-0.002181661564992912,2.003253715196037,-2.1845207260525763,-88.0625
1772906202.3662043,1.4911765138019723e-06,1.0737190757565556,-9.081988454791631,-0.1931396361259233,-1.560722169350253,9.760569245452594,1.6236202662078016e-06,-0.001090829574176948,0.0,2.252602252148105,-1.7466491043186907,-89.6875
1772906202.3964598,1.4911765138019723e-06,1.0737190757565556,-9.081988454791631,-0.1931396361259233,-1.560722169350253,9.760569245452594,1.6236202662078016e-06,-0.001090829574176948,0.0,2.252602252148105,-1.7466491043186907,-89.6875
1772906202.4658737,1.4911765138019723e-06,1.0737190757565556,-9.081988454791631,-0.19231789137948907,-1.5638248450451975,9.76694232821184,-0.002181659148353896,-3.247240532415603e-06,-0.001090830782496456,2.253811597802318,-2.5591482043077853,-89.25
1772906202.5435739,1.4911765138019723e-06,1.0737190757565556,-9.081988454791631,-0.19076076537784628,-1.5659845216475696,9.764620041874092,-0.001090829574176948,-1.6236202662078016e-06,-0.002181661564992912,2.253811597802318,-2.5591482043077853,-89.25
1772906202.5777082,1.4911765138019723e-06,1.0737190757565556,-9.081988454791631,-0.19076076537784628,-1.5659845216475696,9.764620041874092,-0.001090829574176948,-1.6236202662078016e-06,-0.002181661564992912,2.253811597802318,-2.5591482043077853,-89.25
1772906202.6035154,1.4911765138019723e-06,1.0737190757565556,-9.081988454791631,-0.18972451541799018,-1.5674217623012798,9.76641969796528,-0.002181659148353896,-3.247240532415603e-06,-0.002181661564992912,3.0663106977914127,-2.5579388586535723,-90.0625
1772906202.6549428,1.4911765138019723e-06,1.0737190757565556,-9.081988454791631,-0.18972451541799018,-1.5674217623012798,9.76641969796528,-3.247240532415603e-06,0.002181659148353896,0.001090830782496456,3.0663106977914127,-2.5579388586535723,-90.0625
1772906202.6854937,1.4911765138019723e-06,1.0737190757565556,-9.081988454791631,-0.18903490264537648,-1.5683782299012938,9.764272237283167,-0.0010924531944431558,0.00108920595391074,0.001090830782496456,3.5032520536374423,-2.1822880879217217,-90.0625
1772906202.713072,1.4911765138019723e-06,1.0737190757565556,-9.081988454791631,-0.18903490264537648,-1.5683782299012938,9.764272237283167,-0.0010924531944431558,0.00108920595391074,0.001090830782496456,3.5032520536374423,-2.1822880879217217,-90.0625
1772906202.732789,1.4911765138019723e-06,1.0737190757565556,-9.081988454791631,-0.19192605999990128,-1.5656746193520399,9.76284312618793,0.0,0.0,0.0,3.5032520536374423,-2.1822880879217217,-90.0625
1772906202.7646756,1.4911765138019723e-06,1.0737190757565556,-9.081988454791631,-0.19050498492107373,-1.56387041778352,9.761892068718266,-0.002180035528087688,-0.0010940768147093636,0.001090830782496456,2.6907529536483477,-2.1834974335759347,-88.875
1772906202.792897,1.4911765138019723e-06,1.0737190757565556,-9.081988454791631,-0.19050498492107373,-1.56387041778352,9.761892068718266,-0.002180035528087688,-0.0010940768147093636,0.001090830782496456,2.6907529536483477,-2.1834974335759347,-88.875
1772906202.8288555,1.4911765138019723e-06,1.0737190757565556,-9.081988454791631,-0.18955429638126298,-1.5660148497958426,9.761259150596214,0.0,0.0,0.001090830782496456,2.6907529536483477,-2.1834974335759347,-88.875
1772906202.8632722,1.4911765138019723e-06,1.0737190757565556,-9.081988454791631,-0.18892162377790572,-1.5674419453451678,9.760837950656146,0.002181659148353896,3.247240532415603e-06,-0.003272492347489368,2.6919622993025607,-2.9959965335650294,-90.5
1772906202.8857844,1.4911765138019723e-06,1.0737190757565556,-9.081988454791631,-0.18850058722778754,-1.5683916614915419,9.760557646801143,0.0,0.0,-0.002181661564992912,2.6919622993025607,-2.9959965335650294,-90.5
1772906202.9031968,1.4911765138019723e-06,1.0737190757565556,-9.081988454791631,-0.18850058722778754,-1.5683916614915419,9.760557646801143,0.0,0.0,-0.002181661564992912,2.6919622993025607,-2.9959965335650294,-90.5
1772906202.9200788,1.4911765138019723e-06,1.0737190757565556,-9.081988454791631,-0.1915655001088903,-1.5690286659272292,9.760371107716837,0.0,0.0,0.0,3.0663106977914127,-2.5579388586535723,-89.6875
1772906202.9477432,1.4911765138019723e-06,1.0737190757565556,-9.081988454791631,-0.193605165393944,-1.5694525852633736,9.760246968040011,0.0010859587133783244,0.003274112342797052,-0.001090830782496456,3.0663106977914127,-2.5579388586535723,-89.6875
1772906202.968725,1.4911765138019723e-06,1.0737190757565556,-9.081988454791631,-0.19495756090729327,-1.5730798068480083,9.760164354471813,0.0010924531944431558,-0.00108920595391074,0.0,3.065752538258699,-2.1829392740432207,-89.6875
1772906202.9968584,1.4911765138019723e-06,1.0737190757565556,-9.081988454791631,-0.19495756090729327,-1.5730798068480083,9.760164354471813,0.0010924531944431558,-0.00108920595391074,0.0,3.065752538258699,-2.1829392740432207,-89.6875
1772906203.017257,1.4911765138019723e-06,1.0737190757565556,-9.081988454791631,-0.19251245701225947,-1.5754887033445628,9.753419152650393,-1.6236202662078016e-06,0.001090829574176948,-0.003272492347489368,3.065752538258699,-2.1829392740432207,-89.6875
1772906203.042563,1.4911765138019723e-06,1.0737190757565556,-9.081988454791631,-0.19251245701225947,-1.5754887033445628,9.753419152650393,-1.6236202662078016e-06,0.001090829574176948,-0.003272492347489368,3.065752538258699,-2.1829392740432207,-89.6875
1772906203.0746424,1.4911765138019723e-06,1.0737190757565556,-9.081988454791631,-0.1898073703117637,-1.574813530007785,9.752633235769196,0.001090829574176948,1.6236202662078016e-06,0.0,2.691311113181061,-2.558497018186286,-89.25
1772906203.1050255,1.4911765138019723e-06,1.0737190757565556,-9.081988454791631,-0.19243514965355288,-1.5733023476878174,9.755097500696548,0.00108920595391074,0.0010924531944431558,-0.002181661564992912,2.691311113181061,-2.558497018186286,-89.25
1772906203.1365795,1.4911765138019723e-06,1.0737190757565556,-9.081988454791631,-0.19083879944937504,-1.5722916937855917,9.753392329770739,1.6236202662078016e-06,-0.001090829574176948,0.001090830782496456,2.0038118747287506,-2.559520310662928,-89.5625
1772906203.1569924,1.4911765138019723e-06,1.0737190757565556,-9.081988454791631,-0.19083879944937504,-1.5722916937855917,9.753392329770739,1.6236202662078016e-06,-0.001090829574176948,0.001090830782496456,2.0038118747287506,-2.559520310662928,-89.5625
1772906203.171268,1.4911765138019723e-06,1.0737190757565556,-9.081988454791631,-0.18977146727159502,-1.5749642229053242,9.75225755756762,-0.00217841190782148,-0.0021849063888863115,-0.001090830782496456,2.0038118747287506,-2.559520310662928,-89.5625
1772906203.1944935,1.4911765138019723e-06,1.0737190757565556,-9.081988454791631,-0.18907112752876373,-1.5700525451765601,9.75484749105,-3.247240532415603e-06,0.002181659148353896,-0.001090830782496456,2.0038118747287506,-2.559520310662928,-89.5625
1772906203.2116535,1.4911765138019723e-06,1.0737190757565556,-9.081988454791631,-0.18907112752876373,-1.5700525451765601,9.75484749105,-3.247240532415603e-06,0.002181659148353896,-0.001090830782496456,2.0038118747287506,-2.559520310662928,-89.5625
1772906203.2350752,1.4911765138019723e-06,1.0737190757565556,-9.081988454791631,-0.18860505925321705,-1.5667838785151027,9.756571062851071,0.0010875823336445323,0.0021832827686201037,-0.001090830782496456,3.5048335056467974,-3.244786910984384,-89.6875
1772906203.2493694,1.4911765138019723e-06,1.0737190757565556,-9.081988454791631,-0.1882948960221645,-1.5646086173653018,9.757718080631125,0.001090829574176948,1.6236202662078016e-06,-0.001090830782496456,3.5048335056467974,-3.244786910984384,-89.6875
1772906203.2724004,1.4911765138019723e-06,1.0737190757565556,-9.081988454791631,-0.1882948960221645,-1.5646086173653018,9.757718080631125,0.001090829574176948,1.6236202662078016e-06,-0.001090830782496456,3.5048335056467974,-3.244786910984384,-89.6875
1772906203.2913866,1.4911765138019723e-06,1.0737190757565556,-9.081988454791631,-0.18808848585664936,-1.5631610053693685,9.758481408150724,0.0010875823336445323,0.0021832827686201037,-0.002181661564992912,3.5048335056467974,-3.244786910984384,-89.6875
1772906203.3378947,1.4911765138019723e-06,1.0737190757565556,-9.081988454791631,-0.18795112219725163,-1.5621976357569605,9.75898939408809,-1.6236202662078016e-06,0.001090829574176948,0.0,2.2544627839238176,-2.9966477196865284,-89.25
1772906203.3781054,1.4911765138019723e-06,1.0737190757565556,-9.081988454791631,-0.18779389428396295,-1.5644749793583794,9.756207315813512,0.0,0.0,-0.002181661564992912,2.2544627839238176,-2.9966477196865284,-89.25
1772906203.406216,1.4911765138019723e-06,1.0737190757565556,-9.081988454791631,-0.18779389428396295,-1.5644749793583794,9.756207315813512,0.0,0.0,-0.002181661564992912,2.2544627839238176,-2.9966477196865284,-89.25
1772906203.4306855,1.4911765138019723e-06,1.0737190757565556,-9.081988454791631,-0.1877451168978327,-1.569762286772436,9.76082112274827,0.0010875823336445323,0.0021832827686201037,0.0,1.5669635454715067,-2.99767101216317,-90.5
1772906203.4557493,1.4911765138019723e-06,1.0737190757565556,-9.081988454791631,-0.18436754809032213,-1.573275951844097,9.757201336309112,0.0,0.0,-0.001090830782496456,1.5669635454715067,-2.99767101216317,-90.5
1772906203.4752064,1.4911765138019723e-06,1.0737190757565556,-9.081988454791631,-0.18212977167743927,-1.5689240406952367,9.764827743991475,0.0010924531944431558,-0.00108920595391074,0.002181661564992912,1.5669635454715067,-2.99767101216317,-90.5
1772906203.4932654,1.4911765138019723e-06,1.0737190757565556,-9.081988454791631,-0.18212977167743927,-1.5689240406952367,9.764827743991475,0.0010924531944431558,-0.00108920595391074,0.002181661564992912,1.5669635454715067,-2.99767101216317,-90.5
1772906203.5200942,1.4911765138019723e-06,1.0737190757565556,-9.081988454791631,-0.18064055647226612,-1.5660278924397033,9.763212809696892,-0.00108920595391074,-0.0010924531944431558,0.001090830782496456,4.067984068683824,-3.6814491870640564,-90.0625
1772906203.5594895,1.4911765138019723e-06,1.0737190757565556,-9.081988454791631,-0.18299460839076725,-1.5641055170770415,9.762138088963846,0.0,0.0,0.001090830782496456,4.067984068683824,-3.6814491870640564,-90.0625
1772906203.584022,1.4911765138019723e-06,1.0737190757565556,-9.081988454791631,-0.18455622469674698,-1.5661713057494497,9.76142287432142,-0.00108920595391074,-0.0010924531944431558,0.0,3.5032520536374423,-2.1822880879217217,-88.5
1772906203.621966,1.4911765138019723e-06,1.0737190757565556,-9.081988454791631,-0.1855904839546795,-1.5708911730364858,9.760946906966357,-0.0010924531944431558,0.00108920595391074,0.0,3.5032520536374423,-2.1822880879217217,-88.5
1772906203.657974,1.4911765138019723e-06,1.0737190757565556,-9.081988454791631,-0.1862787719374007,-1.5740321919916362,9.767320379423104,-0.00108920595391074,-0.0010924531944431558,-0.001090830782496456,3.0663106977914127,-2.5579388586535723,-89.25
1772906203.6846638,1.4911765138019723e-06,1.0737190757565556,-9.081988454791631,-0.1862787719374007,-1.5740321919916362,9.767320379423104,-0.00108920595391074,-0.0010924531944431558,-0.001090830782496456,3.0663106977914127,-2.5579388586535723,-89.25
1772906203.7065885,1.4911765138019723e-06,1.0737190757565556,-9.081988454791631,-0.19008192790314107,-1.5761274839681079,9.771561854146718,-1.6236202662078016e-06,0.001090829574176948,-0.001090830782496456,3.0663106977914127,-2.5579388586535723,-89.25
1772906203.741427,1.4911765138019723e-06,1.0737190757565556,-9.081988454791631,-0.1926178646636053,-1.5741767693705848,9.771039396487586,-0.0010875823336445323,-0.0021832827686201037,0.0,3.503810213170156,-2.557287672532073,-88.5
1772906203.7563026,1.4911765138019723e-06,1.0737190757565556,-9.081988454791631,-0.1926178646636053,-1.5741767693705848,9.771039396487586,-0.0010875823336445323,-0.0021832827686201037,0.0,3.503810213170156,-2.557287672532073,-88.5
1772906203.7750149,1.4911765138019723e-06,1.0737190757565556,-9.081988454791631,-0.19096537319680432,-1.5695285036456232,9.76734659504435,-0.002181659148353896,-3.247240532415603e-06,0.0,3.503810213170156,-2.557287672532073,-88.5
1772906203.7893028,1.4911765138019723e-06,1.0737190757565556,-9.081988454791631,-0.18986565858518745,-1.5664351347301917,9.764889076935171,-0.00108920595391074,-0.0010924531944431558,-0.001090830782496456,3.503810213170156,-2.557287672532073,-88.5
1772906203.8119743,1.4911765138019723e-06,1.0737190757565556,-9.081988454791631,-0.18986565858518745,-1.5664351347301917,9.764889076935171,-0.00108920595391074,-0.0010924531944431558,-0.001090830782496456,3.503810213170156,-2.557287672532073,-88.5
1772906203.8564117,1.4911765138019723e-06,1.0737190757565556,-9.081988454791631,-0.1891338107957736,-1.564376532272167,9.763253626085788,0.00108920595391074,0.0010924531944431558,-0.001090830782496456,2.2532534382696046,-2.184148619697434,-89.25
1772906203.897641,1.4911765138019723e-06,1.0737190757565556,-9.081988454791631,-0.19533699027103407,-1.5630165132310472,9.765510363522026,-4.870860798623405e-06,0.0032724887225308442,-0.002181661564992912,2.2532534382696046,-2.184148619697434,-89.25
1772906203.9142323,1.4911765138019723e-06,1.0737190757565556,-9.081988454791631,-0.19533699027103407,-1.5630165132310472,9.765510363522026,-4.870860798623405e-06,0.0032724887225308442,-0.002181661564992912,2.2532534382696046,-2.184148619697434,-89.25
1772906203.9463096,1.4911765138019723e-06,1.0737190757565556,-9.081988454791631,-0.19946015796846506,-1.5654565437535104,9.763667085369114,-0.00108920595391074,-0.0010924531944431558,0.0,2.2532534382696046,-2.184148619697434,-89.6875
1772906203.9702976,1.4911765138019723e-06,1.0737190757565556,-9.081988454791631,-0.19551386400846432,-1.567070398910683,9.762440404349118,0.00108920595391074,0.0010924531944431558,0.0,2.2532534382696046,-2.184148619697434,-89.6875
1772906204.0066924,1.4911765138019723e-06,1.0737190757565556,-9.081988454791631,-0.19551386400846432,-1.567070398910683,9.762440404349118,0.00108920595391074,0.0010924531944431558,0.0,2.2532534382696046,-2.184148619697434,-89.6875
1772906204.058547,1.4911765138019723e-06,1.0737190757565556,-9.081988454791631,-0.1928876494610758,-1.5681444014898378,9.761624061833235,-4.870860798623405e-06,0.0032724887225308442,0.0,3.0673339902680543,-3.245438097105883,-88.5
1772906204.0819268,1.4911765138019723e-06,1.0737190757565556,-9.081988454791631,-0.19113993301652746,-1.5688591382088706,9.76108079500806,0.0010875823336445323,0.0021832827686201037,0.0,3.0673339902680543,-3.245438097105883,-88.5
1772906204.10087,1.4911765138019723e-06,1.0737190757565556,-9.081988454791631,-0.19113993301652746,-1.5688591382088706,9.76108079500806,0.0010875823336445323,0.0021832827686201037,0.0,3.0673339902680543,-3.245438097105883,-88.5
1772906204.1491342,1.4911765138019723e-06,1.0737190757565556,-9.081988454791631,-0.18998182619525228,-1.5659896795093347,9.760719257004592,-1.6236202662078016e-06,0.001090829574176948,0.0,2.0038118747287506,-2.559520310662928,-90.0625
1772906204.1805458,1.4911765138019723e-06,1.0737190757565556,-9.081988454791631,-0.18869822204186373,-1.5628092741814001,9.76031854122058,1.6236202662078016e-06,-0.001090829574176948,0.001090830782496456,2.0038118747287506,-2.559520310662928,-90.0625
1772906204.2385705,1.4911765138019723e-06,1.0737190757565556,-9.081988454791631,-0.18835689481731233,-1.5619635625804622,9.760211985623958,-1.6236202662078016e-06,0.001090829574176948,0.001090830782496456,2.2532534382696046,-2.184148619697434,-88.5
1772906204.2706144,1.4911765138019723e-06,1.0737190757565556,-9.081988454791631,-0.1881297453622483,-1.5614007509572558,9.76348618577203,-1.6236202662078016e-06,0.001090829574176948,0.0,2.2532534382696046,-2.184148619697434,-88.5
1772906204.3443928,1.4911765138019723e-06,1.0737190757565556,-9.081988454791631,-0.18797857993732886,-1.5610262061090296,9.762320017688038,-3.247240532415603e-06,0.002181659148353896,0.0,3.5032520536374423,-2.1822880879217217,-89.6875
1772906204.3750765,1.4911765138019723e-06,1.0737190757565556,-9.081988454791631,-0.1878680231370738,-1.5674671667003155,9.761543945855093,-0.0010924531944431558,0.00108920595391074,0.001090830782496456,3.5032520536374423,-2.1822880879217217,-89.6875
1772906204.4550703,1.4911765138019723e-06,1.0737190757565556,-9.081988454791631,-0.1877944488215044,-1.5717535540235716,9.761027478719559,-0.0010924531944431558,0.00108920595391074,0.001090830782496456,2.6907529536483477,-2.1834974335759347,-88.5
1772906204.495096,1.4911765138019723e-06,1.0737190757565556,-9.081988454791631,-0.18774548593637194,-1.574606096905115,9.760683775610177,0.001090829574176948,1.6236202662078016e-06,0.002181661564992912,2.6907529536483477,-2.1834974335759347,-88.5
1772906204.531563,1.4911765138019723e-06,1.0737190757565556,-9.081988454791631,-0.19105800968518752,-1.5765094112770899,9.760455045030298,-1.6236202662078016e-06,0.001090829574176948,0.002181661564992912,3.0669618839129122,-2.9954383740323154,-89.25
1772906204.6026158,1.4911765138019723e-06,1.0737190757565556,-9.081988454791631,-0.19326743618600925,-1.5744309377283046,9.760302827384477,0.0,0.0,0.002181661564992912,3.0669618839129122,-2.9954383740323154,-89.25
1772906204.6383705,1.4911765138019723e-06,1.0737190757565556,-9.081988454791631,-0.19473778484139498,-1.573047736799659,9.760201528241566,4.870860798623405e-06,-0.0032724887225308442,0.001090830782496456,2.691311113181061,-2.558497018186286,-89.6875
1772906204.6556544,1.4911765138019723e-06,1.0737190757565556,-9.081988454791631,-0.19571628544668349,-1.572127232033012,9.760134114793544,-0.0010924531944431558,0.00108920595391074,0.001090830782496456,2.691311113181061,-2.558497018186286,-89.6875
1772906204.6924644,1.4911765138019723e-06,1.0737190757565556,-9.081988454791631,-0.19571628544668349,-1.572127232033012,9.760134114793544,-0.0010924531944431558,0.00108920595391074,0.001090830782496456,2.691311113181061,-2.558497018186286,-89.6875
1772906204.720885,1.4911765138019723e-06,1.0737190757565556,-9.081988454791631,-0.19302733761631483,-1.5681645594423006,9.760089251896943,-3.247240532415603e-06,0.002181659148353896,0.001090830782496456,2.253811597802318,-2.5591482043077853,-88.875
1772906204.774063,1.4911765138019723e-06,1.0737190757565556,-9.081988454791631,-0.19124285182201972,-1.5621823370972154,9.760059396140406,0.00108920595391074,0.0010924531944431558,0.0,2.253811597802318,-2.5591482043077853,-88.875
1772906204.7968886,1.4911765138019723e-06,1.0737190757565556,-9.081988454791631,-0.1900552964599288,-1.5582012349523637,9.760039527467942,-0.001090829574176948,-1.6236202662078016e-06,0.0,2.2544627839238176,-2.9966477196865284,-88.0625
1772906204.8261466,1.4911765138019723e-06,1.0737190757565556,-9.081988454791631,-0.1900552964599288,-1.5582012349523637,9.760039527467942,-0.001090829574176948,-1.6236202662078016e-06,0.0,2.2544627839238176,-2.9966477196865284,-88.0625
1772906204.8599765,1.4911765138019723e-06,1.0737190757565556,-9.081988454791631,-0.18925503373372027,-1.5622420719506296,9.760026305088365,-1.6236202662078016e-06,0.001090829574176948,-0.001090830782496456,2.2544627839238176,-2.9966477196865284,-88.0625
1772906204.897287,1.4911765138019723e-06,1.0737190757565556,-9.081988454791631,-0.1887224678289489,-1.5649312038338687,9.760017505742459,3.247240532415603e-06,-0.002181659148353896,0.001090830782496456,2.255486076400459,-3.684146958138839,-88.875
1772906204.9242394,1.4911765138019723e-06,1.0737190757565556,-9.081988454791631,-0.18836805116847447,-1.5667207910625929,9.766701873290693,-0.002180035528087688,-0.0010940768147093636,0.0,2.255486076400459,-3.684146958138839,-88.875
1772906204.9598966,1.4911765138019723e-06,1.0737190757565556,-9.081988454791631,-0.1881371697893221,-1.5645666333703894,9.771150245224764,-1.6236202662078016e-06,0.001090829574176948,0.0,2.004835167205392,-3.2470195491152385,-89.6875
1772906204.9927719,1.4911765138019723e-06,1.0737190757565556,-9.081988454791631,-0.18798352081061018,-1.5631330654897462,9.770765475347998,-0.0010875823336445323,-0.0021832827686201037,-0.001090830782496456,2.004835167205392,-3.2470195491152385,-89.6875
1772906205.0080993,1.4911765138019723e-06,1.0737190757565556,-9.081988454791631,-0.18798352081061018,-1.5631330654897462,9.770765475347998,-0.0010875823336445323,-0.0021832827686201037,-0.001090830782496456,2.004835167205392,-3.2470195491152385,-89.6875
1772906205.0550432,1.4911765138019723e-06,1.0737190757565556,-9.081988454791631,-0.18788126913164896,-1.5621790420791808,9.770509415293173,0.00108920595391074,0.0010924531944431558,0.0,2.004835167205392,-3.2470195491152385,-89.6875
1772906205.0788622,1.4911765138019723e-06,1.0737190757565556,-9.081988454791631,-0.18781322178152635,-1.5615441501565892,9.770339010187065,-1.6236202662078016e-06,0.001090829574176948,-0.002181661564992912,4.066960776207182,-2.993949948611746,-89.25
1772906205.1036491,1.4911765138019723e-06,1.0737190757565556,-9.081988454791631,-0.18776793703015848,-1.5611216366743121,9.7702256074925,-0.001090829574176948,-1.6236202662078016e-06,0.001090830782496456,4.066960776207182,-2.993949948611746,-89.25
1772906205.1254754,1.4911765138019723e-06,1.0737190757565556,-9.081988454791631,-0.18773780053398698,-1.5608404586716416,9.766805027558739,-0.00108920595391074,-0.0010924531944431558,0.002181661564992912,4.066960776207182,-2.993949948611746,-89.25
1772906205.1627324,1.4911765138019723e-06,1.0737190757565556,-9.081988454791631,-0.18773780053398698,-1.5608404586716416,9.766805027558739,-0.00108920595391074,-0.0010924531944431558,0.002181661564992912,4.066960776207182,-2.993949948611746,-89.25
1772906205.196242,1.4911765138019723e-06,1.0737190757565556,-9.081988454791631,-0.1910412139376607,-1.5661050299957118,9.763013779178785,-0.001090829574176948,-1.6236202662078016e-06,0.0,3.067985176389554,-3.682937612484626,-88.875
1772906205.244093,1.4911765138019723e-06,1.0737190757565556,-9.081988454791631,-0.19325625880365097,-1.567506938210102,9.762005636377362,3.247240532415603e-06,-0.002181659148353896,-0.002181661564992912,2.0038118747287506,-2.559520310662928,-89.6875
1772906205.291739,1.4911765138019723e-06,1.0737190757565556,-9.081988454791631,-0.19472536746899527,-1.5717850004683576,9.761334728604707,0.0,0.0,0.001090830782496456,2.0038118747287506,-2.559520310662928,-89.6875
1772906205.350309,1.4911765138019723e-06,1.0737190757565556,-9.081988454791631,-0.19472536746899527,-1.5717850004683576,9.761334728604707,0.0,0.0,0.001090830782496456,2.0038118747287506,-2.559520310662928,-89.6875
1772906205.3810353,1.4911765138019723e-06,1.0737190757565556,-9.081988454791631,-0.19570304287476278,-1.57463200311214,9.764233358683857,0.0010924531944431558,-0.00108920595391074,-0.001090830782496456,2.0038118747287506,-2.559520310662928,-90.0625
1772906205.4455094,1.4911765138019723e-06,1.0737190757565556,-9.081988454791631,-0.196358653885251,-1.573181543566554,9.76616236462171,0.00108920595391074,0.0010924531944431558,0.0,2.0038118747287506,-2.559520310662928,-90.0625
1772906205.4830005,1.4911765138019723e-06,1.0737190757565556,-9.081988454791631,-0.196358653885251,-1.573181543566554,9.76616236462171,0.0010940768147093636,-0.002180035528087688,-0.001090830782496456,2.691311113181061,-2.558497018186286,-89.0
1772906205.5352907,1.4911765138019723e-06,1.0737190757565556,-9.081988454791631,-0.19344984768715606,-1.5722112999923614,9.764100984817624,0.0010924531944431558,-0.00108920595391074,-0.001090830782496456,2.691311113181061,-2.558497018186286,-89.0
1772906205.5529218,1.4911765138019723e-06,1.0737190757565556,-9.081988454791631,-0.19344984768715606,-1.5722112999923614,9.764100984817624,0.0010924531944431558,-0.00108920595391074,-0.001090830782496456,2.691311113181061,-2.558497018186286,-89.0
1772906205.577901,1.4911765138019723e-06,1.0737190757565556,-9.081988454791631,-0.1915140696558182,-1.571565613732067,9.762729159585126,0.0021849063888863115,-0.00217841190782148,0.0,3.502600867515943,-1.7447885725429784,-89.25
1772906205.6036506,1.4911765138019723e-06,1.0737190757565556,-9.081988454791631,-0.19022583100002036,-1.5711359167386292,9.76181622521719,0.0,0.0,-0.001090830782496456,3.502600867515943,-1.7447885725429784,-89.25
1772906205.6202803,1.4911765138019723e-06,1.0737190757565556,-9.081988454791631,-0.19022583100002036,-1.5711359167386292,9.76181622521719,0.0,0.0,-0.001090830782496456,3.502600867515943,-1.7447885725429784,-89.25
1772906205.6485388,1.4911765138019723e-06,1.0737190757565556,-9.081988454791631,-0.18936852256515554,-1.5708499581895263,9.761208677593475,0.0021832827686201037,-0.0010875823336445323,0.0,2.253811597802318,-2.5591482043077853,-88.0625
1772906205.6718984,1.4911765138019723e-06,1.0737190757565556,-9.081988454791631,-0.18879799337851574,-1.5706596559694648,9.760804361436644,0.002180035528087688,0.0010940768147093636,0.0,2.253811597802318,-2.5591482043077853,-88.0625
1772906205.6845255,1.4911765138019723e-06,1.0737190757565556,-9.081988454791631,-0.18879799337851574,-1.5706596559694648,9.760804361436644,0.002180035528087688,0.0010940768147093636,0.0,2.253811597802318,-2.5591482043077853,-88.0625
1772906205.7091837,1.4911765138019723e-06,1.0737190757565556,-9.081988454791631,-0.18841831257803557,-1.5705330119678287,9.760535293550781,0.00108920595391074,0.0010924531944431558,0.0,2.2544627839238176,-2.9966477196865284,-89.6875
1772906205.72956,1.4911765138019723e-06,1.0737190757565556,-9.081988454791631,-0.18841831257803557,-1.5705330119678287,9.760535293550781,0.00108920595391074,0.0010924531944431558,0.0,2.2544627839238176,-2.9966477196865284,-89.6875
1772906205.7646322,1.4911765138019723e-06,1.0737190757565556,-9.081988454791631,-0.18816066029732864,-1.5737938398013662,9.760356231878424,0.00108920595391074,0.0010924531944431558,0.002181661564992912,2.2544627839238176,-2.9966477196865284,-89.6875
1772906205.7889845,1.4911765138019723e-06,1.0737190757565556,-9.081988454791631,-0.18799417453198256,-1.5726187762968318,9.766927291750358,0.0010957004349755714,-0.0032708651022646364,0.0,2.2532534382696046,-2.184148619697434,-90.5
1772906205.8076751,1.4911765138019723e-06,1.0737190757565556,-9.081988454791631,-0.1878833801149126,-1.5718367846608836,9.771300258691582,0.00108920595391074,0.0010924531944431558,-0.001090830782496456,2.2532534382696046,-2.184148619697434,-90.5
1772906205.8450124,1.4911765138019723e-06,1.0737190757565556,-9.081988454791631,-0.1878833801149126,-1.5718367846608836,9.771300258691582,0.00108920595391074,0.0010924531944431558,-0.001090830782496456,2.2532534382696046,-2.184148619697434,-90.5
1772906205.8811283,1.4911765138019723e-06,1.0737190757565556,-9.081988454791631,-0.18780964766800726,-1.571316377962579,9.764175084219767,-0.002181659148353896,-3.247240532415603e-06,0.001090830782496456,2.2544627839238176,-2.9966477196865284,-88.875
1772906205.9186509,1.4911765138019723e-06,1.0737190757565556,-9.081988454791631,-0.18776057954823716,-1.570970053118181,9.75608824849487,1.6236202662078016e-06,-0.001090829574176948,-0.001090830782496456,2.2544627839238176,-2.9966477196865284,-88.875
1772906205.948849,1.4911765138019723e-06,1.0737190757565556,-9.081988454791631,-0.18772792526265697,-1.5707395778029363,9.750706549655824,-0.001090829574176948,-1.6236202662078016e-06,-0.002181661564992912,2.253811597802318,-2.5591482043077853,-89.6875
1772906205.965809,1.4911765138019723e-06,1.0737190757565556,-9.081988454791631,-0.18771117314967545,-1.5672410910532986,9.750470200903274,-0.0010924531944431558,0.00108920595391074,-0.002181661564992912,2.253811597802318,-2.5591482043077853,-89.6875
1772906205.980372,1.4911765138019723e-06,1.0737190757565556,-9.081988454791631,-0.18771117314967545,-1.5672410910532986,9.750470200903274,-0.0010924531944431558,0.00108920595391074,-0.002181661564992912,2.253811597802318,-2.5591482043077853,-89.6875
1772906205.9963853,1.4911765138019723e-06,1.0737190757565556,-9.081988454791631,-0.1910451328075396,-1.5649178661513723,9.75031291344864,0.0010924531944431558,-0.00108920595391074,0.0,2.253811597802318,-2.5591482043077853,-89.6875
1772906206.013397,1.4911765138019723e-06,1.0737190757565556,-9.081988454791631,-0.1910451328075396,-1.5649178661513723,9.75031291344864,0.0010924531944431558,-0.00108920595391074,0.0,2.253811597802318,-2.5591482043077853,-89.6875
1772906206.0617328,1.4911765138019723e-06,1.0737190757565556,-9.081988454791631,-0.1932538878184789,-1.570062001935103,9.760243575526555,0.0010924531944431558,-0.00108920595391074,0.0,2.2532534382696046,-2.184148619697434,-89.6875
1772906206.0857818,1.4911765138019723e-06,1.0737190757565556,-9.081988454791631,-0.19472378960484887,-1.5734853668354138,9.770197431913964,-0.0010843350931121168,-0.004364941916974,0.0,2.2532534382696046,-2.184148619697434,-89.6875
1772906206.1017668,1.4911765138019723e-06,1.0737190757565556,-9.081988454791631,-0.19472378960484887,-1.5734853668354138,9.770197431913964,-0.0010843350931121168,-0.004364941916974,0.0,2.2532534382696046,-2.184148619697434,-89.6875
1772906206.1337729,1.4911765138019723e-06,1.0737190757565556,-9.081988454791631,-0.19570199282379924,-1.5757635779350792,9.776821612147923,-0.001090829574176948,-1.6236202662078016e-06,0.001090830782496456,3.0669618839129122,-2.9954383740323154,-90.0625
1772906206.155848,1.4911765138019723e-06,1.0737190757565556,-9.081988454791631,-0.19635795508806464,-1.5739345939707008,9.771194594974723,-0.0010875823336445323,-0.0021832827686201037,-0.001090830782496456,3.0669618839129122,-2.9954383740323154,-90.0625
1772906206.1785285,1.4911765138019723e-06,1.0737190757565556,-9.081988454791631,-0.19344938264543465,-1.5727124466241968,9.767449877903859,-1.6236202662078016e-06,0.001090829574176948,-0.002181661564992912,3.0673339902680543,-3.245438097105883,-88.875
1772906206.2140348,1.4911765138019723e-06,1.0737190757565556,-9.081988454791631,-0.19151376017574745,-1.571899121217379,9.768302922231749,-0.0010924531944431558,0.00108920595391074,-0.001090830782496456,3.0673339902680543,-3.245438097105883,-88.875
1772906206.2615259,1.4911765138019723e-06,1.0737190757565556,-9.081988454791631,-0.19357073304641031,-1.5713628411938816,9.76887061370283,0.0,0.0,-0.001090830782496456,2.2544627839238176,-2.9966477196865284,-89.6875
1772906206.2850995,1.4911765138019723e-06,1.0737190757565556,-9.081988454791631,-0.19493962551394395,-1.5710059528288844,9.769248406035306,1.6236202662078016e-06,-0.001090829574176948,0.0,2.2544627839238176,-2.9966477196865284,-89.6875
1772906206.3549945,1.4911765138019723e-06,1.0737190757565556,-9.081988454791631,-0.19585060815955674,-1.570768447608683,9.77284493431967,1.6236202662078016e-06,-0.001090829574176948,-0.001090830782496456,2.2548348902789597,-3.246647442760096,-89.25
1772906206.4032328,1.4911765138019723e-06,1.0737190757565556,-9.081988454791631,-0.19686030872093152,-1.570505205322651,9.770140974139805,0.0,0.0,0.001090830782496456,3.0663106977914127,-2.5579388586535723,-88.875
1772906206.4620707,1.4911765138019723e-06,1.0737190757565556,-9.081988454791631,-0.19712880137836974,-1.5704352057370008,9.766748705007936,-0.0010957004349755714,0.0032708651022646364,-0.001090830782496456,3.0663106977914127,-2.5579388586535723,-88.875
1772906206.5049896,1.4911765138019723e-06,1.0737190757565556,-9.081988454791631,-0.1939623722407154,-1.5703836428453974,9.764491187794807,-0.00108920595391074,-0.0010924531944431558,0.0,2.253811597802318,-2.5591482043077853,-89.6875
1772906206.5568316,1.4911765138019723e-06,1.0737190757565556,-9.081988454791631,-0.19185514902093756,-1.5703493283170304,9.766333947014909,-1.6236202662078016e-06,0.001090829574176948,0.0,2.253811597802318,-2.5591482043077853,-89.6875
1772906206.5823116,1.4911765138019723e-06,1.0737190757565556,-9.081988454791631,-0.1904528155074011,-1.5703264923817208,9.764215170983597,-0.0010875823336445323,-0.0021832827686201037,0.0,2.6923344056577028,-3.245996256638597,-89.5625
1772906206.6153646,1.4911765138019723e-06,1.0737190757565556,-9.081988454791631,-0.18951957821923435,-1.5703112953218663,9.76280514920304,0.0,0.0,0.0,2.6923344056577028,-3.245996256638597,-89.5625
1772906206.6613698,1.4911765138019723e-06,1.0737190757565556,-9.081988454791631,-0.18951957821923435,-1.5703112953218663,9.76280514920304,0.0,0.0,0.0,2.6923344056577028,-3.245996256638597,-89.5625
1772906206.7039018,1.4911765138019723e-06,1.0737190757565556,-9.081988454791631,-0.19224860618012277,-1.5669610527956752,9.761866795459053,0.0010843350931121168,0.004364941916974,-0.001090830782496456,2.6919622993025607,-2.9959965335650294,-89.5625
1772906206.7721038,1.4911765138019723e-06,1.0737190757565556,-9.081988454791631,-0.1940647438028542,-1.5647315038191563,9.764587443231846,-0.00108920595391074,-0.0010924531944431558,0.0,2.6919622993025607,-2.9959965335650294,-89.5625
1772906206.8336616,1.4911765138019723e-06,1.0737190757565556,-9.081988454791631,-0.1952683841538956,-1.5665928718828968,9.766398003933014,-0.0010859587133783244,-0.003274112342797052,0.0,2.253811597802318,-2.5591482043077853,-89.25
1772906206.873061,1.4911765138019723e-06,1.0737190757565556,-9.081988454791631,-0.19606939336196996,-1.5678315915364724,9.764257800147034,-0.0021832827686201037,0.0010875823336445323,0.0,2.253811597802318,-2.5591482043077853,-89.25
1772906206.923894,1.4911765138019723e-06,1.0737190757565556,-9.081988454791631,-0.1966024560420843,-1.5686559456285218,9.762833518435107,-0.00108920595391074,-0.0010924531944431558,-0.001090830782496456,1.191312774739656,-2.560729656317141,-89.6875
1772906206.9916463,1.4911765138019723e-06,1.0737190757565556,-9.081988454791631,-0.1936170742483799,-1.5658544571169224,9.768575898280726,0.0,0.0,0.001090830782496456,1.191312774739656,-2.560729656317141,-89.6875
1772906207.0784867,1.4911765138019723e-06,1.0737190757565556,-9.081988454791631,-0.1916303360135694,-1.5639900978071302,9.772397387921401,-0.0010924531944431558,0.00108920595391074,-0.002181661564992912,2.0038118747287506,-2.559520310662928,-89.6875
1772906207.1888473,1.4911765138019723e-06,1.0737190757565556,-9.081988454791631,-0.19030818391162327,-1.5627493875127216,9.768250323173795,1.6236202662078016e-06,-0.001090829574176948,-0.001090830782496456,2.0038118747287506,-2.559520310662928,-89.6875
1772906207.2474794,1.4911765138019723e-06,1.0737190757565556,-9.081988454791631,-0.18941834855858516,-1.5686139246752746,9.765490497910012,-0.0010957004349755714,0.0032708651022646364,-0.001090830782496456,2.6907529536483477,-2.1834974335759347,-90.0625
1772906207.264291,1.4911765138019723e-06,1.0737190757565556,-9.081988454791631,-0.19217626002247032,-1.5691765795931611,9.763653865026232,-1.6236202662078016e-06,0.001090829574176948,-0.001090830782496456,2.6907529536483477,-2.1834974335759347,-90.0625
1772906207.326328,1.4911765138019723e-06,1.0737190757565556,-9.081988454791631,-0.19401161929379623,-1.5695510201557472,9.76243160635861,-0.0010924531944431558,0.00108920595391074,-0.001090830782496456,2.0038118747287506,-2.559520310662928,-89.25
1772906207.384473,1.4911765138019723e-06,1.0737190757565556,-9.081988454791631,-0.1952330303865572,-1.5698002061673733,9.761618206868832,0.0010957004349755714,-0.0032708651022646364,0.002181661564992912,2.00446306085025,-2.997019826041671,-88.875
1772906207.430312,1.4911765138019723e-06,1.0737190757565556,-9.081988454791631,-0.1960458658247337,-1.56996603667452,9.761076898594652,0.001090829574176948,1.6236202662078016e-06,0.002181661564992912,2.00446306085025,-2.997019826041671,-88.875
1772906207.4629102,1.4911765138019723e-06,1.0737190757565556,-9.081988454791631,-0.1960458658247337,-1.56996603667452,9.761076898594652,0.001090829574176948,1.6236202662078016e-06,0.002181661564992912,2.00446306085025,-2.997019826041671,-88.875
1772906207.4858613,1.4911765138019723e-06,1.0737190757565556,-9.081988454791631,-0.1965917776781732,-1.5667312870226582,9.757371552277677,4.870860798623405e-06,-0.0032724887225308442,0.002181661564992912,2.2544627839238176,-2.9966477196865284,-90.5
1772906207.5116954,1.4911765138019723e-06,1.0737190757565556,-9.081988454791631,-0.19360498896718242,-1.5679187263164853,9.75490568569516,3.247240532415603e-06,-0.002181659148353896,0.001090830782496456,2.2544627839238176,-2.9966477196865284,-90.5
1772906207.5348177,1.4911765138019723e-06,1.0737190757565556,-9.081988454791631,-0.1916222933939339,-1.5653638459000414,9.74991956732271,0.0010940768147093636,-0.002180035528087688,0.001090830782496456,3.0663106977914127,-2.5579388586535723,-88.875
1772906207.5644467,1.4911765138019723e-06,1.0737190757565556,-9.081988454791631,-0.1916222933939339,-1.5653638459000414,9.74991956732271,0.0010940768147093636,-0.002180035528087688,0.001090830782496456,3.0663106977914127,-2.5579388586535723,-88.875
1772906207.6004767,1.4911765138019723e-06,1.0737190757565556,-9.081988454791631,-0.19029785268879798,-1.5670087095247023,9.746601361244435,0.002181659148353896,3.247240532415603e-06,0.0,3.0663106977914127,-2.5579388586535723,-88.875
1772906207.6243162,1.4911765138019723e-06,1.0737190757565556,-9.081988454791631,-0.1894214311438019,-1.5647582398906634,9.747738243873455,0.0,0.0,0.0,2.6919622993025607,-2.9959965335650294,-89.6875
1772906207.6527417,1.4911765138019723e-06,1.0737190757565556,-9.081988454791631,-0.18883320344657734,-1.5666056854905235,9.748494826563256,0.001090829574176948,1.6236202662078016e-06,0.0,2.6919622993025607,-2.9959965335650294,-89.6875
1772906207.6862104,1.4911765138019723e-06,1.0737190757565556,-9.081988454791631,-0.18844672343430813,-1.5644900318979909,9.752343435599055,0.0,0.0,0.001090830782496456,2.6919622993025607,-2.9959965335650294,-89.6875
1772906207.7294295,1.4911765138019723e-06,1.0737190757565556,-9.081988454791631,-0.18817956740480796,-1.5697723040693996,9.7549046419206,-0.00108920595391074,-0.0010924531944431558,0.002181661564992912,2.2544627839238176,-2.9966477196865284,-89.6875
1772906207.7951818,1.4911765138019723e-06,1.0737190757565556,-9.081988454791631,-0.19122856922483739,-1.5756319644470351,9.76331463752596,0.00108920595391074,0.0010924531944431558,0.001090830782496456,2.2544627839238176,-2.9966477196865284,-89.6875
1772906207.8290436,1.4911765138019723e-06,1.0737190757565556,-9.081988454791631,-0.19122856922483739,-1.5756319644470351,9.76331463752596,0.00108920595391074,0.0010924531944431558,0.001090830782496456,2.2544627839238176,-2.9966477196865284,-89.6875
1772906207.8611765,1.4911765138019723e-06,1.0737190757565556,-9.081988454791631,-0.19338094165437136,-1.5738470066646266,9.765550965953919,-0.0010875823336445323,-0.0021832827686201037,-0.001090830782496456,2.6923344056577028,-3.245996256638597,-89.25
1772906207.8756304,1.4911765138019723e-06,1.0737190757565556,-9.081988454791631,-0.19338094165437136,-1.5738470066646266,9.765550965953919,-0.0010875823336445323,-0.0021832827686201037,-0.001090830782496456,2.6923344056577028,-3.245996256638597,-89.25
1772906207.890754,1.4911765138019723e-06,1.0737190757565556,-9.081988454791631,-0.19146821346073084,-1.5726541582504188,9.7670392175413,-0.001090829574176948,-1.6236202662078016e-06,0.001090830782496456,2.6923344056577028,-3.245996256638597,-89.25
1772906207.9144926,1.4911765138019723e-06,1.0737190757565556,-9.081988454791631,-0.19146821346073084,-1.5726541582504188,9.7670392175413,-0.001090829574176948,-1.6236202662078016e-06,0.001090830782496456,2.6923344056577028,-3.245996256638597,-89.25
1772906207.979701,1.4911765138019723e-06,1.0737190757565556,-9.081988454791631,-0.19019531421443692,-1.5718603309557533,9.768029632347842,3.247240532415603e-06,-0.002181659148353896,0.0,2.0038118747287506,-2.559520310662928,-89.6875
1772906207.9985077,1.4911765138019723e-06,1.0737190757565556,-9.081988454791631,-0.18935319293454442,-1.5679869397568653,9.768688742337938,0.0,0.0,0.0,2.0038118747287506,-2.559520310662928,-89.6875
1772906208.0175838,1.4911765138019723e-06,1.0737190757565556,-9.081988454791631,-0.18935319293454442,-1.5679869397568653,9.768688742337938,0.0,0.0,0.0,2.0038118747287506,-2.559520310662928,-89.6875
1772906208.0632899,1.4911765138019723e-06,1.0737190757565556,-9.081988454791631,-0.18878281273128744,-1.5720994571864604,9.769127372673605,-0.001090829574176948,-1.6236202662078016e-06,0.0,2.004835167205392,-3.2470195491152385,-89.6875
1772906208.0958326,1.4911765138019723e-06,1.0737190757565556,-9.081988454791631,-0.19175829697810384,-1.5681510545414858,9.76941927626217,-0.001090829574176948,-1.6236202662078016e-06,-0.001090830782496456,2.004835167205392,-3.2470195491152385,-89.6875
1772906208.168442,1.4911765138019723e-06,1.0737190757565556,-9.081988454791631,-0.1937434274553231,-1.5621783286858826,9.766268423132264,-0.00108920595391074,-0.0010924531944431558,0.0,2.253811597802318,-2.5591482043077853,-89.25
1772906208.2046146,1.4911765138019723e-06,1.0737190757565556,-9.081988454791631,-0.19171940161063214,-1.5581985673993985,9.764171565571647,3.247240532415603e-06,-0.002181659148353896,-0.001090830782496456,2.253811597802318,-2.5591482043077853,-89.25
1772906208.246646,1.4911765138019723e-06,1.0737190757565556,-9.081988454791631,-0.1903674560715406,-1.5588951887220097,9.76612124199581,-0.002181659148353896,-3.247240532415603e-06,0.0,2.2544627839238176,-2.9966477196865284,-90.5
1772906208.2983088,1.4911765138019723e-06,1.0737190757565556,-9.081988454791631,-0.19280788047011654,-1.5627088693816573,9.767418729876777,-0.001090829574176948,-1.6236202662078016e-06,0.002181661564992912,2.2544627839238176,-2.9966477196865284,-90.5
1772906208.364634,1.4911765138019723e-06,1.0737190757565556,-9.081988454791631,-0.19443195564604204,-1.5652468312590486,9.771627305274992,-0.0010989476755079869,0.005452524250618531,0.001090830782496456,2.2544627839238176,-2.9966477196865284,-89.6875
1772906208.3967142,1.4911765138019723e-06,1.0737190757565556,-9.081988454791631,-0.19443195564604204,-1.5652468312590486,9.771627305274992,-0.0010989476755079869,0.005452524250618531,0.001090830782496456,2.2544627839238176,-2.9966477196865284,-89.6875
1772906208.4609008,1.4911765138019723e-06,1.0737190757565556,-9.081988454791631,-0.19216765153159207,-1.5669308375882607,9.771082953482315,0.0,0.0,0.0,2.2544627839238176,-2.9966477196865284,-89.6875
1772906208.4970977,1.4911765138019723e-06,1.0737190757565556,-9.081988454791631,-0.1906607824373599,-1.568051524988768,9.774065805152416,0.00108920595391074,0.0010924531944431558,-0.001090830782496456,3.0673339902680543,-3.245438097105883,-89.6875
1772906208.532528,1.4911765138019723e-06,1.0737190757565556,-9.081988454791631,-0.1896579778879791,-1.5687973299349072,9.772705747910914,0.00108920595391074,0.0010924531944431558,0.001090830782496456,3.0673339902680543,-3.245438097105883,-89.6875
1772906208.5490246,1.4911765138019723e-06,1.0737190757565556,-9.081988454791631,-0.188990622662427,-1.5692936547953757,9.77180064500953,-0.0010875823336445323,-0.0021832827686201037,0.001090830782496456,2.6907529536483477,-2.1834974335759347,-89.25
1772906208.5683243,1.4911765138019723e-06,1.0737190757565556,-9.081988454791631,-0.188990622662427,-1.5692936547953757,9.77180064500953,-0.0010875823336445323,-0.0021832827686201037,0.001090830782496456,2.6907529536483477,-2.1834974335759347,-89.25
1772906208.5832312,1.4911765138019723e-06,1.0737190757565556,-9.081988454791631,-0.19190157111518805,-1.5629387163911652,9.767853197432,-0.001090829574176948,-1.6236202662078016e-06,-0.002181661564992912,2.6907529536483477,-2.1834974335759347,-89.25
1772906208.5990708,1.4911765138019723e-06,1.0737190757565556,-9.081988454791631,-0.19382881689447604,-1.5653997918763167,9.758535991750394,-0.0010924531944431558,0.00108920595391074,0.001090830782496456,2.6907529536483477,-2.1834974335759347,-89.25
1772906208.6244276,1.4911765138019723e-06,1.0737190757565556,-9.081988454791631,-0.195116356381146,-1.5636925021177503,9.759025718863931,-3.247240532415603e-06,0.002181659148353896,0.0,2.6919622993025607,-2.9959965335650294,-89.25
1772906208.6434069,1.4911765138019723e-06,1.0737190757565556,-9.081988454791631,-0.195116356381146,-1.5636925021177503,9.759025718863931,-3.247240532415603e-06,0.002181659148353896,0.0,2.6919622993025607,-2.9959965335650294,-89.25
1772906208.6792564,1.4911765138019723e-06,1.0737190757565556,-9.081988454791631,-0.19262311257554662,-1.565896448907721,9.752661403372741,-0.0010957004349755714,0.0032708651022646364,0.001090830782496456,2.6919622993025607,-2.9959965335650294,-89.25
1772906208.7009847,1.4911765138019723e-06,1.0737190757565556,-9.081988454791631,-0.19096886562357826,-1.5640180428748274,9.758461357629374,-3.247240532415603e-06,0.002181659148353896,-0.001090830782496456,3.0669618839129122,-2.9954383740323154,-89.6875
1772906208.7352712,1.4911765138019723e-06,1.0737190757565556,-9.081988454791631,-0.19320811180881273,-1.566118071594327,9.75563093898279,-0.0010924531944431558,0.00108920595391074,0.0,3.0669618839129122,-2.9954383740323154,-89.6875
1772906208.754739,1.4911765138019723e-06,1.0737190757565556,-9.081988454791631,-0.19320811180881273,-1.566118071594327,9.75563093898279,-0.0010924531944431558,0.00108920595391074,0.0,3.0669618839129122,-2.9954383740323154,-89.6875
1772906208.780461,1.4911765138019723e-06,1.0737190757565556,-9.081988454791631,-0.1947032840803672,-1.564170509246376,9.760437550405976,0.0010924531944431558,-0.00108920595391074,0.0,2.6907529536483477,-2.1834974335759347,-89.6875
1772906208.7985573,1.4911765138019723e-06,1.0737190757565556,-9.081988454791631,-0.19235319652299807,-1.5628694493102118,9.763636296614738,-0.0010924531944431558,0.00108920595391074,-0.002181661564992912,2.6907529536483477,-2.1834974335759347,-89.6875
1772906208.8326323,1.4911765138019723e-06,1.0737190757565556,-9.081988454791631,-0.19235319652299807,-1.5628694493102118,9.763636296614738,-0.0010924531944431558,0.00108920595391074,-0.002181661564992912,2.6907529536483477,-2.1834974335759347,-89.6875
1772906208.8652842,1.4911765138019723e-06,1.0737190757565556,-9.081988454791631,-0.19078923950576704,-1.5620036084564863,9.765765026484333,-1.6236202662078016e-06,0.001090829574176948,0.0,2.004835167205392,-3.2470195491152385,-89.25
