timestamp,yaw,pitch,roll,ax,ay,az,gx,gy,gz,mx,my,mz
1772919169.9312172,-0.07205411372883383,1.1448005070210325,-7.202837021826338,-0.18791961854150893,-1.2078457217686729,9.488726118260184,-0.001090830782496456,0.001090830782496456,-0.002181661564992912,-12.0625,-9.0,-25.1875
1772919169.950134,-0.07205411372883383,1.1448005070210325,-7.202837021826338,-0.1919606410860772,-1.2186016870238745,9.582815373737287,-0.001090830782496456,0.003272492347489368,0.0,-12.0625,-9.0,-25.1875
1772919169.964004,-0.07205411372883383,1.1448005070210325,-7.202837021826338,-0.1919606410860772,-1.2186016870238745,9.582815373737287,-0.001090830782496456,0.003272492347489368,0.0,-12.0625,-9.0,-25.1875
1772919169.9788768,-0.07205411372883383,1.1448005070210325,-7.202837021826338,-0.19130478474098836,-1.2257596617492066,9.645430722211447,-0.004363323129985824,0.002181661564992912,0.001090830782496456,-12.0625,-9.0,-25.1875
1772919170.020619,-0.07205411372883383,1.1448005070210325,-7.202837021826338,-0.19130478474098836,-1.2257596617492066,9.645430722211447,-0.004363323129985824,0.002181661564992912,0.001090830782496456,-12.0625,-9.0,-25.1875
1772919170.0341218,-0.07205411372883383,1.1448005070210325,-7.202837021826338,-0.19130478474098836,-1.2257596617492066,9.645430722211447,-0.004363323129985824,0.002181661564992912,0.001090830782496456,-12.0625,-9.0,-25.1875
1772919170.0491464,-0.06493265199834744,1.1452390073484677,-7.188694762232746,-0.19086831966972717,-1.227178102261779,9.687100537161728,-0.002181661564992912,0.003272492347489368,-0.003272492347489368,-12.75,-8.5625,-23.5625
1772919170.061867,-0.06493265199834744,1.1452390073484677,-7.188694762232746,-0.19086831966972717,-1.227178102261779,9.687100537161728,-0.002181661564992912,0.003272492347489368,-0.003272492347489368,-12.75,-8.5625,-23.5625
1772919170.079923,-0.06493265199834744,1.1452390073484677,-7.188694762232746,-0.19392296874775655,-1.2281220585778772,9.69476066328489,0.003272492347489368,0.002181661564992912,0.003272492347489368,-12.75,-8.5625,-23.5625
1772919170.0966845,-0.06493265199834744,1.1452390073484677,-7.188694762232746,-0.19392296874775655,-1.2281220585778772,9.69476066328489,0.003272492347489368,0.002181661564992912,0.003272492347489368,-12.75,-8.5625,-23.5625
1772919170.1082137,-0.06493265199834744,1.1452390073484677,-7.188694762232746,-0.1959558035865191,-1.2287502509615575,9.69985839165064,-0.003272492347489368,0.003272492347489368,0.0,-12.75,-9.1875,-24.0
1772919170.1254976,-0.06493265199834744,1.1452390073484677,-7.188694762232746,-0.1959558035865191,-1.2287502509615575,9.69985839165064,-0.003272492347489368,0.003272492347489368,0.0,-12.75,-9.1875,-24.0
1772919170.1435213,-0.06500267537989125,1.1452394343205816,-7.195731103570482,-0.19396352075614312,-1.2325134176828474,9.723321543176604,0.0,0.002181661564992912,-0.001090830782496456,-12.75,-9.1875,-24.0
1772919170.1564956,-0.06500267537989125,1.1452394343205816,-7.195731103570482,-0.19396352075614312,-1.2325134176828474,9.723321543176604,0.0,0.002181661564992912,-0.001090830782496456,-12.75,-9.1875,-24.0
1772919170.1719682,-133.72863130000493,1.141476104576122,-7.192648616386611,-0.19263767878778534,-1.235017763098539,9.738936008416559,-0.002181661564992912,0.002181661564992912,0.001090830782496456,-12.0625,-9.1875,-22.75
1772919170.195603,-133.72863130000493,1.141476104576122,-7.192648616386611,-0.19263767878778534,-1.235017763098539,9.738936008416559,-0.002181661564992912,0.002181661564992912,0.001090830782496456,-12.0625,-9.1875,-22.75
1772919170.2367165,-133.69170071556235,1.1438470785950143,-7.1923317547177845,-0.19175534576846848,-1.2366843769973106,9.752672372316061,0.0,0.004363323129985824,-0.003272492347489368,-12.0625,-9.1875,-22.75
1772919170.255458,-133.69170071556235,1.1438470785950143,-7.1923317547177845,-0.19175534576846848,-1.2366843769973106,9.752672372316061,0.0,0.004363323129985824,-0.003272492347489368,-12.0625,-9.1875,-22.75
1772919170.273551,-133.7123821079362,1.1424461841110534,-7.192436386895304,-0.19451327470773813,-1.2377934899296459,9.761813769045942,0.0,0.0,0.001090830782496456,-12.0625,-8.5,-22.75
1772919170.2936335,-133.7123821079362,1.1424461841110534,-7.192436386895304,-0.1930035339014178,-1.231841368781873,9.767897266453584,-0.001090830782496456,0.0,0.0,-12.0625,-8.5,-22.75
1772919170.3149555,-133.7123821079362,1.1424461841110534,-7.192436386895304,-0.1930035339014178,-1.231841368781873,9.767897266453584,-0.001090830782496456,0.0,0.0,-12.0625,-8.5,-22.75
1772919170.3513577,-133.67988643258596,1.1443863441638118,-7.192011927317464,-0.19534392996704086,-1.22788029864758,9.768600654313932,0.0,0.002181661564992912,0.0,-12.375,-8.875,-22.5
1772919170.377627,-133.67988643258596,1.1443863441638118,-7.192011927317464,-0.19534392996704086,-1.22788029864758,9.768600654313932,0.0,0.002181661564992912,0.0,-12.375,-8.875,-22.5
1772919170.3937955,-133.6592098298618,1.145787239595157,-7.191907294944313,-0.18686610228281778,-1.2319344741358995,9.769068751077636,0.001090830782496456,0.002181661564992912,0.001090830782496456,-12.375,-8.875,-22.5
1772919170.4086952,-133.6592098298618,1.145787239595157,-7.191907294944313,-0.18686610228281778,-1.2319344741358995,9.769068751077636,0.001090830782496456,0.002181661564992912,0.001090830782496456,-12.375,-8.875,-22.5
1772919170.4283352,-133.65478042393877,1.1462180545729066,-7.192014892606688,-0.19125953778446594,-1.2346324826352686,9.7693802642449,-0.001090830782496456,0.003272492347489368,0.0,-12.0625,-8.875,-22.375
1772919170.5127735,-133.69613381808338,1.143416263973524,-7.192224157205586,-0.19083820832560314,-1.2330828654455495,9.769587572777883,0.0,-0.001090830782496456,0.0,-12.0625,-8.875,-22.375
1772919170.5416074,-133.69613381808338,1.143416263973524,-7.192224157205586,-0.19083820832560314,-1.2330828654455495,9.769587572777883,0.0,-0.001090830782496456,0.0,-12.0625,-8.875,-22.375
1772919170.5664153,-133.72863130000493,1.141476104576122,-7.192648616386611,-0.19055781827728838,-1.2320516125161496,9.769725534290796,0.001090830782496456,0.004363323129985824,0.0,-11.375,-9.1875,-22.375
1772919170.584164,-133.72863130000493,1.141476104576122,-7.192648616386611,-0.19055781827728838,-1.2320516125161496,9.769725534290796,0.001090830782496456,0.004363323129985824,0.0,-11.375,-9.1875,-22.375
1772919170.6180055,-133.67988643258596,1.1443863441638118,-7.192011927317464,-0.19037122183229696,-1.231365325211484,9.773162457843826,-0.001090830782496456,0.002181661564992912,-0.002181661564992912,-11.375,-9.1875,-22.375
1772919170.6340826,-133.67988643258596,1.1443863441638118,-7.192011927317464,-0.19037122183229696,-1.231365325211484,9.773162457843826,-0.001090830782496456,0.002181661564992912,-0.002181661564992912,-11.375,-9.1875,-22.375
1772919170.65567,-133.60575826125245,1.1427130414349171,-7.1941377115103595,-0.19024704398257405,-1.2342537203838801,9.772104580368097,0.0,0.0,0.001090830782496456,-11.6875,-8.875,-22.75
1772919170.6947484,-133.60575826125245,1.1427130414349171,-7.1941377115103595,-0.19350951671806033,-1.2294856916909827,9.774745686432585,-0.001090830782496456,0.002181661564992912,0.0,-11.6875,-8.875,-22.75
1772919170.7343776,-133.60575826125245,1.1427130414349171,-7.1941377115103595,-0.19350951671806033,-1.2294856916909827,9.774745686432585,-0.001090830782496456,0.002181661564992912,0.0,-11.6875,-8.875,-22.75
1772919170.7865055,-133.5895184931565,1.1436835483594208,-7.193926329821543,-0.19568065587931804,-1.2330028452728685,9.769813089600774,0.001090830782496456,0.002181661564992912,-0.001090830782496456,-11.375,-8.1875,-21.1875
1772919170.8162785,-133.5895184931565,1.1436835483594208,-7.193926329821543,-0.19712552473792147,-1.2319983599851143,9.77322072492456,-0.002181661564992912,-0.001090830782496456,0.0,-11.375,-8.1875,-21.1875
1772919170.880956,-133.5570417137018,1.1456245631932551,-7.19350356585331,-0.19474195711575998,-1.2346749979542693,9.768798244752121,0.0,-0.001090830782496456,0.0,-11.6875,-8.1875,-21.5625
1772919170.9027739,-133.5570417137018,1.1456245631932551,-7.19350356585331,-0.19315571948940646,-1.2364562706227367,9.765855133599702,0.0,0.001090830782496456,-0.002181661564992912,-11.6875,-8.1875,-21.5625
1772919170.9179265,-133.5570417137018,1.1456245631932551,-7.19350356585331,-0.19315571948940646,-1.2364562706227367,9.765855133599702,0.0,0.001090830782496456,-0.002181661564992912,-11.6875,-8.1875,-21.5625
1772919170.9349813,-133.5570417137018,1.1456245631932551,-7.19350356585331,-0.19315571948940646,-1.2364562706227367,9.765855133599702,0.0,0.001090830782496456,-0.002181661564992912,-11.6875,-8.1875,-21.5625
1772919170.979775,-133.52015191773643,1.147996394587496,-7.193188822227342,-0.18875498436118412,-1.237641687685482,9.763896526004475,-0.001090830782496456,0.0,0.001090830782496456,-12.375,-8.5,-24.375
1772919171.007518,-133.74961759645484,1.146493878666031,-7.190001893245496,-0.189171456000104,-1.2350854577914436,9.76593820623625,0.0,-0.001090830782496456,0.0,-12.375,-8.5,-24.375
1772919171.0241377,-133.72863130000493,1.141476104576122,-7.192648616386611,-0.1894486132235121,-1.23338431535192,9.767296921623434,0.0,0.002181661564992912,-0.002181661564992912,-11.375,-8.1875,-20.75
1772919171.0453615,-133.72863130000493,1.141476104576122,-7.192648616386611,-0.1894486132235121,-1.23338431535192,9.767296921623434,0.0,0.002181661564992912,-0.002181661564992912,-11.375,-8.1875,-20.75
1772919171.0874734,-133.67545481921715,1.144817158930976,-7.192119524930249,-0.19297816996696057,-1.232252224061423,9.76820113153576,-0.001090830782496456,0.002181661564992912,-0.002181661564992912,-11.375,-8.1875,-20.75
1772919171.1054356,-133.67545481921715,1.144817158930976,-7.192119524930249,-0.19297816996696057,-1.232252224061423,9.76820113153576,-0.001090830782496456,0.002181661564992912,-0.002181661564992912,-11.375,-8.1875,-20.75
1772919171.1490645,-133.6592098298618,1.145787239595157,-7.191907294944313,-0.1919819388446739,-1.2314988299538858,9.768802873131726,0.0,0.001090830782496456,0.0,-11.6875,-8.5,-22.0
1772919171.2004254,-133.6473943832112,1.146326505528953,-7.191587466946031,-0.19131895816142294,-1.2343425662986027,9.769203325441946,0.0,0.001090830782496456,-0.001090830782496456,-12.0625,-8.5,-22.75
1772919171.2504356,-133.58509581600927,1.1441143630210362,-7.194034350548841,-0.18753264021537952,-1.2362350410693954,9.769469821981053,-0.002181661564992912,0.001090830782496456,-0.001090830782496456,-12.0625,-8.5,-22.75
1772919171.2850606,-133.58509581600927,1.1441143630210362,-7.194034350548841,-0.18753264021537952,-1.2362350410693954,9.769469821981053,-0.002181661564992912,0.001090830782496456,-0.001090830782496456,-12.0625,-8.5,-22.75
1772919171.3159933,-133.46674583013638,1.1449268907502002,-7.195429936827454,-0.18668113261927455,-1.2383325923758437,9.773110308914713,0.001090830782496456,0.001090830782496456,-0.001090830782496456,-11.6875,-7.75,-23.1875
1772919171.3323746,-133.46674583013638,1.1449268907502002,-7.195429936827454,-0.18668113261927455,-1.2383325923758437,9.773110308914713,0.001090830782496456,0.001090830782496456,-0.001090830782496456,-11.6875,-7.75,-23.1875
1772919171.3482256,-133.46674583013638,1.1449268907502002,-7.195429936827454,-0.18779133083230506,-1.2355452471449682,9.775414987545634,0.001090830782496456,0.0,-0.002181661564992912,-11.6875,-7.75,-23.1875
1772919171.361119,-133.46674583013638,1.1449268907502002,-7.195429936827454,-0.18853015534135023,-1.2303451883231875,9.780293837136885,0.0,-0.001090830782496456,0.002181661564992912,-11.6875,-8.5,-23.1875
1772919171.3735385,-133.46674583013638,1.1449268907502002,-7.195429936827454,-0.18853015534135023,-1.2303451883231875,9.780293837136885,0.0,-0.001090830782496456,0.002181661564992912,-11.6875,-8.5,-23.1875
1772919171.3856978,-133.46674583013638,1.1449268907502002,-7.195429936827454,-0.18902183479890924,-1.230229718973075,9.773505321917582,0.0,-0.001090830782496456,-0.001090830782496456,-11.6875,-8.5,-23.1875
1772919171.3974268,-133.46674583013638,1.1449268907502002,-7.195429936827454,-0.19269415369281473,-1.2301528754104525,9.772332752579139,0.0,-0.001090830782496456,-0.001090830782496456,-11.6875,-8.5,-23.1875
1772919171.4146717,-133.46674583013638,1.1449268907502002,-7.195429936827454,-0.19269415369281473,-1.2301528754104525,9.772332752579139,0.0,-0.001090830782496456,-0.001090830782496456,-11.6875,-8.5,-23.1875
1772919171.4364126,-133.47856381921062,1.144386771135799,-7.195748914643622,-0.1917929291868995,-1.2334468485852452,9.771552420782863,0.0,0.001090830782496456,0.0,-11.375,-8.875,-22.0
1772919171.45786,-133.47856381921062,1.144386771135799,-7.195748914643622,-0.1878480626382309,-1.2356389509369785,9.771033118689319,0.0,0.0,0.0,-11.375,-8.875,-22.0
1772919171.4849737,-133.47856381921062,1.144386771135799,-7.195748914643622,-0.1852227980171387,-1.23375265885735,9.774032640654369,0.0,-0.002181661564992912,0.002181661564992912,-11.375,-8.875,-22.0
1772919171.5001779,-133.47856381921062,1.144386771135799,-7.195748914643622,-0.1852227980171387,-1.23375265885735,9.774032640654369,0.0,-0.002181661564992912,0.002181661564992912,-11.375,-8.875,-22.0
1772919171.5224807,-133.48297605568422,1.1439559564332797,-7.19564047070862,-0.18682082544524858,-1.2324973525496203,9.776028789015253,0.0,0.0,0.002181661564992912,-11.6875,-8.5,-22.5
1772919171.5530002,-133.48297605568422,1.1439559564332797,-7.19564047070862,-0.18682082544524858,-1.2324973525496203,9.776028789015253,0.0,0.0,0.002181661564992912,-11.6875,-8.5,-22.5
1772919171.5766895,-133.48297605568422,1.1439559564332797,-7.19564047070862,-0.18788429484751967,-1.2316619602245165,9.777357203450984,0.0,-0.003272492347489368,0.0,-11.6875,-8.5,-22.5
1772919171.5975773,-133.47856381921062,1.144386771135799,-7.195748914643622,-0.18859202185499946,-1.234451127671423,9.774896136711282,-0.001090830782496456,-0.002181661564992912,0.001090830782496456,-12.75,-9.25,-23.25
1772919171.6336515,-133.47115728844415,1.1444960759665501,-7.195321492740009,-0.18906300627264858,-1.2363072874502974,9.773258324287928,0.001090830782496456,0.0,0.0,-12.75,-9.25,-23.25
1772919171.6635814,-133.47115728844415,1.1444960759665501,-7.195321492740009,-0.18906300627264858,-1.2363072874502974,9.773258324287928,0.001090830782496456,0.0,0.0,-12.75,-9.25,-23.25
1772919171.6896462,-133.46674583013638,1.1449268907502002,-7.195429936827454,-0.18937644114135338,-1.2375425410484748,9.77216837841575,0.0,0.001090830782496456,0.0,-12.0625,-8.875,-22.75
1772919171.7212903,-133.48297605568422,1.1439559564332797,-7.19564047070862,-0.18958502854517953,-1.2350194768120557,9.774788143320626,0.0,0.001090830782496456,-0.002181661564992912,-12.0625,-8.875,-22.75
1772919171.7607763,-133.48297605568422,1.1439559564332797,-7.19564047070862,-0.18637872942503247,-1.233340405747193,9.77653156760013,-0.001090830782496456,0.0,0.0,-11.0,-8.5,-22.75
1772919171.7942388,-133.48297605568422,1.1439559564332797,-7.19564047070862,-0.18424497317728258,-1.2322230027099799,9.777691796982815,0.002181661564992912,0.0,0.001090830782496456,-11.0,-8.5,-22.75
1772919171.82647,-133.48297605568422,1.1439559564332797,-7.19564047070862,-0.18424497317728258,-1.2322230027099799,9.777691796982815,0.002181661564992912,0.0,0.001090830782496456,-11.0,-8.5,-22.75
1772919171.848598,-133.48297605568422,1.1439559564332797,-7.19564047070862,-0.1861700939373435,-1.2314793834709241,9.775118804969061,0.002181661564992912,-0.001090830782496456,0.001090830782496456,-12.0625,-9.1875,-22.5
1772919171.8644218,-133.48297605568422,1.1439559564332797,-7.19564047070862,-0.18745124029815607,-1.2276394014667844,9.773406507526111,0.0,-0.001090830782496456,-0.001090830782496456,-12.0625,-9.1875,-22.5
1772919171.8923538,-133.51102407616622,1.1424449031959587,-7.19616998161869,-0.18830382888993427,-1.2250839363384392,9.775612104412764,0.0,0.0,-0.001090830782496456,-12.0625,-9.1875,-22.5
1772919171.9434793,-133.51543930064378,1.1420140887848098,-7.196061537884929,-0.18924880757189486,-1.2222515502473428,9.77136648565151,0.001090830782496456,0.0,0.0,-11.375,-9.25,-23.25
1772919172.0306137,-133.51543930064378,1.1420140887848098,-7.196061537884929,-0.18924880757189486,-1.2222515502473428,9.77136648565151,0.001090830782496456,0.0,0.0,-11.375,-9.25,-23.25
1772919172.0533192,-133.62199894541732,1.1417425348383174,-7.194349093002302,-0.18950008983046526,-1.2214983815381424,9.767564269229116,0.0,0.0,0.001090830782496456,-10.5625,-8.875,-22.5
1772919172.1041512,-133.54820304531464,1.1464861931646244,-7.193719607658907,-0.18966731536653714,-1.217652044468296,9.765033936673552,0.0,0.0,-0.001090830782496456,-10.5625,-8.875,-22.5
1772919172.1422298,-133.6264253225258,1.1413117205324341,-7.194241072424804,-0.18985266216590932,-1.218960148297258,9.77671701069637,0.001090830782496456,-0.002181661564992912,0.001090830782496456,-11.0,-8.875,-23.5625
1772919172.2589715,-133.6264253225258,1.1413117205324341,-7.194241072424804,-0.1899019483172841,-1.21930799030773,9.781160318999147,0.001090830782496456,-0.002181661564992912,-0.001090830782496456,-12.375,-9.5625,-22.75
1772919172.3006597,-133.67988643258596,1.1443863441638118,-7.192011927317464,-0.18993474770046165,-1.219539475280049,9.787462402746959,0.0,-0.001090830782496456,0.0,-12.0625,-10.0,-23.5625
1772919172.3552115,-133.67988643258596,1.1443863441638118,-7.192011927317464,-0.18995657532357318,-1.2230386376505902,9.781621033960281,0.0,0.0,0.0,-12.0625,-10.0,-23.5625
1772919172.4140599,-133.77768229885604,1.1449853859240318,-7.190535223760687,-0.18997110136292336,-1.2253672911199804,9.777733668285112,0.0,-0.1407171709420428,0.0,-11.6875,-10.0,-22.5
1772919172.4939895,-133.77768229885604,1.1449853859240318,-7.190535223760687,-0.18997110136292336,-1.2253672911199804,9.777733668285112,0.0,-0.1407171709420428,0.0,-11.6875,-10.0,-22.5
1772919172.577961,-133.7123821079362,1.1424461841110534,-7.192436386895304,-0.1955584476862631,-1.231293398992939,9.773425051295106,-0.001090830782496456,0.001090830782496456,0.002181661564992912,-12.375,-8.875,-22.75
1772919172.7291782,-0.04361311393066091,1.143433794648755,-7.192334145172004,1.0266958855325117,0.7118138695338451,9.772279333376563,0.0015785014290927812,0.0015059815478681566,0.0,14.21779710736138,-2.588803133478174,-22.75
1772919173.2778585,-0.05919567675028172,1.1424453413231301,-7.192431094574726,1.0280132560920545,0.7171804904513204,9.78270853486208,0.002367752143639172,0.002258972321802235,0.001090830782496456,14.692372234307213,-3.086231217611293,-23.1875
1772919173.4113102,-0.05919567675028172,1.1424453413231301,-7.192431094574726,1.0297290148822325,0.7162993280543372,9.78230670065181,0.0015785014290927812,0.0015059815478681566,0.001090830782496456,14.715225191494499,-2.11422800653234,-23.5625
1772919173.5094602,-0.05919567675028172,1.1424453413231301,-7.192431094574726,1.024422008067334,0.7124139045870118,9.778189971808926,0.0,0.0,-0.001090830782496456,14.747980677040808,-2.601268382853058,-22.5
1772919173.615628,-0.05919567675028172,1.1424453413231301,-7.192431094574726,1.0171144245822463,0.7144475146376452,9.776972248599789,0.001542241488480469,-3.6259940612312275e-05,0.0,14.21779710736138,-2.588803133478174,-22.75
1772919173.659352,-0.05919567675028172,1.1424453413231301,-7.192431094574726,1.0161383328745497,0.7159109388202162,9.777985065265359,-0.0007529907739340783,0.0007892507145463906,0.001090830782496456,14.21779710736138,-2.588803133478174,-22.75
1772919173.730742,-0.05919567675028172,1.1424453413231301,-7.192431094574726,1.0202181501226377,0.7167736375285482,9.775313971735072,0.0,0.0,0.0,14.489121516888535,-2.329943973325901,-22.5
1772919173.802414,-0.05919567675028172,1.1424453413231301,-7.192431094574726,1.0202181501226377,0.7167736375285482,9.775313971735072,0.0,0.0,0.0,14.489121516888535,-2.329943973325901,-22.5
1772919173.8594284,-0.05919567675028172,1.1424453413231301,-7.192431094574726,1.0180926338131446,0.7127295522437153,9.773536388828736,-0.0007892507145463906,-0.0007529907739340783,0.0,14.489121516888535,-2.329943973325901,-22.5
1772919173.939979,-0.05919567675028172,1.1424453413231301,-7.192431094574726,1.0237987347011852,0.7159387960869896,9.761542664424061,0.0,0.0,-0.001090830782496456,14.21779710736138,-2.588803133478174,-22.75
1772919174.0013273,-0.05919567675028172,1.1424453413231301,-7.192431094574726,1.0253160619659683,0.7167921762283999,9.761026625941522,0.001542241488480469,-3.6259940612312275e-05,0.0,14.250552592907688,-3.075843509798892,-23.25
1772919174.1002302,-0.05919567675028172,1.1424453413231301,-7.192431094574726,1.022966839655006,0.7138922506157359,9.7604546673559,-0.0008255106551587029,-0.0022952322624145475,-0.001090830782496456,14.240650064548664,-1.6167999223992209,-23.5625
1772919174.1681292,-0.05919567675028172,1.1424453413231301,-7.192431094574726,1.0247624451056128,0.7154302230786914,9.760302576046383,0.0007529907739340783,-0.0007892507145463906,0.0,14.240650064548664,-1.6167999223992209,-23.5625
1772919174.208555,-0.05919567675028172,1.1424453413231301,-7.192431094574726,1.0247624451056128,0.7154302230786914,9.760302576046383,0.0007529907739340783,-0.0007892507145463906,0.0,14.240650064548664,-1.6167999223992209,-23.5625
1772919174.2426414,-0.05919567675028172,1.1424453413231301,-7.192431094574726,1.0259574004747642,0.71645372657251,9.76689158439351,-0.0008617705957710153,-0.0038374737508950164,0.0,14.1497234152529,-3.6039495379158395,-23.5625
1772919174.2677903,-0.05919567675028172,1.1424453413231301,-7.192431094574726,1.0243323353676328,0.7148257558952373,9.771276495844479,-0.0008255106551587029,-0.0022952322624145475,-0.002181661564992912,14.1497234152529,-3.6039495379158395,-23.5625
1772919174.3014789,-0.05919567675028172,1.1424453413231301,-7.192431094574726,1.0232508726920038,0.7137423595951364,9.774194605432427,3.625994061231226e-05,0.001542241488480469,0.001090830782496456,14.21779710736138,-2.588803133478174,-23.5625
1772919174.324449,-0.05919567675028172,1.1424453413231301,-7.192431094574726,1.0248402721812282,0.7106010769029734,9.776136574765786,0.0015785014290927812,0.0015059815478681566,-0.001090830782496456,14.21779710736138,-2.588803133478174,-23.5625
1772919174.349797,-0.05919567675028172,1.1424453413231301,-7.192431094574726,1.0258979997865512,0.7085105883617657,9.7740838219566,0.0,0.0,0.001090830782496456,14.21779710736138,-2.588803133478174,-23.5625
1772919174.37154,-0.05919567675028172,1.1424453413231301,-7.192431094574726,1.0258979997865512,0.7085105883617657,9.7740838219566,0.0,0.0,0.001090830782496456,14.21779710736138,-2.588803133478174,-23.5625
1772919174.3879437,-0.05919567675028172,1.1424453413231301,-7.192431094574726,1.0266019056923024,0.7071193915898792,9.772717737892837,0.001542241488480469,-3.6259940612312275e-05,0.001090830782496456,14.747980677040808,-2.601268382853058,-23.5625
1772919174.4102633,-0.05919567675028172,1.1424453413231301,-7.192431094574726,1.029490641766211,0.7085026664980009,9.77515373591588,0.0007892507145463906,0.0007529907739340783,0.0,14.747980677040808,-2.601268382853058,-23.5625
1772919174.4567683,-0.05919567675028172,1.1424453413231301,-7.192431094574726,1.0266836679781994,0.7095344142348121,9.776774865388335,0.0,0.0,-0.001090830782496456,15.22255580398664,-3.098696466986177,-22.75
1772919174.5005748,-0.05919567675028172,1.1424453413231301,-7.192431094574726,1.0248156582782295,0.7102210308282828,9.77785370894305,0.0007529907739340783,-0.0007892507145463906,0.001090830782496456,15.22255580398664,-3.098696466986177,-22.75
1772919174.5393987,-0.05919567675028172,1.1424453413231301,-7.192431094574726,1.0235725186899352,0.7106779665012275,9.775226555569922,0.0023314922030268593,0.000716730833321766,0.0,15.22255580398664,-3.098696466986177,-21.25
1772919174.5600655,-0.05919567675028172,1.1424453413231301,-7.192431094574726,1.0274746185566057,0.7108708583496167,9.776823326054652,0.0007529907739340783,-0.0007892507145463906,-0.001090830782496456,15.22255580398664,-3.098696466986177,-21.25
1772919174.5743062,-0.05919567675028172,1.1424453413231301,-7.192431094574726,1.0274746185566057,0.7108708583496167,9.776823326054652,0.0007529907739340783,-0.0007892507145463906,-0.001090830782496456,15.22255580398664,-3.098696466986177,-21.25
1772919174.5915234,-0.05919567675028172,1.1424453413231301,-7.192431094574726,1.0300714224285634,0.7109992257199768,9.777885958975144,-0.0023314922030268593,-0.000716730833321766,0.002181661564992912,15.22255580398664,-3.098696466986177,-21.25
1772919174.6191158,-0.05919567675028172,1.1424453413231301,-7.192431094574726,1.02707017102125,0.7111958465086433,9.778593129313343,0.0015785014290927812,0.0015059815478681566,0.0,14.770833634228094,-1.629265171774105,-23.5625
1772919174.6637695,-0.05919567675028172,1.1424453413231301,-7.192431094574726,1.02707017102125,0.7111958465086433,9.778593129313343,0.0015785014290927812,0.0015059815478681566,0.0,14.770833634228094,-1.629265171774105,-23.5625
1772919174.6953588,-0.05919567675028172,1.1424453413231301,-7.192431094574726,1.0250728717358577,0.7113266954471027,9.772373519859165,0.001542241488480469,-3.6259940612312275e-05,0.0,14.770833634228094,-1.629265171774105,-23.5625
1772919174.7232952,-0.05919567675028172,1.1424453413231301,-7.192431094574726,1.0250728717358577,0.7113266954471027,9.772373519859165,0.001542241488480469,-3.6259940612312275e-05,0.0,14.770833634228094,-1.629265171774105,-23.5625
1772919174.772101,-0.05919567675028172,1.1424453413231301,-7.192431094574726,1.023743691372724,0.7114137739539691,9.768234439245001,0.0,0.0,0.0,14.21779710736138,-2.588803133478174,-23.5625
1772919174.8062823,-0.05919567675028172,1.1424453413231301,-7.192431094574726,1.0275885320648777,0.7113605299899086,9.768825039040154,-0.0007892507145463906,-0.0007529907739340783,0.001090830782496456,14.21779710736138,-2.588803133478174,-23.5625
1772919174.8550558,-0.05919567675028172,1.1424453413231301,-7.192431094574726,1.030147230595821,0.7113250967266003,9.772563188313715,0.0,0.0,0.001090830782496456,14.974084351646772,-2.385552416059497,-21.5625
1772919174.8694482,-0.05919567675028172,1.1424453413231301,-7.192431094574726,1.030147230595821,0.7113250967266003,9.772563188313715,0.0,0.0,0.001090830782496456,14.974084351646772,-2.385552416059497,-21.5625
1772919174.88563,-0.05919567675028172,1.1424453413231301,-7.192431094574726,1.0295409150665027,0.7137218108424596,9.775050884897407,0.0,0.0,0.0,14.974084351646772,-2.385552416059497,-21.5625
1772919174.9038033,-0.05919567675028172,1.1424453413231301,-7.192431094574726,1.0268283180356035,0.7177370918702884,9.776706419184462,-0.0007892507145463906,-0.0007529907739340783,0.0,14.974084351646772,-2.385552416059497,-21.5625
1772919174.9377449,-0.05919567675028172,1.1424453413231301,-7.192431094574726,1.0273322158323603,0.7179889219839052,9.777808158758967,0.0023314922030268593,0.000716730833321766,0.002181661564992912,14.963696643834368,-2.82737205745902,-22.0
1772919175.0067563,-0.05919567675028172,1.1424453413231301,-7.192431094574726,1.0252472596304194,0.7158474112922643,9.771851130723924,-0.0007892507145463906,-0.0007529907739340783,0.0,14.963696643834368,-2.82737205745902,-22.0
1772919175.0365846,-0.05919567675028172,1.1424453413231301,-7.192431094574726,1.02628003912529,0.7167313606683452,9.771231906818286,-0.0007892507145463906,-0.0007529907739340783,0.0,15.461124727967487,-2.3527969305131866,-22.75
1772919175.055645,-0.05919567675028172,1.1424453413231301,-7.192431094574726,1.0245470477854481,0.7150105182846397,9.770819820226269,-0.0007529907739340783,0.0007892507145463906,-0.001090830782496456,15.461124727967487,-2.3527969305131866,-22.75
1772919175.0743482,-0.05919567675028172,1.1424453413231301,-7.192431094574726,1.0245470477854481,0.7150105182846397,9.770819820226269,-0.0007529907739340783,0.0007892507145463906,-0.001090830782496456,15.461124727967487,-2.3527969305131866,-22.75
1772919175.0911222,-0.05919567675028172,1.1424453413231301,-7.192431094574726,1.023393761407565,0.7138653169013526,9.77054558120259,0.0016147613697050935,0.0030482230363486256,0.001090830782496456,15.461124727967487,-2.3527969305131866,-22.75
1772919175.1078162,-0.05919567675028172,1.1424453413231301,-7.192431094574726,1.023393761407565,0.7138653169013526,9.77054558120259,0.0016147613697050935,0.0030482230363486256,0.001090830782496456,15.461124727967487,-2.3527969305131866,-22.75
1772919175.1411183,-0.05919567675028172,1.1424453413231301,-7.192431094574726,1.0226262622061366,0.7131031981735126,9.770363078195782,0.0007892507145463906,0.0007529907739340783,0.001090830782496456,14.489121516888535,-2.329943973325901,-22.5
1772919175.1686447,-0.05919567675028172,1.1424453413231301,-7.192431094574726,1.022115500061114,0.7125960166735591,9.770241624483443,0.0015785014290927812,0.0015059815478681566,-0.001090830782496456,14.489121516888535,-2.329943973325901,-22.5
1772919175.186212,-0.05919567675028172,1.1424453413231301,-7.192431094574726,1.0217755935591883,0.7122584930509288,9.763470574979971,0.0015059815478681566,-0.0015785014290927812,0.0,15.22255580398664,-3.098696466986177,-22.5
1772919175.250747,-0.05919567675028172,1.1424453413231301,-7.192431094574726,1.0215493895791612,0.712033874850454,9.762309628880308,-0.0007892507145463906,-0.0007529907739340783,-0.001090830782496456,15.22255580398664,-3.098696466986177,-22.5
1772919175.300277,-0.05919567675028172,1.1424453413231301,-7.192431094574726,1.0213988533573173,0.7118843939471878,9.7615370322196,0.001542241488480469,-3.6259940612312275e-05,-0.001090830782496456,14.489121516888535,-2.329943973325901,-24.0
1772919175.319617,-0.05919567675028172,1.1424453413231301,-7.192431094574726,1.0212986731832798,0.7117849160758754,9.764367989479688,-0.0007529907739340783,0.0007892507145463906,0.001090830782496456,14.489121516888535,-2.329943973325901,-24.0
1772919175.3480148,-0.05919567675028172,1.1424453413231301,-7.192431094574726,1.0212986731832798,0.7117849160758754,9.764367989479688,-0.0007529907739340783,0.0007892507145463906,0.001090830782496456,14.489121516888535,-2.329943973325901,-24.0
1772919175.3807251,-0.05919567675028172,1.1424453413231301,-7.192431094574726,1.0236522989533192,0.7140278154828834,9.766251959912411,0.0,0.0,0.001090830782496456,15.245408761173927,-2.1266932559072242,-22.5
1772919175.4060283,-0.05919567675028172,1.1424453413231301,-7.192431094574726,1.0252186106115582,0.7155204399834193,9.77085083289738,-0.0007892507145463906,-0.0007529907739340783,0.002181661564992912,15.245408761173927,-2.1266932559072242,-22.5
1772919175.4285884,-0.05919567675028172,1.1424453413231301,-7.192431094574726,1.0252186106115582,0.7155204399834193,9.77085083289738,-0.0007892507145463906,-0.0007529907739340783,0.002181661564992912,15.245408761173927,-2.1266932559072242,-22.5
1772919175.4629605,-0.05919567675028172,1.1424453413231301,-7.192431094574726,1.0262609735232684,0.7165137649148178,9.7739113314961,0.0,0.0,-0.001090830782496456,14.476656267513652,-2.860127543005331,-23.25
1772919175.4896958,-0.05919567675028172,1.1424453413231301,-7.192431094574726,1.0262609735232684,0.7165137649148178,9.7739113314961,0.0,0.0,-0.001090830782496456,14.476656267513652,-2.860127543005331,-23.25
1772919175.529339,-0.05919567675028172,1.1424453413231301,-7.192431094574726,1.026954654397055,0.7171748115604968,9.775948059125538,0.0008255106551587029,0.0022952322624145475,0.0,14.476656267513652,-2.860127543005331,-23.25
1772919175.5707614,-37.8920060944373,-19.047295989996464,127.92423965896343,1.0274162912696365,0.7176147307188214,9.777303478611191,-3.625994061231226e-05,-0.001542241488480469,-0.001090830782496456,14.715225191494499,-2.11422800653234,-22.5
1772919175.604718,-0.05919567675028172,1.1424453413231301,-7.192431094574726,1.0253032108947424,0.7155983911853414,9.774860383430546,0.0007892507145463906,0.0007529907739340783,0.001090830782496456,14.715225191494499,-2.11422800653234,-22.5
1772919175.643902,-0.05919567675028172,1.1424453413231301,-7.192431094574726,1.0238969795099049,0.714256539749799,9.773234530878987,0.001542241488480469,-3.6259940612312275e-05,0.002181661564992912,14.692372234307213,-3.086231217611293,-22.5
1772919175.6942575,-0.05919567675028172,1.1424453413231301,-7.192431094574726,1.0229611482319294,0.7133635526089082,9.772152544167888,0.0007529907739340783,-0.0007892507145463906,0.0,14.692372234307213,-3.086231217611293,-22.5
1772919175.730797,-0.05919567675028172,1.1424453413231301,-7.192431094574726,1.0229611482319294,0.7133635526089082,9.772152544167888,0.0007529907739340783,-0.0007892507145463906,0.0,14.692372234307213,-3.086231217611293,-22.5
1772919175.7749333,-0.05919567675028172,1.1424453413231301,-7.192431094574726,1.022338362970357,0.7127692796419653,9.771432494098235,-3.625994061231226e-05,-0.001542241488480469,-0.001090830782496456,13.775977465961855,-2.5784154256657725,-22.5
1772919175.8107858,-0.05919567675028172,1.1424453413231301,-7.192431094574726,1.0243442008925234,0.714682898440055,9.770953308820367,-3.625994061231226e-05,-0.001542241488480469,0.001090830782496456,13.775977465961855,-2.5784154256657725,-22.5
1772919175.8487487,-0.05919567675028172,1.1424453413231301,-7.192431094574726,1.0243442008925234,0.714682898440055,9.770953308820367,-3.625994061231226e-05,-0.001542241488480469,0.001090830782496456,13.775977465961855,-2.5784154256657725,-22.5
1772919175.8693273,-0.05919567675028172,1.1424453413231301,-7.192431094574726,1.0280993581798228,0.7182654911927867,9.770634416370797,0.0007892507145463906,0.0007529907739340783,0.0,14.692372234307213,-3.086231217611293,-22.75
1772919175.8840969,-0.05919567675028172,1.1424453413231301,-7.192431094574726,1.030598373406665,0.7206496666495464,9.77042219700787,-0.001542241488480469,3.6259940612312275e-05,-0.001090830782496456,14.692372234307213,-3.086231217611293,-22.75
1772919175.9002478,-0.05919567675028172,1.1424453413231301,-7.192431094574726,1.030598373406665,0.7206496666495464,9.77042219700787,-0.001542241488480469,3.6259940612312275e-05,-0.001090830782496456,14.692372234307213,-3.086231217611293,-22.75
1772919175.9270613,-0.05919567675028172,1.1424453413231301,-7.192431094574726,1.0298411455675238,0.7199272079639093,9.770280967392488,-0.0007892507145463906,-0.0007529907739340783,-0.001090830782496456,14.692372234307213,-3.086231217611293,-22.75
1772919175.9471953,-0.05919567675028172,1.1424453413231301,-7.192431094574726,1.0298411455675238,0.7199272079639093,9.770280967392488,-0.0007892507145463906,-0.0007529907739340783,-0.001090830782496456,14.692372234307213,-3.086231217611293,-22.75
1772919175.9683902,-0.05919567675028172,1.1424453413231301,-7.192431094574726,1.0293372188993648,0.71944641977901,9.770186980661089,0.0007892507145463906,0.0007529907739340783,0.0,14.489121516888535,-2.329943973325901,-23.5625
1772919175.9887626,-0.05919567675028172,1.1424453413231301,-7.192431094574726,1.0290018613309344,0.7191264606127153,9.770124433541243,0.001542241488480469,-3.6259940612312275e-05,0.0,14.489121516888535,-2.329943973325901,-23.5625
1772919176.013139,-0.05919567675028172,1.1424453413231301,-7.192431094574726,1.0290018613309344,0.7191264606127153,9.770124433541243,0.001542241488480469,-3.6259940612312275e-05,0.0,14.489121516888535,-2.329943973325901,-23.5625
1772919176.064626,-0.05919567675028172,1.1424453413231301,-7.192431094574726,1.0287786846153337,0.7189135313617245,9.770082809131683,0.0023314922030268593,0.000716730833321766,0.001090830782496456,14.489121516888535,-2.329943973325901,-23.5625
1772919176.1083784,-0.05919567675028172,1.1424453413231301,-7.192431094574726,1.0286301630041486,0.7187718293237656,9.770055108552096,0.0015059815478681566,-0.0015785014290927812,0.0,14.963696643834368,-2.82737205745902,-22.75
1772919176.1423428,-0.05919567675028172,1.1424453413231301,-7.192431094574726,1.0285313235309999,0.7186775282004194,9.770036674125818,0.00312074291757325,0.0014697216072558446,0.1407171709420428,14.963696643834368,-2.82737205745902,-22.75
1772919176.16465,-0.05919567675028172,1.1424453413231301,-7.192431094574726,1.028465546965729,0.7186147718562451,9.770024406221054,-0.0007892507145463906,-0.0007529907739340783,0.001090830782496456,15.027130073364507,-3.8898167383803592,-22.5
1772919176.1972744,-0.05919567675028172,1.1424453413231301,-7.192431094574726,1.0283105796586638,0.71384361283433,9.770016242067475,0.0015785014290927812,0.0015059815478681566,-0.001090830782496456,15.027130073364507,-3.8898167383803592,-22.5
1772919176.229792,-0.05919567675028172,1.1424453413231301,-7.192431094574726,1.0283105796586638,0.71384361283433,9.770016242067475,0.0015785014290927812,0.0015059815478681566,-0.001090830782496456,15.027130073364507,-3.8898167383803592,-22.5
1772919176.2673368,-0.05919567675028172,1.1424453413231301,-7.192431094574726,1.025898349827784,0.7130887543593593,9.770010808914469,0.0007892507145463906,0.0007529907739340783,0.0,15.22255580398664,-3.098696466986177,-24.0
1772919176.2929828,-0.05919567675028172,1.1424453413231301,-7.192431094574726,1.0272556941620201,0.7160978778611278,9.766659675294804,-0.00312074291757325,-0.0014697216072558446,-0.002181661564992912,15.22255580398664,-3.098696466986177,-24.0
1772919176.312115,-0.05919567675028172,1.1424453413231301,-7.192431094574726,1.0272556941620201,0.7160978778611278,9.766659675294804,-0.00312074291757325,-0.0014697216072558446,-0.002181661564992912,15.22255580398664,-3.098696466986177,-24.0
1772919176.3467026,-0.05919567675028172,1.1424453413231301,-7.192431094574726,1.0276166298703864,0.716898043372029,9.764431939515244,-0.0015785014290927812,-0.0015059815478681566,-0.001090830782496456,14.770833634228094,-1.629265171774105,-23.5625
1772919176.38001,-0.05919567675028172,1.1424453413231301,-7.192431094574726,1.0301659293715142,0.7150102500243238,9.762949406239386,-0.0007892507145463906,-0.0007529907739340783,0.0,14.770833634228094,-1.629265171774105,-23.5625
1772919176.3987906,-0.05919567675028172,1.1424453413231301,-7.192431094574726,1.0295533588928474,0.716174239196235,9.765307908612604,3.625994061231226e-05,0.001542241488480469,0.001090830782496456,14.770833634228094,-1.629265171774105,-23.5625
1772919176.4171913,-0.05919567675028172,1.1424453413231301,-7.192431094574726,1.0291457000821553,0.7169488609875309,9.766877465595783,-0.0007892507145463906,-0.0007529907739340783,-0.001090830782496456,14.273405550094974,-2.1038402987199385,-23.25
1772919176.449572,-0.05919567675028172,1.1424453413231301,-7.192431094574726,1.028874407697487,0.7174643631365457,9.767921988234988,-0.0008255106551587029,-0.0022952322624145475,-0.002181661564992912,14.273405550094974,-2.1038402987199385,-23.25
1772919176.478349,-0.05919567675028172,1.1424453413231301,-7.192431094574726,1.0286938656460247,0.717807424058179,9.768617106383298,-3.625994061231226e-05,-0.001542241488480469,-0.002181661564992912,14.273405550094974,-2.1038402987199385,-23.25
1772919176.5013561,-0.05919567675028172,1.1424453413231301,-7.192431094574726,1.0286938656460247,0.717807424058179,9.768617106383298,-3.625994061231226e-05,-0.001542241488480469,-0.002181661564992912,14.273405550094974,-2.1038402987199385,-23.25
1772919176.5184536,-0.05919567675028172,1.1424453413231301,-7.192431094574726,1.0261534223707878,0.7157266264501583,9.769079699746019,-0.0015785014290927812,-0.0015059815478681566,-0.001090830782496456,14.715225191494499,-2.11422800653234,-23.5625
1772919176.5338054,-0.05919567675028172,1.1424453413231301,-7.192431094574726,1.0268830803065043,0.7166509797051789,9.776077773876041,0.0023314922030268593,0.000716730833321766,0.0,14.715225191494499,-2.11422800653234,-23.5625
1772919176.5559762,-0.05919567675028172,1.1424453413231301,-7.192431094574726,1.0268830803065043,0.7166509797051789,9.776077773876041,0.0023314922030268593,0.000716730833321766,0.0,14.715225191494499,-2.11422800653234,-23.5625
1772919176.5772696,-0.05919567675028172,1.1424453413231301,-7.192431094574726,1.0273686595119103,0.7172661264706925,9.780734914035962,0.000716730833321766,-0.0023314922030268598,0.001090830782496456,14.476656267513652,-2.860127543005331,-23.5625
1772919176.6002505,-0.05919567675028172,1.1424453413231301,-7.192431094574726,1.0276918070488326,0.7176754997715022,9.783834188788726,-0.0023314922030268593,-0.000716730833321766,0.0,14.476656267513652,-2.860127543005331,-23.5625
1772919176.6348631,-0.05919567675028172,1.1424453413231301,-7.192431094574726,1.030215958943986,0.7155276385734163,9.779206498100882,0.0007529907739340783,-0.0007892507145463906,0.0,14.476656267513652,-2.860127543005331,-23.5625
1772919176.6583104,-0.05919567675028172,1.1424453413231301,-7.192431094574726,1.030215958943986,0.7155276385734163,9.779206498100882,0.0007529907739340783,-0.0007892507145463906,0.0,14.476656267513652,-2.860127543005331,-23.5625
1772919176.6875067,-0.05919567675028172,1.1424453413231301,-7.192431094574726,1.0271663584576851,0.7142094546769213,9.776126821642814,0.0007529907739340783,-0.0007892507145463906,0.0,15.027130073364507,-3.8898167383803592,-22.0
1772919176.7174327,-0.05919567675028172,1.1424453413231301,-7.192431094574726,1.0251368834003212,0.7133322180188827,9.77407733136221,-0.0023314922030268593,-0.000716730833321766,0.0,15.027130073364507,-3.8898167383803592,-22.0
1772919176.7540798,125.30757598221464,48.34754709083627,153.85523949789453,1.026206584977143,0.7150575276414597,9.776058530182095,-0.001542241488480469,3.6259940612312275e-05,0.002181661564992912,14.489121516888535,-2.329943973325901,-22.75
1772919176.7746556,-0.05919567675028172,1.1424453413231301,-7.192431094574726,1.026918459427168,0.7162057019223133,9.777376995865286,0.0007529907739340783,-0.0007892507145463906,0.0,14.489121516888535,-2.329943973325901,-22.75
1772919176.7948754,-0.05919567675028172,1.1424453413231301,-7.192431094574726,1.026918459427168,0.7162057019223133,9.777376995865286,0.0007529907739340783,-0.0007892507145463906,0.0,14.489121516888535,-2.329943973325901,-22.75
1772919176.8188016,-0.05919567675028172,1.1424453413231301,-7.192431094574726,1.0273922039215013,0.7169697990802743,9.781599531756543,3.625994061231226e-05,0.001542241488480469,0.0,14.489121516888535,-2.329943973325901,-22.75
1772919176.8584166,-0.05919567675028172,1.1424453413231301,-7.192431094574726,1.0277074755904074,0.7174782972033728,9.777719358808719,3.625994061231226e-05,0.001542241488480469,-0.001090830782496456,15.087378778676442,-1.3272628182631196,-23.25
1772919176.9102256,-0.05919567675028172,1.1424453413231301,-7.192431094574726,1.027917285364249,0.7178166970239985,9.775137147056315,0.0015785014290927812,0.0015059815478681566,-0.002181661564992912,15.087378778676442,-1.3272628182631196,-23.25
1772919176.935016,-0.05919567675028172,1.1424453413231301,-7.192431094574726,1.0234387097867599,0.7228824874380023,9.773418713980284,0.0023314922030268593,0.000716730833321766,0.001090830782496456,14.476656267513652,-2.860127543005331,-24.0
1772919176.96089,-0.05919567675028172,1.1424453413231301,-7.192431094574726,1.0234387097867599,0.7228824874380023,9.773418713980284,0.0023314922030268593,0.000716730833321766,0.001090830782496456,14.476656267513652,-2.860127543005331,-24.0
1772919176.9888546,-0.05919567675028172,1.1424453413231301,-7.192431094574726,1.0180379732121327,0.7239446135508091,9.77227511596434,0.0015059815478681566,-0.0015785014290927812,-0.001090830782496456,14.476656267513652,-2.860127543005331,-24.0
1772919177.0157506,-0.05919567675028172,1.1424453413231301,-7.192431094574726,1.0190620449901509,0.7198108575006049,9.764823840844919,0.0023314922030268593,0.000716730833321766,0.0,15.049983030551791,-2.917813527301406,-22.875
1772919177.033846,-0.05919567675028172,1.1424453413231301,-7.192431094574726,1.0190620449901509,0.7198108575006049,9.764823840844919,0.0023314922030268593,0.000716730833321766,0.0,15.049983030551791,-2.917813527301406,-22.875
1772919177.0667715,-0.05919567675028172,1.1424453413231301,-7.192431094574726,1.0197435533187904,0.7170598890262748,9.759865100489142,0.0007892507145463906,0.0007529907739340783,-0.002181661564992912,15.049983030551791,-2.917813527301406,-22.875
1772919177.0963075,-0.05919567675028172,1.1424453413231301,-7.192431094574726,1.0201970894985533,0.7152291502369396,9.763255337589769,-0.002295232262414547,0.0008255106551587029,0.0,15.22255580398664,-3.098696466986177,-22.75
1772919177.1425686,-0.05919567675028172,1.1424453413231301,-7.192431094574726,1.0204989127598545,0.7140108140233292,9.768856614216126,-0.0007529907739340783,0.0007892507145463906,-0.001090830782496456,15.22255580398664,-3.098696466986177,-22.75
1772919177.1953113,-0.05919567675028172,1.1424453413231301,-7.192431094574726,1.023120067325439,0.7155091257020046,9.769239089533288,-0.0015785014290927812,-0.0015059815478681566,-0.001090830782496456,14.770833634228094,-1.629265171774105,-22.5
1772919177.2373123,-0.05919567675028172,1.1424453413231301,-7.192431094574726,1.0248644164086205,0.7165062353869251,9.76949362258433,0.002367752143639172,0.002258972321802235,-0.001090830782496456,14.770833634228094,-1.629265171774105,-22.5
1772919177.2691593,-0.05919567675028172,1.1424453413231301,-7.192431094574726,1.026025261237822,0.7171698007437947,9.769663011486477,-0.0007892507145463906,-0.0007529907739340783,-0.001090830782496456,15.54741111468491,-2.4432384003555723,-23.25
1772919177.3005056,-0.05919567675028172,1.1424453413231301,-7.192431094574726,1.026797790504169,0.7176113960762807,9.769775737908658,3.625994061231226e-05,0.001542241488480469,-0.001090830782496456,15.54741111468491,-2.4432384003555723,-23.25
1772919177.3277793,-0.05919567675028172,1.1424453413231301,-7.192431094574726,1.0273119001012057,0.7179052728371069,9.769850756083382,-0.0023314922030268593,-0.000716730833321766,-0.002181661564992912,15.54741111468491,-2.4432384003555723,-23.25
1772919177.366841,-0.05919567675028172,1.1424453413231301,-7.192431094574726,1.025344933475927,0.7205211390953938,9.769900679840655,0.0007892507145463906,0.0007529907739340783,-0.002181661564992912,15.75066183210359,-3.1995256446409646,-23.25
1772919177.392098,-0.05919567675028172,1.1424453413231301,-7.192431094574726,1.024035939159261,0.722261968869143,9.769933903543434,0.0023314922030268593,0.000716730833321766,0.001090830782496456,15.75066183210359,-3.1995256446409646,-23.25
1772919177.442716,-0.05919567675028172,1.1424453413231301,-7.192431094574726,1.0207445235071688,0.7211113708181043,9.766610901839181,0.001542241488480469,-3.6259940612312275e-05,0.002181661564992912,15.189800318440332,-2.6116560906654596,-22.75
1772919177.458382,-0.05919567675028172,1.1424453413231301,-7.192431094574726,1.0207445235071688,0.7211113708181043,9.766610901839181,0.001542241488480469,-3.6259940612312275e-05,0.002181661564992912,15.189800318440332,-2.6116560906654596,-22.75
1772919177.4915648,-0.05919567675028172,1.1424453413231301,-7.192431094574726,1.0209422178142835,0.7158051155690679,9.768499051857797,0.0007892507145463906,0.0007529907739340783,-0.001090830782496456,15.189800318440332,-2.6116560906654596,-22.75
1772919177.5090048,-0.05919567675028172,1.1424453413231301,-7.192431094574726,1.0234150818871197,0.7167032133370321,9.769001135778053,-0.0007892507145463906,-0.0007529907739340783,0.001090830782496456,15.245408761173927,-2.1266932559072242,-22.5
1772919177.552248,-0.05919567675028172,1.1424453413231301,-7.192431094574726,1.027481039860666,0.7196099881883289,9.769335267018338,0.0007529907739340783,-0.0007892507145463906,-0.001090830782496456,15.245408761173927,-2.1266932559072242,-22.5
1772919177.6005464,-0.05919567675028172,1.1424453413231301,-7.192431094574726,1.027481039860666,0.7196099881883289,9.769335267018338,0.0007529907739340783,-0.0007892507145463906,-0.001090830782496456,15.245408761173927,-2.1266932559072242,-22.5
1772919177.630421,-0.05919567675028172,1.1424453413231301,-7.192431094574726,1.0301868894723343,0.7215444143810642,9.772902739333578,0.0007892507145463906,0.0007529907739340783,0.001090830782496456,14.511974474075819,-1.357940762246948,-22.75
1772919177.6723158,-0.05919567675028172,1.1424453413231301,-7.192431094574726,1.0272582067866776,0.7229429471410227,9.775276852308092,0.0007529907739340783,-0.0007892507145463906,-0.001090830782496456,14.511974474075819,-1.357940762246948,-22.75
1772919177.7042623,-0.05919567675028172,1.1424453413231301,-7.192431094574726,1.0272582067866776,0.7229429471410227,9.775276852308092,0.0007529907739340783,-0.0007892507145463906,-0.001090830782496456,14.511974474075819,-1.357940762246948,-22.75
1772919177.731176,-0.05919567675028172,1.1424453413231301,-7.192431094574726,1.0272582067866776,0.7229429471410227,9.775276852308092,0.0007529907739340783,-0.0007892507145463906,-0.001090830782496456,14.511974474075819,-1.357940762246948,-22.75
1772919177.7632377,-0.05919567675028172,1.1424453413231301,-7.192431094574726,1.0227777128804771,0.7168351588751131,9.776856797972052,0.000716730833321766,-0.0023314922030268598,-0.003272492347489368,14.273405550094974,-2.1038402987199385,-23.5625
1772919177.7967024,-0.05919567675028172,1.1424453413231301,-7.192431094574726,1.0222162887930728,0.7150795948317417,9.777908234162267,0.0015059815478681566,-0.0015785014290927812,0.001090830782496456,14.273405550094974,-2.1038402987199385,-23.5625
1772919177.8327458,-0.05919567675028172,1.1424453413231301,-7.192431094574726,1.0222162887930728,0.7150795948317417,9.777908234162267,0.0015059815478681566,-0.0015785014290927812,0.001090830782496456,14.273405550094974,-2.1038402987199385,-23.5625
1772919177.8721926,-0.05919567675028172,1.1424453413231301,-7.192431094574726,1.021842667334423,0.7139112865718134,9.768572618079586,-0.0023314922030268593,-0.000716730833321766,0.0,14.476656267513652,-2.860127543005331,-23.25
1772919177.895272,-0.05919567675028172,1.1424453413231301,-7.192431094574726,1.021594026427317,0.7131337904756895,9.769050093276865,0.0015785014290927812,0.0015059815478681566,0.001090830782496456,14.476656267513652,-2.860127543005331,-23.25
1772919177.9132361,-0.05919567675028172,1.1424453413231301,-7.192431094574726,1.023848853237914,0.7149254763280454,9.769367847686906,-0.001542241488480469,3.6259940612312275e-05,0.0,14.476656267513652,-2.860127543005331,-23.25
1772919177.9789248,-0.05919567675028172,1.1424453413231301,-7.192431094574726,1.023848853237914,0.7149254763280454,9.769367847686906,-0.001542241488480469,3.6259940612312275e-05,0.0,14.476656267513652,-2.860127543005331,-23.25
1772919178.0146432,-0.05919567675028172,1.1424453413231301,-7.192431094574726,1.0253494152923006,0.7161178232483458,9.76957930969724,0.0008617705957710153,0.0038374737508950164,0.0,14.747980677040808,-2.601268382853058,-24.0
1772919178.051728,-0.05919567675028172,1.1424453413231301,-7.192431094574726,1.0263480225771184,0.716911316804418,9.769720035302932,0.0008255106551587029,0.0022952322624145475,0.001090830782496456,14.747980677040808,-2.601268382853058,-24.0
1772919178.1354327,-0.05919567675028172,1.1424453413231301,-7.192431094574726,1.027454843152603,0.7177907966637456,9.769876010527872,0.0007892507145463906,0.0007529907739340783,-0.001090830782496456,14.770833634228094,-1.629265171774105,-23.25
1772919178.1710446,-0.05919567675028172,1.1424453413231301,-7.192431094574726,1.0277491612989793,0.7180246619240289,9.769917486391352,0.0,0.0,0.0,12.929248751834075,-2.8679525298018738,-22.75
1772919178.2036376,-0.05919567675028172,1.1424453413231301,-7.192431094574726,1.0277491612989793,0.7180246619240289,9.769917486391352,0.0,0.0,0.0,12.929248751834075,-2.8679525298018738,-22.75
1772919178.2234473,-0.05919567675028172,1.1424453413231301,-7.192431094574726,1.0302541275567696,0.7157600020855259,9.769945088115183,0.00312074291757325,0.0014697216072558446,0.0,12.929248751834075,-2.8679525298018738,-22.75
1772919178.245412,-0.05919567675028172,1.1424453413231301,-7.192431094574726,1.0319211546190226,0.7142528962609102,9.76661834504674,-0.0030482230363486256,0.0016147613697050937,0.0,14.489121516888535,-2.329943973325901,-22.75
1772919178.2664008,-0.05919567675028172,1.1424453413231301,-7.192431094574726,1.0319211546190226,0.7142528962609102,9.76661834504674,-0.0030482230363486256,0.0016147613697050937,0.0,14.489121516888535,-2.329943973325901,-22.75
1772919178.2866294,-0.05919567675028172,1.1424453413231301,-7.192431094574726,1.0307214416879134,0.7156702287268789,9.764404434696848,0.0007892507145463906,0.0007529907739340783,-0.002181661564992912,14.489121516888535,-2.329943973325901,-22.75
1772919178.3064256,-0.05919567675028172,1.1424453413231301,-7.192431094574726,1.0323433406907074,0.7189225484694662,9.762931102089993,0.0007892507145463906,0.0007529907739340783,0.001090830782496456,14.489121516888535,-2.329943973325901,-22.75
1772919178.3313293,-0.05919567675028172,1.1424453413231301,-7.192431094574726,1.0323433406907074,0.7189225484694662,9.762931102089993,0.0007892507145463906,0.0007529907739340783,0.001090830782496456,14.489121516888535,-2.329943973325901,-22.75
1772919178.3518226,-0.05919567675028172,1.1424453413231301,-7.192431094574726,1.0334226963592679,0.721086930927366,9.765295727405654,0.0007892507145463906,0.0007529907739340783,0.001090830782496456,14.760445926415692,-2.071084813173628,-23.5625
1772919178.3850293,-0.05919567675028172,1.1424453413231301,-7.192431094574726,1.0317207009427265,0.7202182024562361,9.766869359138632,0.0007892507145463906,0.0007529907739340783,0.0,14.760445926415692,-2.071084813173628,-23.5625
1772919178.406027,-0.05919567675028172,1.1424453413231301,-7.192431094574726,1.0317207009427265,0.7202182024562361,9.766869359138632,0.0007892507145463906,0.0007529907739340783,0.0,14.760445926415692,-2.071084813173628,-23.5625
1772919178.4409063,-0.05919567675028172,1.1424453413231301,-7.192431094574726,1.0305880420055529,0.7196400733630322,9.771261705185628,-0.0023314922030268593,-0.000716730833321766,0.0,14.489121516888535,-2.329943973325901,-22.5
1772919178.459524,-0.05919567675028172,1.1424453413231301,-7.192431094574726,1.029834270135493,0.7192553349096299,9.774184762414185,0.0,0.0,0.001090830782496456,14.489121516888535,-2.329943973325901,-22.5
1772919178.4809878,-0.05919567675028172,1.1424453413231301,-7.192431094574726,1.029834270135493,0.7192553349096299,9.774184762414185,0.0,0.0,0.001090830782496456,14.489121516888535,-2.329943973325901,-22.5
1772919178.4981258,-0.05919567675028172,1.1424453413231301,-7.192431094574726,1.0269123488193763,0.7166901949475749,9.7761300243471,0.002367752143639172,0.002258972321802235,0.002181661564992912,14.760445926415692,-2.071084813173628,-22.5
1772919178.526422,-0.05919567675028172,1.1424453413231301,-7.192431094574726,1.0249678428235005,0.7149831229573183,9.774079462726137,0.0008255106551587029,0.0022952322624145475,-0.001090830782496456,14.760445926415692,-2.071084813173628,-22.5
1772919178.5544283,-0.05919567675028172,1.1424453413231301,-7.192431094574726,1.0236737958048001,0.713847085617046,9.77605994858098,-3.625994061231226e-05,-0.001542241488480469,-0.001090830782496456,14.760445926415692,-2.071084813173628,-22.5
1772919178.5725486,-0.05919567675028172,1.1424453413231301,-7.192431094574726,1.0236737958048001,0.713847085617046,9.77605994858098,-3.625994061231226e-05,-0.001542241488480469,-0.001090830782496456,14.760445926415692,-2.071084813173628,-22.5
1772919178.5874388,-0.05919567675028172,1.1424453413231301,-7.192431094574726,1.0251217227884335,0.7106707709006879,9.77403282808658,-3.625994061231226e-05,-0.001542241488480469,-0.001090830782496456,14.499509224700937,-1.8881243319263779,-23.25
1772919178.6059918,-0.05919567675028172,1.1424453413231301,-7.192431094574726,1.0261964957592866,0.7132863643146132,9.772683802041978,-0.001542241488480469,3.6259940612312275e-05,-0.001090830782496456,14.499509224700937,-1.8881243319263779,-23.25
1772919178.6374006,-0.05919567675028172,1.1424453413231301,-7.192431094574726,1.0269117451653889,0.7150270125134877,9.771786040278903,0.00312074291757325,0.0014697216072558446,0.001090830782496456,14.499509224700937,-1.8881243319263779,-23.25
1772919178.6579869,-0.05919567675028172,1.1424453413231301,-7.192431094574726,1.0273877356552905,0.7161853944455243,9.771188589854232,0.0007529907739340783,-0.0007892507145463906,-0.002181661564992912,14.489121516888535,-2.329943973325901,-21.5625
1772919178.6941044,-0.05919567675028172,1.1424453413231301,-7.192431094574726,1.0273877356552905,0.7161853944455243,9.771188589854232,0.0007529907739340783,-0.0007892507145463906,-0.002181661564992912,14.489121516888535,-2.329943973325901,-21.5625
1772919178.720154,-0.05919567675028172,1.1424453413231301,-7.192431094574726,1.0277045020091577,0.7169562846813207,9.770790993270573,-0.0015785014290927812,-0.0015059815478681566,-0.002181661564992912,14.489121516888535,-2.329943973325901,-21.5625
1772919178.7488596,-0.05919567675028172,1.1424453413231301,-7.192431094574726,1.0254950119223691,0.715160202702709,9.770526397185593,0.004699244346666031,0.002975703155124001,0.0,14.974084351646772,-2.385552416059497,-22.75
1772919178.7690475,-0.05919567675028172,1.1424453413231301,-7.192431094574726,1.0240246209512325,0.713964930209493,9.77035031144677,0.000716730833321766,-0.0023314922030268598,-0.003272492347489368,14.974084351646772,-2.385552416059497,-22.75
1772919178.790953,-0.05919567675028172,1.1424453413231301,-7.192431094574726,1.0207369913661586,0.715589784274102,9.77023312835459,0.0007529907739340783,-0.0007892507145463906,0.001090830782496456,14.974084351646772,-2.385552416059497,-22.75
1772919178.8307045,-0.05919567675028172,1.1424453413231301,-7.192431094574726,1.0185491106025206,0.7166711065032901,9.770155144315765,0.0023314922030268593,0.000716730833321766,0.0,15.019305086567964,-2.342409222700785,-22.75
1772919178.8729918,-0.05919567675028172,1.1424453413231301,-7.192431094574726,1.0185491106025206,0.7166711065032901,9.770155144315765,0.0023314922030268593,0.000716730833321766,0.0,15.019305086567964,-2.342409222700785,-22.75
1772919178.8964837,-0.05919567675028172,1.1424453413231301,-7.192431094574726,1.0170931003945491,0.717390714367654,9.770103246809066,0.001542241488480469,-3.6259940612312275e-05,0.001090830782496456,15.019305086567964,-2.342409222700785,-22.75
1772919178.9180005,-0.05919567675028172,1.1424453413231301,-7.192431094574726,1.0170931003945491,0.717390714367654,9.770103246809066,0.001542241488480469,-3.6259940612312275e-05,0.001090830782496456,15.019305086567964,-2.342409222700785,-22.75
1772919178.9360602,-0.05919567675028172,1.1424453413231301,-7.192431094574726,1.016124141865844,0.7178696053628416,9.77006870959809,0.001542241488480469,-3.6259940612312275e-05,0.002181661564992912,15.22255580398664,-3.098696466986177,-21.5625
1772919178.9613974,-0.05919567675028172,1.1424453413231301,-7.192431094574726,1.017899605345742,0.7204974027897021,9.773390837177311,-0.0007892507145463906,-0.0007529907739340783,0.0,15.22255580398664,-3.098696466986177,-21.5625
1772919178.98429,-0.05919567675028172,1.1424453413231301,-7.192431094574726,1.017899605345742,0.7204974027897021,9.773390837177311,-0.0007892507145463906,-0.0007529907739340783,0.0,15.22255580398664,-3.098696466986177,-21.5625
1772919179.0186975,-0.05919567675028172,1.1424453413231301,-7.192431094574726,1.0190811564583877,0.722246172622857,9.775601675970687,0.0007529907739340783,-0.0007892507145463906,0.001090830782496456,14.747980677040808,-2.601268382853058,-23.5625
1772919179.0811074,-0.05919567675028172,1.1424453413231301,-7.192431094574726,1.0198674655250626,0.7234099594117827,9.77707296449099,0.0,0.0,0.0,14.747980677040808,-2.601268382853058,-23.5625
1772919179.1038027,-0.05919567675028172,1.1424453413231301,-7.192431094574726,1.0202795516876373,0.7194550511435609,9.778052090565883,0.0,0.0,-0.001090830782496456,14.747980677040808,-2.601268382853058,-22.75
1772919179.1186934,-0.05919567675028172,1.1424453413231301,-7.192431094574726,1.0202795516876373,0.7194550511435609,9.778052090565883,0.0,0.0,-0.001090830782496456,14.747980677040808,-2.601268382853058,-22.75
1772919179.1346557,-0.05919567675028172,1.1424453413231301,-7.192431094574726,1.0206649841631763,0.7215524992461808,9.778703688031168,0.00312074291757325,0.0014697216072558446,-0.002181661564992912,14.747980677040808,-2.601268382853058,-22.75
1772919179.1768546,-0.05919567675028172,1.1424453413231301,-7.192431094574726,1.0232305859892106,0.7205280329716685,9.775792207158176,0.002367752143639172,0.002258972321802235,0.0,14.499509224700937,-1.8881243319263779,-23.25
1772919179.2055175,-0.05919567675028172,1.1424453413231301,-7.192431094574726,1.0232305859892106,0.7205280329716685,9.775792207158176,0.002367752143639172,0.002258972321802235,0.0,14.499509224700937,-1.8881243319263779,-23.25
1772919179.22224,-0.05919567675028172,1.1424453413231301,-7.192431094574726,1.0226288645256603,0.7222665566667941,9.777199760867893,0.0008255106551587029,0.0022952322624145475,0.001090830782496456,14.499509224700937,-1.8881243319263779,-23.25
1772919179.2430177,-0.05919567675028172,1.1424453413231301,-7.192431094574726,1.0199193247942107,0.7258438193220934,9.778136472138304,0.0,0.0,-0.001090830782496456,14.951231394459485,-3.35755562713845,-23.25
1772919179.2759855,-0.05919567675028172,1.1424453413231301,-7.192431094574726,1.0156958618136975,0.7259153468394272,9.77875984302501,-3.625994061231226e-05,-0.001542241488480469,-0.003272492347489368,14.951231394459485,-3.35755562713845,-23.25
1772919179.2908115,-0.05919567675028172,1.1424453413231301,-7.192431094574726,1.0156958618136975,0.7259153468394272,9.77875984302501,-3.625994061231226e-05,-0.001542241488480469,-0.003272492347489368,14.951231394459485,-3.35755562713845,-23.25
1772919179.3144069,-0.05919567675028172,1.1424453413231301,-7.192431094574726,1.0200348843120157,0.7281608546846744,9.779174689386606,-0.0007892507145463906,-0.0007529907739340783,0.001090830782496456,14.951231394459485,-3.35755562713845,-23.25
1772919179.3384578,-0.05919567675028172,1.1424453413231301,-7.192431094574726,1.0228112615769398,0.7249258196958188,9.779450765006109,-3.625994061231226e-05,-0.001542241488480469,0.0,14.747980677040808,-2.601268382853058,-23.25
1772919179.3623497,-0.05919567675028172,1.1424453413231301,-7.192431094574726,1.0228112615769398,0.7249258196958188,9.779450765006109,-3.625994061231226e-05,-0.001542241488480469,0.0,14.747980677040808,-2.601268382853058,-23.25
1772919179.387537,-0.05919567675028172,1.1424453413231301,-7.192431094574726,1.0246589096325807,0.7227729400484441,9.776289378539603,-0.0007892507145463906,-0.0007529907739340783,0.002181661564992912,14.747980677040808,-2.601268382853058,-23.25
1772919179.4033997,-0.05919567675028172,1.1424453413231301,-7.192431094574726,1.0258884987740284,0.7213402226923575,9.774185511161145,-0.0008255106551587029,-0.0022952322624145475,0.0,14.273405550094974,-2.1038402987199385,-23.5625
1772919179.418185,-0.05919567675028172,1.1424453413231301,-7.192431094574726,1.0258884987740284,0.7213402226923575,9.774185511161145,-0.0008255106551587029,-0.0022952322624145475,0.0,14.273405550094974,-2.1038402987199385,-23.5625
1772919179.4336994,-0.05919567675028172,1.1424453413231301,-7.192431094574726,1.0267067766122513,0.7203867652963836,9.772785410922518,-0.003909993632119641,-0.002222712381189923,0.0,14.273405550094974,-2.1038402987199385,-23.5625
1772919179.474741,-0.05919567675028172,1.1424453413231301,-7.192431094574726,1.0272513313728262,0.71975225005018,9.771853659853857,0.002295232262414547,-0.0008255106551587029,0.0,14.747980677040808,-2.601268382853058,-23.25
1772919179.5080535,-0.05919567675028172,1.1424453413231301,-7.192431094574726,1.0276137264829135,0.719329987241831,9.771233589926004,-0.0007892507145463906,-0.0007529907739340783,-0.002181661564992912,14.747980677040808,-2.601268382853058,-23.25
1772919179.540653,-0.05919567675028172,1.1424453413231301,-7.192431094574726,1.027854896380458,0.7190489760598594,9.774166052022972,0.0,0.0,-0.001090830782496456,15.242846040158067,-4.115920412986323,-23.5625
1772919179.5639799,-0.05919567675028172,1.1424453413231301,-7.192431094574726,1.0280153922532294,0.7188619662573579,9.776117572790756,-0.0023314922030268593,-0.000716730833321766,0.0,15.242846040158067,-4.115920412986323,-23.5625
1772919179.5780926,-0.05919567675028172,1.1424453413231301,-7.192431094574726,1.0280153922532294,0.7188619662573579,9.776117572790756,-0.0023314922030268593,-0.000716730833321766,0.0,15.242846040158067,-4.115920412986323,-23.5625
1772919179.605781,-0.05919567675028172,1.1424453413231301,-7.192431094574726,1.0281222004637025,0.7187375133228295,9.780761399769121,0.0,0.0,0.0,14.466268559701248,-3.3019471844048542,-22.75
1772919179.6430717,-0.05919567675028172,1.1424453413231301,-7.192431094574726,1.0281932801346465,0.7186546912851314,9.777161591333638,0.0007892507145463906,0.0007529907739340783,-0.001090830782496456,14.466268559701248,-3.3019471844048542,-22.75
1772919179.686002,-0.05919567675028172,1.1424453413231301,-7.192431094574726,1.0236223812233958,0.7234401632577768,9.784801294154278,-0.002367752143639172,-0.002258972321802235,-0.001090830782496456,14.951231394459485,-3.35755562713845,-22.5
1772919179.743542,-0.05919567675028172,1.1424453413231301,-7.192431094574726,1.020580499058245,0.7266248413983479,9.786540319333021,0.0,0.0,-0.001090830782496456,14.951231394459485,-3.35755562713845,-22.5
1772919179.7596977,-0.05919567675028172,1.1424453413231301,-7.192431094574726,1.020580499058245,0.7266248413983479,9.786540319333021,0.0,0.0,-0.001090830782496456,14.951231394459485,-3.35755562713845,-22.5
1772919179.7776468,-0.05919567675028172,1.1424453413231301,-7.192431094574726,1.0231743620956393,0.7239036200121611,9.787697621163291,3.625994061231226e-05,0.001542241488480469,0.0,14.0145463899427,-1.8325158891927817,-23.25
1772919179.793034,-0.05919567675028172,1.1424453413231301,-7.192431094574726,1.0249005489716765,0.7220926775776886,9.778432457481468,-0.001542241488480469,3.6259940612312275e-05,0.001090830782496456,14.0145463899427,-1.8325158891927817,-23.25
1772919179.8314233,-0.05919567675028172,1.1424453413231301,-7.192431094574726,1.0236290124981329,0.7185784147979736,9.772266594549876,0.0015785014290927812,0.0015059815478681566,0.0,14.747980677040808,-2.601268382853058,-22.0
1772919179.8837001,-0.05919567675028172,1.1424453413231301,-7.192431094574726,1.0227828191789827,0.7162397121749607,9.768163281646103,0.0007529907739340783,-0.0007892507145463906,-0.001090830782496456,14.747980677040808,-2.601268382853058,-22.0
1772919179.9124553,-0.05919567675028172,1.1424453413231301,-7.192431094574726,1.0222196869776872,0.7146833317043658,9.77212279616029,-0.0023314922030268593,-0.000716730833321766,0.001090830782496456,14.489121516888535,-2.329943973325901,-22.5
1772919179.9333882,-0.05919567675028172,1.1424453413231301,-7.192431094574726,1.0242652233450993,0.7159566787062198,9.781448032253444,-0.0007892507145463906,-0.0007529907739340783,-0.001090830782496456,14.489121516888535,-2.329943973325901,-22.5
1772919179.966651,-0.05919567675028172,1.1424453413231301,-7.192431094574726,1.0256265049474733,0.7168040769117356,9.787653872703725,0.0007529907739340783,-0.0007892507145463906,0.0,14.489121516888535,-2.329943973325901,-22.5
1772919179.9845197,-0.05919567675028172,1.1424453413231301,-7.192431094574726,1.0256265049474733,0.7168040769117356,9.787653872703725,0.0007529907739340783,-0.0007892507145463906,0.0,14.489121516888535,-2.329943973325901,-22.5
1772919180.0030694,-0.05919567675028172,1.1424453413231301,-7.192431094574726,1.0265324226473416,0.7173680109514481,9.785093566784969,0.0015059815478681566,-0.0015785014290927812,0.0,14.747980677040808,-2.601268382853058,-21.5625
1772919180.0255358,-0.05919567675028172,1.1424453413231301,-7.192431094574726,1.0248261999377142,0.7201635973120963,9.780044600089209,0.0015785014290927812,0.0015059815478681566,0.0,14.747980677040808,-2.601268382853058,-21.5625
1772919180.0583785,-0.05919567675028172,1.1424453413231301,-7.192431094574726,1.023579534046564,0.7172946334304605,9.776684569153833,-0.0007892507145463906,-0.0007529907739340783,0.001090830782496456,14.747980677040808,-2.601268382853058,-21.5625
1772919180.0873313,-0.05919567675028172,1.1424453413231301,-7.192431094574726,1.0251701863789497,0.7176944708347842,9.774448506100345,0.0007529907739340783,-0.0007892507145463906,0.0,15.22255580398664,-3.098696466986177,-22.75
1772919180.1302161,-0.05919567675028172,1.1424453413231301,-7.192431094574726,1.0285378485565275,0.7155402636041098,9.769615319409391,3.625994061231226e-05,0.001542241488480469,0.0,15.22255580398664,-3.098696466986177,-22.75
1772919180.1655223,-0.05919567675028172,1.1424453413231301,-7.192431094574726,1.0307789901164541,0.7141066627561674,9.769743999364113,-3.625994061231226e-05,-0.001542241488480469,-0.001090830782496456,14.986549601021654,-1.8553688463800673,-23.25
1772919180.1876538,-0.05919567675028172,1.1424453413231301,-7.192431094574726,1.0299613439702677,0.715572911963008,9.769829634436531,-0.0015785014290927812,-0.0015059815478681566,-0.001090830782496456,14.986549601021654,-1.8553688463800673,-23.25
1772919180.2162938,-0.05919567675028172,1.1424453413231301,-7.192431094574726,1.0299613439702677,0.715572911963008,9.769829634436531,-0.0015785014290927812,-0.0015059815478681566,-0.001090830782496456,14.986549601021654,-1.8553688463800673,-23.25
1772919180.2382889,-0.05919567675028172,1.1424453413231301,-7.192431094574726,1.0294172095936864,0.7165486844310834,9.76988662362062,0.002367752143639172,0.002258972321802235,0.0,14.747980677040808,-2.601268382853058,-23.5625
1772919180.278383,-0.05919567675028172,1.1424453413231301,-7.192431094574726,1.029055094244451,0.7171980501084951,9.77326966099334,-7.251988122462452e-05,-0.003084482976960938,0.0,14.747980677040808,-2.601268382853058,-23.5625
1772919180.3030272,-0.05919567675028172,1.1424453413231301,-7.192431094574726,1.029055094244451,0.7171980501084951,9.77326966099334,-7.251988122462452e-05,-0.003084482976960938,0.0,14.747980677040808,-2.601268382853058,-23.5625
1772919180.3281605,-0.05919567675028172,1.1424453413231301,-7.192431094574726,1.0287029167869786,0.7129008003370212,9.7788661462812,-0.0007892507145463906,-0.0007529907739340783,-0.001090830782496456,14.715225191494499,-2.11422800653234,-23.5625
1772919180.3471444,-0.05919567675028172,1.1424453413231301,-7.192431094574726,1.028468546623111,0.7100410286175306,9.782590544723433,0.002295232262414547,-0.0008255106551587029,-0.001090830782496456,14.715225191494499,-2.11422800653234,-23.5625
1772919180.3625255,-0.05919567675028172,1.1424453413231301,-7.192431094574726,1.028468546623111,0.7100410286175306,9.782590544723433,0.002295232262414547,-0.0008255106551587029,-0.001090830782496456,14.715225191494499,-2.11422800653234,-23.5625
1772919180.3826206,-0.05919567675028172,1.1424453413231301,-7.192431094574726,1.0260034750780171,0.7105581770407283,9.781723978575164,0.0007892507145463906,0.0007529907739340783,0.0,14.715225191494499,-2.11422800653234,-23.5625
1772919180.3997514,-0.05919567675028172,1.1424453413231301,-7.192431094574726,1.0244741912390603,0.7156317289153415,9.781147288483668,0.001542241488480469,-3.6259940612312275e-05,0.0,15.245408761173927,-2.1266932559072242,-24.5
1772919180.4228013,-0.05919567675028172,1.1424453413231301,-7.192431094574726,1.0234564699274542,0.7190081210126086,9.780763507669828,0.0,0.0,0.001090830782496456,15.245408761173927,-2.1266932559072242,-24.5
1772919180.4394739,-0.05919567675028172,1.1424453413231301,-7.192431094574726,1.0234564699274542,0.7190081210126086,9.780763507669828,0.0,0.0,0.001090830782496456,15.245408761173927,-2.1266932559072242,-24.5
1772919180.4709587,-0.05919567675028172,1.1424453413231301,-7.192431094574726,1.0250882885823984,0.7188347776797933,9.777162994118012,0.0007892507145463906,0.0007529907739340783,0.002181661564992912,15.245408761173927,-2.1266932559072242,-24.5
1772919180.48846,-0.05919567675028172,1.1424453413231301,-7.192431094574726,1.0261742456686551,0.7187194196281766,9.77476689256965,0.0007892507145463906,0.0007529907739340783,-0.001090830782496456,14.974084351646772,-2.385552416059497,-22.75
1772919180.5071454,-0.05919567675028172,1.1424453413231301,-7.192431094574726,1.0268969379786232,0.7186426501334597,9.776517425462742,0.001542241488480469,-3.6259940612312275e-05,-0.002181661564992912,14.974084351646772,-2.385552416059497,-22.75
1772919180.5282896,-0.05919567675028172,1.1424453413231301,-7.192431094574726,1.0268969379786232,0.7186426501334597,9.776517425462742,0.001542241488480469,-3.6259940612312275e-05,-0.002181661564992912,14.974084351646772,-2.385552416059497,-22.75
1772919180.5799005,-0.05919567675028172,1.1424453413231301,-7.192431094574726,1.0249575870811296,0.716282460073171,9.777682385548362,3.625994061231226e-05,0.001542241488480469,0.002181661564992912,14.476656267513652,-2.860127543005331,-22.5
1772919180.6080914,-0.05919567675028172,1.1424453413231301,-7.192431094574726,1.0236669707228165,0.7147117799530993,9.778457653471884,0.000716730833321766,-0.0023314922030268598,0.001090830782496456,14.476656267513652,-2.860127543005331,-22.5
1772919180.628801,-0.05919567675028172,1.1424453413231301,-7.192431094574726,1.0228080799534884,0.7136665098788383,9.775628473907359,0.0,0.0,-0.001090830782496456,14.21779710736138,-2.588803133478174,-24.0
1772919180.6759303,-0.05919567675028172,1.1424453413231301,-7.192431094574726,1.0222364977409393,0.7129708943208494,9.777090798218493,0.0007892507145463906,0.0007529907739340783,-0.001090830782496456,14.21779710736138,-2.588803133478174,-24.0
1772919180.6892576,-0.05919567675028172,1.1424453413231301,-7.192431094574726,1.0222364977409393,0.7129708943208494,9.777090798218493,0.0007892507145463906,0.0007529907739340783,-0.001090830782496456,14.21779710736138,-2.588803133478174,-24.0
1772919180.7053165,-0.05919567675028172,1.1424453413231301,-7.192431094574726,1.026585511539381,0.7123967761998931,9.77806395871232,0.0015785014290927812,0.0015059815478681566,0.001090830782496456,14.760445926415692,-2.071084813173628,-23.5625
1772919180.7218566,-0.05919567675028172,1.1424453413231301,-7.192431094574726,1.0294797316405766,0.7120147070037163,9.778711586150047,0.0007529907739340783,-0.0007892507145463906,0.0,14.760445926415692,-2.071084813173628,-23.5625
1772919180.7365215,-0.05919567675028172,1.1424453413231301,-7.192431094574726,1.0294797316405766,0.7120147070037163,9.778711586150047,0.0007529907739340783,-0.0007892507145463906,0.0,14.760445926415692,-2.071084813173628,-23.5625
1772919180.7685444,-0.05919567675028172,1.1424453413231301,-7.192431094574726,1.0290967019682393,0.7141807387784287,9.779142574975381,0.0038737336915073287,0.000680470892709454,0.001090830782496456,14.760445926415692,-2.071084813173628,-23.5625
1772919180.7925122,-0.05919567675028172,1.1424453413231301,-7.192431094574726,1.0288418000000206,0.7156222087283395,9.776084281516862,0.001542241488480469,-3.6259940612312275e-05,0.001090830782496456,14.21779710736138,-2.588803133478174,-23.5625
1772919180.8171418,-0.05919567675028172,1.1424453413231301,-7.192431094574726,1.0288418000000206,0.7156222087283395,9.776084281516862,0.001542241488480469,-3.6259940612312275e-05,0.001090830782496456,14.21779710736138,-2.588803133478174,-23.5625
1772919180.8360333,-0.05919567675028172,1.1424453413231301,-7.192431094574726,1.0286721655876125,0.7165814908777307,9.774049021383593,-0.0007529907739340783,0.0007892507145463906,0.0,14.21779710736138,-2.588803133478174,-23.5625
1772919180.8521056,-0.05919567675028172,1.1424453413231301,-7.192431094574726,1.0308683766002218,0.7147995878754915,9.772694578500248,-0.0007892507145463906,-0.0007529907739340783,0.0,14.21779710736138,-2.588803133478174,-23.5625
1772919180.8651133,-0.05919567675028172,1.1424453413231301,-7.192431094574726,1.0308683766002218,0.7147995878754915,9.772694578500248,-0.0007892507145463906,-0.0007529907739340783,0.0,14.21779710736138,-2.588803133478174,-23.5625
1772919180.8775713,-0.05919567675028172,1.1424453413231301,-7.192431094574726,1.0323299304958287,0.7136137513326619,9.7717932118915,0.0008255106551587029,0.0022952322624145475,0.001090830782496456,14.770833634228094,-1.629265171774105,-23.25
1772919180.8941588,-0.05919567675028172,1.1424453413231301,-7.192431094574726,1.033302578286728,0.712824590360071,9.774538474189624,0.0007892507145463906,0.0007529907739340783,0.001090830782496456,14.770833634228094,-1.629265171774105,-23.25
1772919180.923312,-0.05919567675028172,1.1424453413231301,-7.192431094574726,1.031640763707258,0.7147197071050929,9.773020303875116,-0.002295232262414547,0.0008255106551587029,0.0,14.770833634228094,-1.629265171774105,-23.25
1772919180.9420898,-0.05919567675028172,1.1424453413231301,-7.192431094574726,1.031640763707258,0.7147197071050929,9.773020303875116,-0.002295232262414547,0.0008255106551587029,0.0,14.770833634228094,-1.629265171774105,-23.25
1772919180.9841359,-0.05919567675028172,1.1424453413231301,-7.192431094574726,1.0305348446683058,0.7159808861290639,9.772009978489885,0.0007892507145463906,0.0007529907739340783,-0.001090830782496456,14.489121516888535,-2.329943973325901,-22.5
1772919181.0060515,-0.05919567675028172,1.1424453413231301,-7.192431094574726,1.0305348446683058,0.7159808861290639,9.772009978489885,0.0007892507145463906,0.0007529907739340783,-0.001090830782496456,14.489121516888535,-2.329943973325901,-22.5
1772919181.039828,-0.05919567675028172,1.1424453413231301,-7.192431094574726,1.0297988679018084,0.7168201866812236,9.771337618232087,-0.0007892507145463906,-0.0007529907739340783,0.0,14.489121516888535,-2.329943973325901,-22.5
1772919181.0673304,-0.05919567675028172,1.1424453413231301,-7.192431094574726,1.0293090835851035,0.7173787318230845,9.774235281698598,-0.0023314922030268593,-0.000716730833321766,-0.002181661564992912,14.951231394459485,-3.35755562713845,-23.5625
1772919181.0890455,-0.05919567675028172,1.1424453413231301,-7.192431094574726,1.0314034321503611,0.7200595381947609,9.77950875607386,0.0,0.0,-0.001090830782496456,14.951231394459485,-3.35755562713845,-23.5625
1772919181.121757,-0.05919567675028172,1.1424453413231301,-7.192431094574726,1.0327971977251338,0.7218435848885422,9.783018194362027,-0.001542241488480469,3.6259940612312275e-05,-0.001090830782496456,14.951231394459485,-3.35755562713845,-23.5625
1772919181.1521916,-0.05919567675028172,1.1424453413231301,-7.192431094574726,1.0337247331457633,0.7230308480341462,9.77866346292517,-0.0015785014290927812,-0.0015059815478681566,0.002181661564992912,14.273405550094974,-2.1038402987199385,-22.5
1772919181.1835582,-0.05919567675028172,1.1424453413231301,-7.192431094574726,1.0337247331457633,0.7230308480341462,9.77866346292517,-0.0015785014290927812,-0.0015059815478681566,0.002181661564992912,14.273405550094974,-2.1038402987199385,-22.5
1772919181.1967797,-0.05919567675028172,1.1424453413231301,-7.192431094574726,1.0319217030501673,0.7215118575758215,9.77242032609216,-0.0007529907739340783,0.0007892507145463906,-0.002181661564992912,14.273405550094974,-2.1038402987199385,-22.5
1772919181.2098901,-0.05919567675028172,1.1424453413231301,-7.192431094574726,1.0319217030501673,0.7215118575758215,9.77242032609216,-0.0007529907739340783,0.0007892507145463906,-0.002181661564992912,14.273405550094974,-2.1038402987199385,-22.5
1772919181.2287862,-0.05919567675028172,1.1424453413231301,-7.192431094574726,1.0355623957762647,0.7251191880322934,9.771610699977519,-0.001542241488480469,3.6259940612312275e-05,-0.001090830782496456,14.273405550094974,-2.1038402987199385,-22.5
1772919181.2613025,-0.05919567675028172,1.1424453413231301,-7.192431094574726,1.0331446470027292,0.722901624516302,9.77441701454966,-0.0007892507145463906,-0.0007529907739340783,0.0,14.778658621024636,-3.176672687453679,-22.875
1772919181.2807376,-0.05919567675028172,1.1424453413231301,-7.192431094574726,1.0314244684643155,0.7166964653923159,9.776284585548833,3.625994061231226e-05,0.001542241488480469,0.0,14.778658621024636,-3.176672687453679,-22.875
1772919181.309453,-0.05919567675028172,1.1424453413231301,-7.192431094574726,1.0314244684643155,0.7166964653923159,9.776284585548833,3.625994061231226e-05,0.001542241488480469,0.0,14.778658621024636,-3.176672687453679,-22.875
1772919181.3467607,-0.05919567675028172,1.1424453413231301,-7.192431094574726,1.0256615072244024,0.7174075904250233,9.770837209772008,0.002367752143639172,0.002258972321802235,-0.001090830782496456,14.778658621024636,-3.176672687453679,-22.75
1772919181.3635821,-0.05919567675028172,1.1424453413231301,-7.192431094574726,1.0265557162716368,0.7177696424528536,9.767212042043706,0.001542241488480469,-3.6259940612312275e-05,0.001090830782496456,14.778658621024636,-3.176672687453679,-22.75
1772919181.3761058,-0.05919567675028172,1.1424453413231301,-7.192431094574726,1.0272619961412512,0.7227399794088898,9.768144645123618,0.0007892507145463906,0.0007529907739340783,-0.001090830782496456,14.778658621024636,-3.176672687453679,-22.75
1772919181.3883169,-0.05919567675028172,1.1424453413231301,-7.192431094574726,1.0272619961412512,0.7227399794088898,9.768144645123618,0.0007892507145463906,0.0007529907739340783,-0.001090830782496456,14.778658621024636,-3.176672687453679,-22.75
1772919181.4020362,-0.05919567675028172,1.1424453413231301,-7.192431094574726,1.0253117229480413,0.7237385823117042,9.76876528205544,0.0007892507145463906,0.0007529907739340783,0.0,14.499509224700937,-1.8881243319263779,-23.25
1772919181.432205,-0.05919567675028172,1.1424453413231301,-7.192431094574726,1.0215935433671635,0.722094040569276,9.7691783090006,0.001542241488480469,-3.6259940612312275e-05,0.0,14.499509224700937,-1.8881243319263779,-23.25
1772919181.4691796,-0.05919567675028172,1.1424453413231301,-7.192431094574726,1.0215935433671635,0.722094040569276,9.7691783090006,0.001542241488480469,-3.6259940612312275e-05,0.0,14.499509224700937,-1.8881243319263779,-23.25
1772919181.4880579,-0.05919567675028172,1.1424453413231301,-7.192431094574726,1.0237373380291286,0.7161590272968739,9.769453173818789,0.0023314922030268593,0.000716730833321766,0.0,14.692372234307213,-3.086231217611293,-23.25
1772919181.511082,-0.05919567675028172,1.1424453413231301,-7.192431094574726,1.025164009428911,0.7122093422625326,9.769636093284852,-0.0007892507145463906,-0.0007529907739340783,0.0,14.692372234307213,-3.086231217611293,-23.25
1772919181.5361786,-0.05919567675028172,1.1424453413231301,-7.192431094574726,1.0239155362270258,0.7167305609257281,9.769757824146174,0.0,0.0,0.0,14.692372234307213,-3.086231217611293,-23.25
1772919181.5514796,-0.05919567675028172,1.1424453413231301,-7.192431094574726,1.0239155362270258,0.7167305609257281,9.769757824146174,0.0,0.0,0.0,14.692372234307213,-3.086231217611293,-23.25
1772919181.5782619,-0.05919567675028172,1.1424453413231301,-7.192431094574726,1.0230846912575307,0.719739381440763,9.773183946381879,0.0007892507145463906,0.0007529907739340783,-0.001090830782496456,14.499509224700937,-1.8881243319263779,-22.5
1772919181.611781,-0.05919567675028172,1.1424453413231301,-7.192431094574726,1.0225317732114783,0.7217417178827914,9.778809104164768,0.0023314922030268593,0.000716730833321766,0.0,14.499509224700937,-1.8881243319263779,-22.5
1772919181.6391973,-0.05919567675028172,1.1424453413231301,-7.192431094574726,1.0244729132474555,0.7206539558606222,9.782552583832151,0.0,0.0,0.0,14.715225191494499,-2.11422800653234,-22.75
1772919181.6647525,-0.05919567675028172,1.1424453413231301,-7.192431094574726,1.0234556194383175,0.722350356942742,9.781698716026067,3.625994061231226e-05,0.001542241488480469,0.001090830782496456,14.715225191494499,-2.11422800653234,-22.75
1772919181.6940184,-0.05919567675028172,1.1424453413231301,-7.192431094574726,1.0227786217722525,0.723479292912851,9.781130476539447,0.001542241488480469,-3.6259940612312275e-05,0.0,14.715225191494499,-2.11422800653234,-22.75
1772919181.7175572,-0.05919567675028172,1.1424453413231301,-7.192431094574726,1.0227786217722525,0.723479292912851,9.781130476539447,0.001542241488480469,-3.6259940612312275e-05,0.0,14.715225191494499,-2.11422800653234,-22.75
1772919181.7585676,-0.05919567675028172,1.1424453413231301,-7.192431094574726,1.0199077928312703,0.7219214863707915,9.780752319508752,0.001542241488480469,-3.6259940612312275e-05,0.0,14.963696643834368,-2.82737205745902,-22.75
1772919181.791265,-0.05919567675028172,1.1424453413231301,-7.192431094574726,1.0250357844353344,0.718353295224465,9.783845771936434,-0.000716730833321766,0.0023314922030268598,0.0,14.963696643834368,-2.82737205745902,-22.75
1772919181.8352795,-0.05919567675028172,1.1424453413231301,-7.192431094574726,1.0284484055644196,0.7159787038758917,9.77921420655629,0.0007529907739340783,-0.0007892507145463906,0.0,14.489121516888535,-2.329943973325901,-23.25
1772919181.870544,-0.05919567675028172,1.1424453413231301,-7.192431094574726,1.0284103659852242,0.716818734416115,9.77613195153378,0.0014697216072558446,-0.0031207429175732506,0.0,14.489121516888535,-2.329943973325901,-23.25
1772919181.8840249,-0.05919567675028172,1.1424453413231301,-7.192431094574726,1.0284103659852242,0.716818734416115,9.77613195153378,0.0014697216072558446,-0.0031207429175732506,0.0,14.489121516888535,-2.329943973325901,-23.25
1772919181.9030352,-0.05919567675028172,1.1424453413231301,-7.192431094574726,1.0283850510701993,0.7173777653568776,9.774080745247343,-0.0007892507145463906,-0.0007529907739340783,-0.002181661564992912,14.489121516888535,-2.329943973325901,-23.25
1772919181.9296887,-0.05919567675028172,1.1424453413231301,-7.192431094574726,1.0259479097202608,0.7154406933840444,9.779405913791834,0.0007529907739340783,-0.0007892507145463906,0.001090830782496456,14.715225191494499,-2.11422800653234,-22.5
1772919181.9476519,-0.05919567675028172,1.1424453413231301,-7.192431094574726,1.0259479097202608,0.7154406933840444,9.779405913791834,0.0007529907739340783,-0.0007892507145463906,0.001090830782496456,14.715225191494499,-2.11422800653234,-22.5
1772919181.9917145,-0.05919567675028172,1.1424453413231301,-7.192431094574726,1.0243260193765296,0.7141515936246355,9.782949753972163,0.0007529907739340783,-0.0007892507145463906,0.0,14.715225191494499,-2.11422800653234,-22.5
1772919182.0187948,-0.05919567675028172,1.1424453413231301,-7.192431094574726,1.0209375686513529,0.7157140066917124,9.785308140024883,0.0015785014290927812,0.0015059815478681566,0.001090830782496456,14.828519618524169,-1.0559384087359627,-22.0625
1772919182.0580063,-0.05919567675028172,1.1424453413231301,-7.192431094574726,1.0234119879211239,0.716642581396905,9.78018739618343,-0.0007892507145463906,-0.0007529907739340783,0.002181661564992912,14.828519618524169,-1.0559384087359627,-22.0625
1772919182.0899415,-0.05919567675028172,1.1424453413231301,-7.192431094574726,1.0234119879211239,0.716642581396905,9.78018739618343,-0.0007892507145463906,-0.0007529907739340783,0.002181661564992912,14.828519618524169,-1.0559384087359627,-22.0625
1772919182.1382983,-0.05919567675028172,1.1424453413231301,-7.192431094574726,1.025058686304082,0.7172605374903515,9.7767795983594,0.0,0.0,0.002181661564992912,14.499509224700937,-1.8881243319263779,-22.5
1772919182.2023766,-0.05919567675028172,1.1424453413231301,-7.192431094574726,1.0237342511263392,0.7153626795483924,9.774511746975104,0.0007892507145463906,0.0007529907739340783,-0.001090830782496456,14.499509224700937,-1.8881243319263779,-22.5
1772919182.2279298,-0.05919567675028172,1.1424453413231301,-7.192431094574726,1.0237342511263392,0.7153626795483924,9.774511746975104,0.0007892507145463906,0.0007529907739340783,-0.001090830782496456,14.499509224700937,-1.8881243319263779,-22.5
1772919182.2705474,-0.05919567675028172,1.1424453413231301,-7.192431094574726,1.0237342511263392,0.7153626795483924,9.774511746975104,0.0007892507145463906,0.0007529907739340783,-0.001090830782496456,14.499509224700937,-1.8881243319263779,-22.5
1772919182.307777,-0.05919567675028172,1.1424453413231301,-7.192431094574726,1.0228528543104614,0.7140996762884808,9.773002517212415,-0.0008255106551587029,-0.0022952322624145475,0.0,13.991693432755415,-2.804519100271735,-24.0
1772919182.3688967,-0.05919567675028172,1.1424453413231301,-7.192431094574726,1.0222662945753425,0.7132591617276807,9.771998141664547,0.0008255106551587029,0.0022952322624145475,0.001090830782496456,13.991693432755415,-2.804519100271735,-24.0
1772919182.4171267,-0.05919567675028172,1.1424453413231301,-7.192431094574726,1.0242962401806979,0.7150089094957569,9.77132974095705,-0.002404012084251484,-0.003801213810282704,0.0,14.692372234307213,-3.086231217611293,-22.5
1772919182.4942033,-0.05919567675028172,1.1424453413231301,-7.192431094574726,1.0232268517483083,0.7138642462703224,9.770884927752737,-0.0015785014290927812,-0.0015059815478681566,-0.002181661564992912,14.692372234307213,-3.086231217611293,-22.5
1772919182.580152,-0.05919567675028172,1.1424453413231301,-7.192431094574726,1.0296648756250812,0.7153003927619983,9.770588909534156,-0.0023314922030268593,-0.000716730833321766,0.0,14.760445926415692,-2.071084813173628,-22.0625
1772919182.642856,-0.05919567675028172,1.1424453413231301,-7.192431094574726,1.0315290140408593,0.713947031390275,9.77039191271643,-0.002295232262414547,0.0008255106551587029,0.001090830782496456,14.760445926415692,-2.071084813173628,-22.0625
1772919182.6754532,-0.05919567675028172,1.1424453413231301,-7.192431094574726,1.0304604765136431,0.7154666790722058,9.770260813534833,-0.000716730833321766,0.0023314922030268598,0.0,14.963696643834368,-2.82737205745902,-23.5625
1772919182.6992698,-0.05919567675028172,1.1424453413231301,-7.192431094574726,1.0304604765136431,0.7154666790722058,9.770260813534833,-0.001542241488480469,3.6259940612312275e-05,-0.001090830782496456,14.963696643834368,-2.82737205745902,-23.5625
1772919182.7357025,-0.05919567675028172,1.1424453413231301,-7.192431094574726,1.0304604765136431,0.7154666790722058,9.770260813534833,-0.0007529907739340783,0.0007892507145463906,0.0,14.963696643834368,-2.82737205745902,-23.5625
1772919182.772367,-0.05919567675028172,1.1424453413231301,-7.192431094574726,1.0273290821688514,0.7141688868098278,9.766828456786634,-0.0030482230363486256,0.0016147613697050937,-0.002181661564992912,15.253233747970471,-3.674100771586798,-23.25
1772919182.7874954,-0.05919567675028172,1.1424453413231301,-7.192431094574726,1.0276654687691351,0.7156143213756309,9.767889373419964,-0.000716730833321766,0.0023314922030268598,0.001090830782496456,15.253233747970471,-3.674100771586798,-23.25
1772919182.8303757,-0.05919567675028172,1.1424453413231301,-7.192431094574726,1.0276654687691351,0.7156143213756309,9.767889373419964,-0.000716730833321766,0.0023314922030268598,0.001090830782496456,15.253233747970471,-3.674100771586798,-23.25
1772919182.8753216,-0.05919567675028172,1.1424453413231301,-7.192431094574726,1.0280383076379993,0.717216389317924,9.774636501628553,0.0007892507145463906,0.0007529907739340783,-0.001090830782496456,15.245408761173927,-2.1266932559072242,-22.5
1772919182.8944368,-0.05919567675028172,1.1424453413231301,-7.192431094574726,1.0235192487580334,0.7224829893654862,9.776430651748004,-3.625994061231226e-05,-0.001542241488480469,0.0,15.245408761173927,-2.1266932559072242,-22.5
1772919182.927809,-0.05919567675028172,1.1424453413231301,-7.192431094574726,1.0235192487580334,0.7224829893654862,9.776430651748004,-3.625994061231226e-05,-0.001542241488480469,0.0,15.245408761173927,-2.1266932559072242,-22.5
1772919182.9662883,-0.05919567675028172,1.1424453413231301,-7.192431094574726,1.0205118655546115,0.7259878528653615,9.77427952690321,0.0,0.0,-0.001090830782496456,14.476656267513652,-2.860127543005331,-22.5
1772919183.021132,-0.05919567675028172,1.1424453413231301,-7.192431094574726,1.0231286872656578,0.7234797112590869,9.772847977348638,-0.0007892507145463906,-0.0007529907739340783,-0.001090830782496456,14.476656267513652,-2.860127543005331,-22.5
1772919183.063198,-0.05919567675028172,1.1424453413231301,-7.192431094574726,1.024870152882545,0.7218105710378887,9.765205073696889,-0.002367752143639172,-0.002258972321802235,-0.002181661564992912,15.087378778676442,-1.3272628182631196,-23.5625
1772919183.0965586,-0.05919567675028172,1.1424453413231301,-7.192431094574726,1.024870152882545,0.7218105710378887,9.765205073696889,-0.002367752143639172,-0.002258972321802235,-0.002181661564992912,15.087378778676442,-1.3272628182631196,-23.5625
1772919183.1187878,-0.05919567675028172,1.1424453413231301,-7.192431094574726,1.023719977978012,0.7231200714229747,9.760118806693477,0.0023314922030268593,0.000716730833321766,-0.001090830782496456,15.087378778676442,-1.3272628182631196,-23.5625
1772919183.1653187,-0.05919567675028172,1.1424453413231301,-7.192431094574726,1.0229545494273409,0.7239915293011717,9.76342417623467,0.0015785014290927812,0.0015059815478681566,0.0,15.019305086567964,-2.342409222700785,-22.5
1772919183.1907132,-0.05919567675028172,1.1424453413231301,-7.192431094574726,1.022333971539617,0.719842079408388,9.765623862740938,-0.0007892507145463906,-0.0007529907739340783,0.0,15.019305086567964,-2.342409222700785,-22.5
1772919183.2253592,-0.05919567675028172,1.1424453413231301,-7.192431094574726,1.0243412784444212,0.7193897676762588,9.77043284124607,0.001542241488480469,-3.6259940612312275e-05,-0.001090830782496456,14.963696643834368,-2.82737205745902,-22.75
1772919183.2577856,-0.05919567675028172,1.1424453413231301,-7.192431094574726,1.0243412784444212,0.7193897676762588,9.77043284124607,0.001542241488480469,-3.6259940612312275e-05,-0.001090830782496456,14.963696643834368,-2.82737205745902,-22.75
1772919183.2833745,-0.05919567675028172,1.1424453413231301,-7.192431094574726,1.025677118766481,0.7190887592711799,9.773633162721426,0.00312074291757325,0.0014697216072558446,-0.001090830782496456,14.963696643834368,-2.82737205745902,-22.75
1772919183.3055992,-0.05919567675028172,1.1424453413231301,-7.192431094574726,1.0265661055784978,0.7188884415400841,9.772417829206022,-0.001542241488480469,3.6259940612312275e-05,0.001090830782496456,14.963696643834368,-2.82737205745902,-22.75
1772919183.3187785,-0.05919567675028172,1.1424453413231301,-7.192431094574726,1.027046522633612,0.7140257369518342,9.771609038327686,0.0007892507145463906,0.0007529907739340783,-0.001090830782496456,13.775977465961855,-2.5784154256657725,-22.5
1772919183.3380415,-0.05919567675028172,1.1424453413231301,-7.192431094574726,1.027046522633612,0.7140257369518342,9.771609038327686,0.0007892507145463906,0.0007529907739340783,-0.001090830782496456,13.775977465961855,-2.5784154256657725,-22.5
1772919183.3609157,-0.05919567675028172,1.1424453413231301,-7.192431094574726,1.0273662348171804,0.7107896613683232,9.774415908740258,0.002367752143639172,0.002258972321802235,0.0,13.775977465961855,-2.5784154256657725,-22.5
1772919183.3922484,-0.05919567675028172,1.1424453413231301,-7.192431094574726,1.0301104879983511,0.715674585411857,9.776283849645028,0.0007892507145463906,0.0007529907739340783,0.002181661564992912,13.775977465961855,-2.5784154256657725,-22.5
1772919183.4145901,-0.05919567675028172,1.1424453413231301,-7.192431094574726,1.0319367578351035,0.7189254477946517,9.774181831743565,0.0,0.0,-0.002181661564992912,14.986549601021654,-1.8553688463800673,-23.25
1772919183.4325752,-0.05919567675028172,1.1424453413231301,-7.192431094574726,1.0284227246347901,0.7212000541335388,9.77278296231122,-0.0008255106551587029,-0.0022952322624145475,-0.001090830782496456,14.986549601021654,-1.8553688463800673,-23.25
1772919183.4526231,-0.05919567675028172,1.1424453413231301,-7.192431094574726,1.0284227246347901,0.7212000541335388,9.77278296231122,-0.0008255106551587029,-0.0022952322624145475,-0.001090830782496456,14.986549601021654,-1.8553688463800673,-23.25
1772919183.4972367,-0.05919567675028172,1.1424453413231301,-7.192431094574726,1.0260841747943044,0.7227137792430506,9.771852030330392,-0.0007529907739340783,0.0007892507145463906,0.0,14.986549601021654,-1.8553688463800673,-23.25
1772919183.5370831,-0.05919567675028172,1.1424453413231301,-7.192431094574726,1.0268369968179005,0.7213008518372378,9.77457761720366,0.0007529907739340783,-0.0007892507145463906,-0.001090830782496456,15.245408761173927,-2.1266932559072242,-22.5
1772919183.5728436,-0.05919567675028172,1.1424453413231301,-7.192431094574726,1.0273379914650307,0.7203605644321026,9.77639146482102,3.625994061231226e-05,0.001542241488480469,-0.001090830782496456,15.245408761173927,-2.1266932559072242,-22.5
1772919183.594768,-0.05919567675028172,1.1424453413231301,-7.192431094574726,1.025362296987093,0.7221551082244592,9.774253448441048,0.0007529907739340783,-0.0007892507145463906,-0.001090830782496456,15.245408761173927,-2.1266932559072242,-22.75
1772919183.6251304,-0.05919567675028172,1.1424453413231301,-7.192431094574726,1.0240474943819788,0.7233493570719047,9.772830622423385,-0.0007892507145463906,-0.0007529907739340783,-0.002181661564992912,15.245408761173927,-2.1266932559072242,-22.75
1772919183.6482565,-0.05919567675028172,1.1424453413231301,-7.192431094574726,1.0240474943819788,0.7233493570719047,9.772830622423385,-0.0007892507145463906,-0.0007529907739340783,-0.002181661564992912,15.245408761173927,-2.1266932559072242,-22.75
1772919183.6841865,-0.05919567675028172,1.1424453413231301,-7.192431094574726,1.0254816087547087,0.7217238217824706,9.778573971017277,-0.0007892507145463906,-0.0007529907739340783,0.0,15.22255580398664,-3.098696466986177,-21.5625
1772919183.7143154,-0.05919567675028172,1.1424453413231301,-7.192431094574726,1.0264359958496532,0.7206420462057711,9.782396105349106,-0.0015785014290927812,-0.0015059815478681566,-0.001090830782496456,15.22255580398664,-3.098696466986177,-21.5625
1772919183.7335544,-0.05919567675028172,1.1424453413231301,-7.192431094574726,1.0264359958496532,0.7206420462057711,9.782396105349106,-0.0015785014290927812,-0.0015059815478681566,-0.001090830782496456,15.22255580398664,-3.098696466986177,-21.5625
1772919183.766235,-0.05919567675028172,1.1424453413231301,-7.192431094574726,1.0270711298001365,0.7199221366437027,9.78159458134358,0.002295232262414547,-0.0008255106551587029,0.0,14.986549601021654,-1.8553688463800673,-24.0
1772919183.8016207,-0.05919567675028172,1.1424453413231301,-7.192431094574726,1.0274938043492718,0.7194430448720628,9.78106117607151,0.0007892507145463906,0.0007529907739340783,-0.001090830782496456,14.986549601021654,-1.8553688463800673,-24.0
1772919183.8274133,-0.05919567675028172,1.1424453413231301,-7.192431094574726,1.0300841903592635,0.7167039200930667,9.777361089114157,0.0,0.0,0.0,14.715225191494499,-2.11422800653234,-24.0
1772919183.8598094,-0.05919567675028172,1.1424453413231301,-7.192431094574726,1.0318080633124052,0.7148810631506736,9.778243834284037,0.001542241488480469,-3.6259940612312275e-05,0.0,14.715225191494499,-2.11422800653234,-24.0
1772919183.8867917,-0.05919567675028172,1.1424453413231301,-7.192431094574726,1.0318080633124052,0.7148810631506736,9.778243834284037,0.001542241488480469,-3.6259940612312275e-05,0.0,14.715225191494499,-2.11422800653234,-24.0
1772919183.9184053,-0.05919567675028172,1.1424453413231301,-7.192431094574726,1.0329552815057983,0.7136679722181571,9.778831291333683,0.0007892507145463906,0.0007529907739340783,0.002181661564992912,14.760445926415692,-2.071084813173628,-23.25
1772919183.9635637,-0.05919567675028172,1.1424453413231301,-7.192431094574726,1.0314096415791083,0.7152809683104565,9.779222237437898,0.00312074291757325,0.0014697216072558446,0.001090830782496456,14.760445926415692,-2.071084813173628,-23.25
1772919183.9849575,-0.05919567675028172,1.1424453413231301,-7.192431094574726,1.0314096415791083,0.7152809683104565,9.779222237437898,0.00312074291757325,0.0014697216072558446,0.001090830782496456,14.760445926415692,-2.071084813173628,-23.25
1772919184.0270853,-0.05919567675028172,1.1424453413231301,-7.192431094574726,1.0303810354738256,0.7163543991915349,9.77613729599578,3.625994061231226e-05,0.001542241488480469,0.0,14.489121516888535,-2.329943973325901,-21.5625
1772919184.0557265,-0.05919567675028172,1.1424453413231301,-7.192431094574726,1.029696509601043,0.7170687554518839,9.774084301927102,0.001542241488480469,-3.6259940612312275e-05,-0.001090830782496456,14.489121516888535,-2.329943973325901,-21.5625
1772919184.0744214,-0.05919567675028172,1.1424453413231301,-7.192431094574726,1.0292409652793613,0.7175441515632639,9.776063169015163,0.0,0.0,0.001090830782496456,14.715225191494499,-2.11422800653234,-23.25
1772919184.1009817,-0.05919567675028172,1.1424453413231301,-7.192431094574726,1.0289378056220455,0.7178605223648646,9.777380082956874,-0.0007892507145463906,-0.0007529907739340783,0.0,14.715225191494499,-2.11422800653234,-23.25
1772919184.127289,-0.05919567675028172,1.1424453413231301,-7.192431094574726,1.0289378056220455,0.7178605223648646,9.777380082956874,-0.0007892507145463906,-0.0007529907739340783,0.0,14.715225191494499,-2.11422800653234,-23.25
1772919184.1668937,-0.05919567675028172,1.1424453413231301,-7.192431094574726,1.0287360562566172,0.7180710635992367,9.774911362766872,0.0023314922030268593,0.000716730833321766,0.001090830782496456,14.747980677040808,-2.601268382853058,-23.25
1772919184.1946845,-0.05919567675028172,1.1424453413231301,-7.192431094574726,1.028601794307613,0.7182111764388116,9.773268457057837,-0.0007892507145463906,-0.0007529907739340783,0.0,14.747980677040808,-2.601268382853058,-23.25
1772919184.2302547,-0.05919567675028172,1.1424453413231301,-7.192431094574726,1.03093273903713,0.7206135207875115,9.772175121660933,-0.0023314922030268593,-0.000716730833321766,0.001090830782496456,14.466268559701248,-3.3019471844048542,-23.5625
1772919184.2503214,-0.05919567675028172,1.1424453413231301,-7.192431094574726,1.03093273903713,0.7206135207875115,9.772175121660933,-0.0023314922030268593,-0.000716730833321766,0.001090830782496456,14.466268559701248,-3.3019471844048542,-23.5625
1772919184.2714262,-0.05919567675028172,1.1424453413231301,-7.192431094574726,1.0323727629786155,0.7174828587397253,9.77479263087497,0.002295232262414547,-0.0008255106551587029,0.0,14.466268559701248,-3.3019471844048542,-23.5625
1772919184.2879214,-0.05919567675028172,1.1424453413231301,-7.192431094574726,1.0323727629786155,0.7174828587397253,9.77479263087497,0.002295232262414547,-0.0008255106551587029,0.0,14.466268559701248,-3.3019471844048542,-23.5625
1772919184.3062918,-0.05919567675028172,1.1424453413231301,-7.192431094574726,1.0333310828255526,0.71539943811871,9.776534554017417,0.001542241488480469,-3.6259940612312275e-05,0.001090830782496456,15.321307440078948,-2.658954367149133,-23.25
1772919184.3491051,-0.05919567675028172,1.1424453413231301,-7.192431094574726,1.0293506323403032,0.7188535340823086,9.774348672702839,0.003084482976960938,-7.251988122462455e-05,0.001090830782496456,15.321307440078948,-2.658954367149133,-23.25
1772919184.3721197,-0.05919567675028172,1.1424453413231301,-7.192431094574726,1.0293506323403032,0.7188535340823086,9.774348672702839,0.003084482976960938,-7.251988122462455e-05,0.001090830782496456,15.321307440078948,-2.658954367149133,-23.25
1772919184.4002469,-0.05919567675028172,1.1424453413231301,-7.192431094574726,1.0267016870069152,0.7211521963613033,9.772893993105882,0.001542241488480469,-3.6259940612312275e-05,0.001090830782496456,14.760445926415692,-2.071084813173628,-21.5625
1772919184.4133978,-0.05919567675028172,1.1424453413231301,-7.192431094574726,1.0249388434782036,0.7226819304302342,9.778616143498581,0.0007529907739340783,-0.0007892507145463906,0.001090830782496456,14.760445926415692,-2.071084813173628,-21.5625
1772919184.4264698,-0.05919567675028172,1.1424453413231301,-7.192431094574726,1.0249388434782036,0.7226819304302342,9.778616143498581,0.0007529907739340783,-0.0007892507145463906,0.001090830782496456,14.760445926415692,-2.071084813173628,-21.5625
1772919184.4467726,-0.05919567675028172,1.1424453413231301,-7.192431094574726,1.0260747916212245,0.7212796568080829,9.782424170664315,-0.0007529907739340783,0.0007892507145463906,0.0,14.760445926415692,-2.071084813173628,-21.5625
1772919184.46901,-0.05919567675028172,1.1424453413231301,-7.192431094574726,1.0268307524210327,0.7203464593769641,9.781613258497341,0.0023314922030268593,0.000716730833321766,-0.001090830782496456,14.986549601021654,-1.8553688463800673,-22.75
1772919184.5116608,-0.05919567675028172,1.1424453413231301,-7.192431094574726,1.0249135413318942,0.7174163260919268,9.781073605508702,0.001542241488480469,-3.6259940612312275e-05,0.001090830782496456,14.986549601021654,-1.8553688463800673,-22.75
1772919184.5308053,-0.05919567675028172,1.1424453413231301,-7.192431094574726,1.0249135413318942,0.7174163260919268,9.781073605508702,0.001542241488480469,-3.6259940612312275e-05,0.001090830782496456,14.986549601021654,-1.8553688463800673,-22.75
1772919184.576699,-0.05919567675028172,1.1424453413231301,-7.192431094574726,1.0236376587687237,0.715466355122468,9.78071447247308,0.0007892507145463906,0.0007529907739340783,-0.001090830782496456,14.986549601021654,-1.8553688463800673,-22.75
1772919184.591203,-0.05919567675028172,1.1424453413231301,-7.192431094574726,1.0275179685513771,0.7140574774872467,9.780475473449654,0.0038737336915073287,0.000680470892709454,-0.001090830782496456,14.54472995962213,-1.8449811385676655,-23.25
1772919184.6036253,-0.05919567675028172,1.1424453413231301,-7.192431094574726,1.0275179685513771,0.7140574774872467,9.780475473449654,0.0038737336915073287,0.000680470892709454,-0.001090830782496456,14.54472995962213,-1.8449811385676655,-23.25
1772919184.6200662,-0.05919567675028172,1.1424453413231301,-7.192431094574726,1.0301002713658327,0.7131198851592012,9.780316422269358,0.0007892507145463906,0.0007529907739340783,-0.001090830782496456,14.54472995962213,-1.8449811385676655,-23.25
1772919184.6335616,-0.05919567675028172,1.1424453413231301,-7.192431094574726,1.0318187650426403,0.7124959279384795,9.78021057548559,-3.625994061231226e-05,-0.001542241488480469,0.0,14.54472995962213,-1.8449811385676655,-23.25
1772919184.6500514,-0.05919567675028172,1.1424453413231301,-7.192431094574726,1.0318187650426403,0.7124959279384795,9.78021057548559,-3.625994061231226e-05,-0.001542241488480469,0.0,14.54472995962213,-1.8449811385676655,-23.25
1772919184.6696591,-0.05919567675028172,1.1424453413231301,-7.192431094574726,1.0306533025685976,0.7145009859349236,9.780140135633378,0.0007892507145463906,0.0007529907739340783,-0.001090830782496456,14.747980677040808,-2.601268382853058,-22.0625
1772919184.6879957,-0.05919567675028172,1.1424453413231301,-7.192431094574726,1.0275685994920651,0.7182556241903673,9.776748146991276,-0.0007892507145463906,-0.0007529907739340783,-0.001090830782496456,14.747980677040808,-2.601268382853058,-22.0625
1772919184.712591,-0.05919567675028172,1.1424453413231301,-7.192431094574726,1.0230954694962484,0.7184451931881816,9.774490816440952,-3.625994061231226e-05,-0.001542241488480469,-0.001090830782496456,14.747980677040808,-2.601268382853058,-22.0625
1772919184.729763,-0.05919567675028172,1.1424453413231301,-7.192431094574726,1.0230954694962484,0.7184451931881816,9.774490816440952,-3.625994061231226e-05,-0.001542241488480469,-0.001090830782496456,14.747980677040808,-2.601268382853058,-22.0625
1772919184.7523375,-0.05919567675028172,1.1424453413231301,-7.192431094574726,1.0178095506330427,0.720991643795378,9.772988588175746,0.0015785014290927812,0.0015059815478681566,0.0,15.019305086567964,-2.342409222700785,-22.75
1772919184.7774425,-0.05919567675028172,1.1424453413231301,-7.192431094574726,1.0166009314962876,0.7202659836719746,9.771988872046242,0.0007892507145463906,0.0007529907739340783,0.001090830782496456,15.019305086567964,-2.342409222700785,-22.75
1772919184.804434,-0.05919567675028172,1.1424453413231301,-7.192431094574726,1.0166009314962876,0.7202659836719746,9.771988872046242,0.0007892507145463906,0.0007529907739340783,0.001090830782496456,15.019305086567964,-2.342409222700785,-22.75
1772919184.8228042,-0.05919567675028172,1.1424453413231301,-7.192431094574726,1.0134875081428119,0.7222033595227798,9.767978460422299,0.0015785014290927812,0.0015059815478681566,0.001090830782496456,14.0145463899427,-1.8325158891927817,-23.5625
1772919184.8508549,-0.05919567675028172,1.1424453413231301,-7.192431094574726,1.008995265123516,0.7211835606904585,9.761964464578478,-3.625994061231226e-05,-0.001542241488480469,-0.001090830782496456,14.0145463899427,-1.8325158891927817,-23.5625
1772919184.8638995,-0.05919567675028172,1.1424453413231301,-7.192431094574726,1.006005727575817,0.720504895959448,9.75796221752515,-0.0015059815478681566,0.0015785014290927812,0.0,14.0145463899427,-1.8325158891927817,-23.5625
1772919184.8830388,-0.05919567675028172,1.1424453413231301,-7.192431094574726,1.006005727575817,0.720504895959448,9.75796221752515,-0.0015059815478681566,0.0015785014290927812,0.0,14.0145463899427,-1.8325158891927817,-23.5625
1772919184.9007077,-0.05919567675028172,1.1424453413231301,-7.192431094574726,1.0134750144849487,0.7198308646868433,9.765334101941148,-0.0007892507145463906,-0.0007529907739340783,0.0,14.760445926415692,-2.071084813173628,-22.75
1772919184.924978,-0.05919567675028172,1.1424453413231301,-7.192431094574726,1.018445741485574,0.7193823044043475,9.77358512037797,0.0007529907739340783,-0.0007892507145463906,-0.001090830782496456,14.760445926415692,-2.071084813173628,-22.75
1772919184.944125,-0.05919567675028172,1.1424453413231301,-7.192431094574726,1.018445741485574,0.7193823044043475,9.77358512037797,0.0007529907739340783,-0.0007892507145463906,-0.001090830782496456,14.760445926415692,-2.071084813173628,-22.75
1772919184.9758513,-0.05919567675028172,1.1424453413231301,-7.192431094574726,1.0241739993346068,0.7213928933662193,9.77573096927044,-0.0007892507145463906,-0.0007529907739340783,-0.001090830782496456,14.778658621024636,-3.176672687453679,-22.5
1772919185.007421,-0.05919567675028172,1.1424453413231301,-7.192431094574726,1.023256695568404,0.7228421115982441,9.777159007737675,-0.0008255106551587029,-0.0022952322624145475,0.0,14.778658621024636,-3.176672687453679,-22.5
1772919185.0371125,-0.05919567675028172,1.1424453413231301,-7.192431094574726,1.0202259456021747,0.7214974493237022,9.778109351385385,0.0007529907739340783,-0.0007892507145463906,-0.001090830782496456,14.778658621024636,-3.176672687453679,-22.5
1772919185.0903022,-0.05919567675028172,1.1424453413231301,-7.192431094574726,1.02313284698335,0.7182852010537963,9.773591432091607,0.0015059815478681566,-0.0015785014290927812,0.0,15.461124727967487,-2.3527969305131866,-22.75
1772919185.1043992,-0.05919567675028172,1.1424453413231301,-7.192431094574726,1.0248729211282022,0.7183536825227488,9.772390057938038,0.0007892507145463906,0.0007529907739340783,0.0,15.461124727967487,-2.3527969305131866,-22.75
1772919185.137809,-0.05919567675028172,1.1424453413231301,-7.192431094574726,1.028451215590475,0.7207083569944746,9.771590556859067,-3.625994061231226e-05,-0.001542241488480469,0.002181661564992912,14.0145463899427,-1.8325158891927817,-23.5625
1772919185.1701934,-0.05919567675028172,1.1424453413231301,-7.192431094574726,1.0308325305829493,0.7222753665519707,9.771058497822025,0.0007892507145463906,0.0007529907739340783,-0.001090830782496456,14.0145463899427,-1.8325158891927817,-23.5625
1772919185.1878352,-0.05919567675028172,1.1424453413231301,-7.192431094574726,1.0308325305829493,0.7222753665519707,9.771058497822025,0.0007892507145463906,0.0007529907739340783,-0.001090830782496456,14.0145463899427,-1.8325158891927817,-23.5625
1772919185.2095208,-0.05919567675028172,1.1424453413231301,-7.192431094574726,1.029996974552634,0.7210090930887147,9.774049530183682,-0.0023314922030268593,-0.000716730833321766,-0.002181661564992912,14.0145463899427,-1.8325158891927817,-23.5625
1772919185.2288268,-0.05919567675028172,1.1424453413231301,-7.192431094574726,1.0294409213482318,0.7201664022441193,9.776040028808342,-0.003084482976960938,7.251988122462455e-05,0.0,15.049983030551791,-2.917813527301406,-22.75
1772919185.252485,-0.05919567675028172,1.1424453413231301,-7.192431094574726,1.0294409213482318,0.7201664022441193,9.776040028808342,-0.003084482976960938,7.251988122462455e-05,0.0,15.049983030551791,-2.917813527301406,-22.75
1772919185.293146,-0.05919567675028172,1.1424453413231301,-7.192431094574726,1.0290708741522232,0.7196056009005146,9.777364683407729,0.0007529907739340783,-0.0007892507145463906,-0.001090830782496456,15.049983030551791,-2.917813527301406,-22.75
1772919185.3204172,-0.05919567675028172,1.1424453413231301,-7.192431094574726,1.0311337126961035,0.7168120993141317,9.77490111453894,0.0,0.0,-0.001090830782496456,14.273405550094974,-2.1038402987199385,-23.25
1772919185.341796,-0.05919567675028172,1.1424453413231301,-7.192431094574726,1.0311337126961035,0.7168120993141317,9.77490111453894,0.0,0.0,-0.001090830782496456,14.273405550094974,-2.1038402987199385,-23.25
1772919185.3686838,-0.05919567675028172,1.1424453413231301,-7.192431094574726,1.0301974078845135,0.7173733497706266,9.773261636976628,-0.0008255106551587029,-0.0022952322624145475,0.0,14.273405550094974,-2.1038402987199385,-23.25
1772919185.405459,-0.05919567675028172,1.1424453413231301,-7.192431094574726,1.0295743074916104,0.7177468556798456,9.772170582973073,0.0,0.0,0.001090830782496456,14.747980677040808,-2.601268382853058,-23.5625
1772919185.453925,-0.05919567675028172,1.1424453413231301,-7.192431094574726,1.029159641140621,0.7179954196900966,9.77144449872158,0.001542241488480469,-3.6259940612312275e-05,0.002181661564992912,14.747980677040808,-2.601268382853058,-23.5625
1772919185.4812129,-0.05919567675028172,1.1424453413231301,-7.192431094574726,1.028883685316164,0.7181608362622766,9.770961297763103,-0.0008255106551587029,-0.0022952322624145475,0.002181661564992912,14.489121516888535,-2.329943973325901,-23.25
1772919185.5152829,-0.05919567675028172,1.1424453413231301,-7.192431094574726,1.0287000397976165,0.7182709191432383,9.767294621215626,-0.0023314922030268593,-0.000716730833321766,0.001090830782496456,14.489121516888535,-2.329943973325901,-23.25
1772919185.564905,-0.05919567675028172,1.1424453413231301,-7.192431094574726,1.0284964936773207,0.7183929310687563,9.773254123285488,-0.0023314922030268593,-0.000716730833321766,-0.002181661564992912,14.963696643834368,-2.82737205745902,-23.5625
1772919185.6322649,-0.05919567675028172,1.1424453413231301,-7.192431094574726,1.0284423680871801,0.7184253756442815,9.772165582695553,-0.0007892507145463906,-0.0007529907739340783,-0.001090830782496456,14.974084351646772,-2.385552416059497,-22.5
1772919185.6702452,-0.05919567675028172,1.1424453413231301,-7.192431094574726,1.0284423680871801,0.7184253756442815,9.772165582695553,-0.0007892507145463906,-0.0007529907739340783,-0.001090830782496456,14.974084351646772,-2.385552416059497,-22.5
1772919185.6869578,-0.05919567675028172,1.1424453413231301,-7.192431094574726,1.0284063481115642,0.718446967146864,9.771441171092746,0.0,0.0,0.0,14.974084351646772,-2.385552416059497,-22.5
1772919185.7034233,-0.05919567675028172,1.1424453413231301,-7.192431094574726,1.0260732764010354,0.7208816306074152,9.770959083263287,0.0007529907739340783,-0.0007892507145463906,0.0,14.974084351646772,-2.385552416059497,-22.5
1772919185.7218208,-0.05919567675028172,1.1424453413231301,-7.192431094574726,1.0260732764010354,0.7208816306074152,9.770959083263287,0.0007529907739340783,-0.0007892507145463906,0.0,14.974084351646772,-2.385552416059497,-22.5
1772919185.7499356,-0.05919567675028172,1.1424453413231301,-7.192431094574726,1.0221003486830216,0.7201927711243131,9.777328482612695,0.0008255106551587029,0.0022952322624145475,-0.002181661564992912,13.991693432755415,-2.804519100271735,-24.0625
1772919185.7898703,-0.05919567675028172,1.1424453413231301,-7.192431094574726,1.0218767042239694,0.7220434436524994,9.781567246728873,-0.0016147613697050935,-0.0030482230363486256,0.0,13.991693432755415,-2.804519100271735,-24.0625
1772919185.8115938,-0.05919567675028172,1.1424453413231301,-7.192431094574726,1.0218767042239694,0.7220434436524994,9.781567246728873,-0.0016147613697050935,-0.0030482230363486256,0.0,13.991693432755415,-2.804519100271735,-24.0625
1772919185.836155,-0.05919567675028172,1.1424453413231301,-7.192431094574726,1.0240369721538682,0.7208547509898651,9.777697873483453,-0.0015785014290927812,-0.0015059815478681566,0.001090830782496456,14.273405550094974,-2.1038402987199385,-23.25
1772919185.8678694,-0.05919567675028172,1.1424453413231301,-7.192431094574726,1.0231655055103164,0.7224839838582247,9.775122848812357,0.0,0.0,0.0,14.273405550094974,-2.1038402987199385,-23.25
1772919185.8887606,-0.05919567675028172,1.1424453413231301,-7.192431094574726,1.0248946550130786,0.7211479255756187,9.776754310365972,0.002295232262414547,-0.0008255106551587029,-0.001090830782496456,14.273405550094974,-2.1038402987199385,-23.25
1772919185.9060996,-0.05919567675028172,1.1424453413231301,-7.192431094574726,1.0248946550130786,0.7211479255756187,9.776754310365972,0.002295232262414547,-0.0008255106551587029,-0.001090830782496456,14.273405550094974,-2.1038402987199385,-23.25
1772919185.9225805,-0.05919567675028172,1.1424453413231301,-7.192431094574726,1.0236250901345259,0.7179496928941674,9.777840029805283,0.0,0.0,0.0,14.476656267513652,-2.860127543005331,-22.5
1772919185.9355388,-0.05919567675028172,1.1424453413231301,-7.192431094574726,1.022780208889818,0.7158213047712615,9.778562563963863,-0.001542241488480469,3.6259940612312275e-05,0.0,14.476656267513652,-2.860127543005331,-22.5
1772919185.9634802,-0.05919567675028172,1.1424453413231301,-7.192431094574726,1.0222179498594068,0.714404886251121,9.779043402375164,3.625994061231226e-05,0.001542241488480469,0.001090830782496456,14.476656267513652,-2.860127543005331,-22.5
1772919185.987207,-0.05919567675028172,1.1424453413231301,-7.192431094574726,1.0222179498594068,0.714404886251121,9.779043402375164,3.625994061231226e-05,0.001542241488480469,0.001090830782496456,14.476656267513652,-2.860127543005331,-22.5
1772919186.017097,-0.05919567675028172,1.1424453413231301,-7.192431094574726,1.019534671936387,0.7158825701051743,9.779363394966568,-0.001542241488480469,3.6259940612312275e-05,-0.002181661564992912,14.760445926415692,-2.071084813173628,-22.75
1772919186.0363717,-0.05919567675028172,1.1424453413231301,-7.192431094574726,1.0201692750095712,0.7191750530223626,9.776231234754276,0.0,0.0,0.0,14.760445926415692,-2.071084813173628,-22.75
1772919186.0688837,-0.05919567675028172,1.1424453413231301,-7.192431094574726,1.0205915962657945,0.7213661636243074,9.774146817121517,-0.0016147613697050935,-0.0030482230363486256,0.001090830782496456,14.747980677040808,-2.601268382853058,-22.5
1772919186.109838,-0.05919567675028172,1.1424453413231301,-7.192431094574726,1.0231817471632996,0.720404028696817,9.772759660471387,-0.0015785014290927812,-0.0015059815478681566,0.0,14.747980677040808,-2.601268382853058,-22.5
1772919186.147342,-0.05919567675028172,1.1424453413231301,-7.192431094574726,1.0231817471632996,0.720404028696817,9.772759660471387,-0.0015785014290927812,-0.0015059815478681566,0.0,14.747980677040808,-2.601268382853058,-22.5
1772919186.198872,-0.05919567675028172,1.1424453413231301,-7.192431094574726,1.0249054636517079,0.7197637386503235,9.7751816349236,0.0007892507145463906,0.0007529907739340783,-0.001090830782496456,14.476656267513652,-2.860127543005331,-23.25
1772919186.2149334,-0.05919567675028172,1.1424453413231301,-7.192431094574726,1.028472872276344,0.7216467335960165,9.773448320159002,0.0,0.0,-0.001090830782496456,14.476656267513652,-2.860127543005331,-23.25
1772919186.22864,-0.05919567675028172,1.1424453413231301,-7.192431094574726,1.0284266483086988,0.7205907448788174,9.772294818545555,0.001542241488480469,-3.6259940612312275e-05,0.002181661564992912,14.476656267513652,-2.860127543005331,-23.25
1772919186.2570884,-0.05919567675028172,1.1424453413231301,-7.192431094574726,1.0284266483086988,0.7205907448788174,9.772294818545555,0.001542241488480469,-3.6259940612312275e-05,0.002181661564992912,14.476656267513652,-2.860127543005331,-23.25
