timestamp,yaw,pitch,roll,ax,ay,az,gx,gy,gz,mx,my,mz
1772910774.1258943,-0.05431035685191991,0.6902786040796289,-8.997042439273944,-0.10696673030522572,-1.520734442580591,9.65775465928296,-0.001090830782496456,0.004363323129985824,-0.001090830782496456,6.0,57.75,-24.5625
1772910774.1394732,-0.05431035685191991,0.6902786040796289,-8.997042439273944,-0.10696673030522572,-1.520734442580591,9.65775465928296,-0.001090830782496456,0.004363323129985824,-0.001090830782496456,6.0,57.75,-24.5625
1772910774.151998,0.0,0.0,0.0,-0.10463628119465099,-1.5238338750404417,9.691956867908102,0.001090830782496456,0.001090830782496456,0.001090830782496456,6.75,56.5625,-25.75
1772910774.1634834,0.0,0.0,0.0,-0.10463628119465099,-1.5238338750404417,9.691956867908102,0.001090830782496456,0.001090830782496456,0.001090830782496456,6.75,56.5625,-25.75
1772910774.1763384,0.0,0.0,0.0,-0.1064305050517052,-1.5225514010122236,9.72140827909907,0.0,0.0,0.002181661564992912,6.75,56.5625,-25.75
1772910774.1880918,0.0,0.0,0.0,-0.1064305050517052,-1.5225514010122236,9.72140827909907,0.0,0.0,0.002181661564992912,6.75,56.5625,-25.75
1772910774.2000585,-0.05431035685191991,0.6902786040796289,-8.997042439273944,-0.11096965269310041,-1.521697928872618,9.741007864252838,0.001090830782496456,0.0,0.0,6.75,56.5625,-25.75
1772910774.2117288,-0.05431035685191991,0.6902786040796289,-8.997042439273944,-0.11096965269310041,-1.521697928872618,9.741007864252838,0.001090830782496456,0.0,0.0,6.75,56.5625,-25.75
1772910774.234372,-0.05431035685191991,0.6902786040796289,-8.997042439273944,-0.1139904047428474,-1.5278201761122578,9.75405116923096,-0.001090830782496456,0.002181661564992912,0.001090830782496456,6.75,56.5625,-25.75
1772910774.2711723,-0.05431035685191991,0.6902786040796289,-8.997042439273944,-0.11600068148794261,-1.5318944632602554,9.762731342990637,0.0,0.004363323129985824,0.001090830782496456,6.75,56.5625,-25.75
1772910774.2826414,-0.05431035685191991,0.6902786040796289,-8.997042439273944,-0.11600068148794261,-1.5318944632602554,9.762731342990637,0.0,0.004363323129985824,0.001090830782496456,6.75,56.5625,-25.75
1772910774.2973583,-0.05431035685191991,0.6902786040796289,-8.997042439273944,-0.11733849820554085,-1.5346058558444782,9.771853013371127,0.001090830782496456,0.001090830782496456,-0.002181661564992912,6.75,56.5625,-25.75
1772910774.3102067,-0.05431035685191991,0.6902786040796289,-8.997042439273944,-0.11733849820554085,-1.5346058558444782,9.771853013371127,0.001090830782496456,0.001090830782496456,-0.002181661564992912,6.75,56.5625,-25.75
1772910774.3295207,-0.05431035685191991,0.6902786040796289,-8.997042439273944,-0.11733849820554085,-1.5346058558444782,9.771853013371127,0.001090830782496456,0.001090830782496456,-0.002181661564992912,6.75,56.5625,-25.75
1772910774.362596,-0.05431035685191991,0.6902786040796289,-8.997042439273944,-0.12216639808372244,-1.5376110663472045,9.781963146366756,0.0,0.001090830782496456,0.0,6.75,58.5,-25.75
1772910774.3982174,7.078503656436125,0.6913010723334124,-8.999658673208906,-0.1247868254317844,-1.5417553030475215,9.784651563684614,-0.001090830782496456,0.002181661564992912,0.001090830782496456,7.0625,58.5,-24.5625
1772910774.4379842,7.078503656436125,0.6913010723334124,-8.999658673208906,-0.12318557885250879,-1.5378230228627863,9.78644067537806,-0.001090830782496456,0.003272492347489368,-0.001090830782496456,7.0625,58.5,-24.5625
1772910774.4977684,7.078503656436125,0.6913010723334124,-8.999658673208906,-0.12318557885250879,-1.5378230228627863,9.78644067537806,-0.001090830782496456,0.003272492347489368,-0.001090830782496456,7.0625,58.5,-24.5625
1772910774.5182548,7.078503656436125,0.6913010723334124,-8.999658673208906,-0.12211996714109717,-1.5385512460336124,9.787631309224361,-0.001090830782496456,0.002181661564992912,0.002181661564992912,7.0625,58.875,-24.5625
1772910774.573216,7.092099529872535,0.692393555358104,-8.999099126926277,-0.1175937695498683,-1.533787136352691,9.788950965168183,-0.001090830782496456,-0.002181661564992912,-0.002181661564992912,7.5,57.875,-24.5625
1772910774.6593766,7.08551717866694,0.691851369534807,-8.999650661631543,-0.11505356880747332,-1.5325202969376308,9.789301879037913,0.0,-0.001090830782496456,0.001090830782496456,7.5,57.875,-24.5625
1772910774.6895447,7.127711266608024,0.6881858534578165,-8.99948795911671,-0.11336309358931101,-1.5316772294584318,9.789535408298253,-0.001090830782496456,-0.001090830782496456,-0.001090830782496456,8.1875,59.25,-25.0
1772910774.7363038,7.127711266608024,0.6881858534578165,-8.99948795911671,-0.11223810121546951,-1.534461289176025,9.783000595997677,0.0,-0.001090830782496456,0.0,8.1875,59.25,-25.0
1772910774.7677197,7.127711266608024,0.6881858534578165,-8.99948795911671,-0.11483454306498561,-1.5396591615254178,9.778651751410282,-0.001090830782496456,-0.001090830782496456,0.0,7.0625,58.5,-25.0
1772910774.7986069,7.127167181585409,0.6951450426386154,-8.999059068911995,-0.11656244611168268,-1.5431182875099,9.775757643917146,-0.002181661564992912,0.001090830782496456,-0.001090830782496456,7.0625,58.5,-25.0
1772910774.8502984,7.134725106520437,0.6887361502988629,-8.999480369196277,-0.11436723457999845,-1.545420297211604,9.773831647709764,-0.001090830782496456,0.003272492347489368,-0.002181661564992912,7.0625,58.5,-25.0
1772910774.8725336,7.134725106520437,0.6887361502988629,-8.999480369196277,-0.11290634582778217,-1.5436071472456354,9.779240142163179,0.0,-0.003272492347489368,0.0,7.5,58.1875,-25.75
1772910774.8874385,7.134725106520437,0.6887361502988629,-8.999480369196277,-0.11290634582778217,-1.5436071472456354,9.779240142163179,0.0,-0.003272492347489368,0.0,7.5,58.1875,-25.75
1772910774.906177,7.127167181585409,0.6951450426386154,-8.999059068911995,-0.11527925238969826,-1.5424005161974954,9.782839434805084,-0.001090830782496456,-0.003272492347489368,-0.002181661564992912,7.5,58.1875,-25.75
1772910774.9304574,7.1201534381640075,0.6945947450544605,-8.999067080515562,-0.1168583951995503,-1.5449426284212295,9.785234723851538,0.0,0.002181661564992912,-0.001090830782496456,6.75,58.5,-23.375
1772910774.9520986,7.1201534381640075,0.6945947450544605,-8.999067080515562,-0.11790929709932581,-1.5466343757088705,9.78682876195482,0.002181661564992912,-0.002181661564992912,0.001090830782496456,6.75,58.5,-23.375
1772910774.9784763,7.1201534381640075,0.6945947450544605,-8.999067080515562,-0.11790929709932581,-1.5466343757088705,9.78682876195482,0.002181661564992912,-0.002181661564992912,0.001090830782496456,6.75,58.5,-23.375
1772910775.0157247,7.092099529872535,0.692393555358104,-8.999099126926277,-0.11860866057428299,-1.54776021463074,9.787889576505984,0.001090830782496456,0.0,0.0,6.375,58.875,-24.1875
1772910775.0333455,7.092099529872535,0.692393555358104,-8.999099126926277,-0.11907407915446509,-1.54516433614948,9.785250425032388,0.0,0.001090830782496456,0.002181661564992912,6.375,58.875,-24.1875
1772910775.0520055,7.092099529872535,0.692393555358104,-8.999099126926277,-0.11907407915446509,-1.54516433614948,9.785250425032388,0.0,0.001090830782496456,0.002181661564992912,6.375,58.875,-24.1875
1772910775.0741193,7.092099529872535,0.692393555358104,-8.999099126926277,-0.11603869831319069,-1.5400916963107447,9.780148987500644,-0.001090830782496456,0.001090830782496456,0.0,6.375,58.875,-24.1875
1772910775.1128273,7.09911284733824,0.6929438526862552,-8.999091115324129,-0.11401868627074829,-1.5400610228704856,9.77675403781006,-0.001090830782496456,0.0,-0.001090830782496456,7.5,58.1875,-23.75
1772910775.1291008,7.09911284733824,0.6929438526862552,-8.999091115324129,-0.11267439082151591,-1.5433857217459575,9.774494736715049,-0.001090830782496456,-0.003272492347489368,0.0,7.5,58.1875,-23.75
1772910775.1687572,7.09911284733824,0.6929438526862552,-8.999091115324129,-0.11177977721681587,-1.5455982717082641,9.772991197074365,0.0,0.0,0.001090830782496456,7.5,58.875,-24.1875
1772910775.1869156,7.09911284733824,0.6929438526862552,-8.999091115324129,-0.11177977721681587,-1.5455982717082641,9.772991197074365,0.0,0.0,0.001090830782496456,7.5,58.875,-24.1875
1772910775.2048583,7.09911284733824,0.6929438526862552,-8.999091115324129,-0.11452953356369615,-1.5437255872850573,9.771990608239129,0.0,0.0,0.0,7.5,58.875,-24.1875
1772910775.2356257,7.09911284733824,0.6929438526862552,-8.999091115324129,-0.11635946569575392,-1.5424793367206688,9.77132472754659,0.0,0.001090830782496456,0.0,7.5,59.25,-23.75
1772910775.2536283,7.09911284733824,0.6929438526862552,-8.999091115324129,-0.11635946569575392,-1.5424793367206688,9.77132472754659,0.0,0.001090830782496456,0.0,7.5,59.25,-23.75
1772910775.2714937,7.09911284733824,0.6929438526862552,-8.999091115324129,-0.11757726508795706,-1.5416499708915992,9.770881591384079,0.0,-0.003272492347489368,-0.001090830782496456,7.5,59.25,-23.75
1772910775.301252,7.09911284733824,0.6929438526862552,-8.999091115324129,-0.11838769697975768,-1.544443148904296,9.767241577510763,0.0,0.002181661564992912,0.001090830782496456,7.5,59.25,-23.75
1772910775.3293068,7.09911284733824,0.6929438526862552,-8.999091115324129,-0.11838769697975768,-1.544443148904296,9.767241577510763,0.0,0.002181661564992912,0.001090830782496456,7.5,59.25,-23.75
1772910775.3460257,7.09911284733824,0.6929438526862552,-8.999091115324129,-0.1155819186433142,-1.546301977669903,9.76816430064701,0.0,0.002181661564992912,0.0,6.75,57.875,-23.75
1772910775.3901253,7.09911284733824,0.6929438526862552,-8.999091115324129,-0.11371470450300873,-1.5441938957416173,9.76543325087937,0.0,0.001090830782496456,0.001090830782496456,6.75,57.875,-23.75
1772910775.419531,7.09911284733824,0.6929438526862552,-8.999091115324129,-0.11247209435078408,-1.5394458790598418,9.763615767766831,0.0,0.001090830782496456,-0.001090830782496456,6.0,58.5,-25.0
1772910775.4448867,7.09911284733824,0.6929438526862552,-8.999091115324129,-0.11499026288266287,-1.536286126996942,9.762406253058053,0.0,-0.001090830782496456,0.0,6.0,58.5,-25.0
1772910775.466487,7.09911284733824,0.6929438526862552,-8.999091115324129,-0.11499026288266287,-1.536286126996942,9.762406253058053,0.0,-0.001090830782496456,0.0,6.0,58.5,-25.0
1772910775.4876363,7.09911284733824,0.6929438526862552,-8.999091115324129,-0.11666607591084256,-1.5375284590031446,9.761601334530527,0.0,-0.001090830782496456,0.001090830782496456,6.75,58.5,-23.75
1772910775.510014,7.09911284733824,0.6929438526862552,-8.999091115324129,-0.11109108734639926,-1.5383552170755146,9.761065670241987,-0.001090830782496456,0.001090830782496456,-0.002181661564992912,6.75,58.5,-23.75
1772910775.5339694,7.09911284733824,0.6929438526862552,-8.999091115324129,-0.10738099473346506,-1.5422505270445035,9.760709191641725,-0.002181661564992912,-0.001090830782496456,0.0,6.75,58.5,-23.75
1772910775.5613108,7.09911284733824,0.6929438526862552,-8.999091115324129,-0.11494730466596555,-1.5414977006080828,9.760471959115378,-0.001090830782496456,0.001090830782496456,0.0,7.0625,58.5,-24.1875
1772910775.5811894,7.09911284733824,0.6929438526862552,-8.999091115324129,-0.11494730466596555,-1.5414977006080828,9.760471959115378,-0.001090830782496456,0.001090830782496456,0.0,7.0625,58.5,-24.1875
1772910775.5931904,7.09911284733824,0.6929438526862552,-8.999091115324129,-0.1199825994048246,-1.540996703024267,9.763659195226474,-0.001090830782496456,0.001090830782496456,-0.002181661564992912,7.0625,58.5,-24.1875
1772910775.6114798,7.09911284733824,0.6929438526862552,-8.999091115324129,-0.11998842009828815,-1.5406632947287475,9.75574493013269,-0.001090830782496456,0.003272492347489368,0.001090830782496456,7.0625,58.5,-24.1875
1772910775.624103,7.09911284733824,0.6929438526862552,-8.999091115324129,-0.11998842009828815,-1.5406632947287475,9.75574493013269,-0.001090830782496456,0.003272492347489368,0.001090830782496456,7.0625,58.5,-24.1875
1772910775.6365175,7.09911284733824,0.6929438526862552,-8.999091115324129,-0.11999229370476674,-1.540441415232494,9.753823186828232,0.001090830782496456,0.0,0.003272492347489368,7.0625,58.1875,-23.75
1772910775.6491714,7.09911284733824,0.6929438526862552,-8.999091115324129,-0.11999229370476674,-1.540441415232494,9.753823186828232,0.001090830782496456,0.0,0.003272492347489368,7.0625,58.1875,-23.75
1772910775.6687078,7.09911284733824,0.6929438526862552,-8.999091115324129,-0.11999487154660722,-1.5402937569062936,9.749199176419074,-0.001090830782496456,-0.001090830782496456,0.0,7.0625,58.1875,-23.75
1772910775.687075,7.09911284733824,0.6929438526862552,-8.999091115324129,-0.11999658707155568,-1.5401954919396588,9.749467060852679,-0.001090830782496456,0.0,0.0,7.0625,58.1875,-23.75
1772910775.700354,7.09911284733824,0.6929438526862552,-8.999091115324129,-0.11999772873424522,-1.540130097702055,9.752990446658098,0.0,-0.003272492347489368,0.0,7.0625,58.1875,-23.75
1772910775.7217107,7.09911284733824,0.6929438526862552,-8.999091115324129,-0.11999772873424522,-1.540130097702055,9.752990446658098,0.0,-0.003272492347489368,0.0,7.0625,58.1875,-23.75
1772910775.7388225,7.09911284733824,0.6929438526862552,-8.999091115324129,-0.1199984884980119,-1.5434316902747505,9.762025443967444,0.0,0.002181661564992912,0.0,7.0625,58.1875,-23.75
1772910775.7557478,7.09911284733824,0.6929438526862552,-8.999091115324129,-0.11665388240499211,-1.5456288632506736,9.76803813374928,-0.001090830782496456,0.0,-0.001090830782496456,7.0625,58.1875,-23.75
1772910775.7759156,7.09911284733824,0.6929438526862552,-8.999091115324129,-0.11442808441178555,-1.5470910573221202,9.765349288218308,0.001090830782496456,0.001090830782496456,-0.002181661564992912,7.0625,58.1875,-24.5625
1772910775.7967772,7.09911284733824,0.6929438526862552,-8.999091115324129,-0.11294684071109932,-1.5413739077282511,9.76355989155382,-0.001090830782496456,-0.001090830782496456,0.0,7.0625,58.1875,-24.5625
1772910775.8223748,7.09911284733824,0.6929438526862552,-8.999091115324129,-0.11196108957486896,-1.5375692085382768,9.765714179769793,0.0,0.001090830782496456,0.0,7.0625,58.1875,-24.5625
1772910775.8358228,7.09911284733824,0.6929438526862552,-8.999091115324129,-0.11196108957486896,-1.5375692085382768,9.765714179769793,0.0,0.001090830782496456,0.0,7.0625,58.1875,-24.5625
1772910775.8555198,7.09911284733824,0.6929438526862552,-8.999091115324129,-0.11196108957486896,-1.5375692085382768,9.765714179769793,0.0,0.001090830782496456,0.0,7.0625,58.1875,-24.5625
1772910775.872988,7.09911284733824,0.6929438526862552,-8.999091115324129,-0.11465019491258872,-1.5350372237286236,9.767147834512546,0.0,0.001090830782496456,0.0,7.5,58.875,-23.75
1772910775.8954163,7.09911284733824,0.6929438526862552,-8.999091115324129,-0.11643976447556635,-1.533352216121923,9.768101915728876,0.0,0.002181661564992912,-0.001090830782496456,7.5,58.875,-23.75
1772910775.9132965,7.09911284733824,0.6929438526862552,-8.999091115324129,-0.11643976447556635,-1.533352216121923,9.768101915728876,0.0,0.002181661564992912,-0.001090830782496456,7.5,58.875,-23.75
1772910775.9408596,7.09911284733824,0.6929438526862552,-8.999091115324129,-0.1142855913216067,-1.5355759740897514,9.765391734413237,-0.001090830782496456,0.001090830782496456,0.0,7.75,59.6875,-24.5625
1772910775.961659,7.09911284733824,0.6929438526862552,-8.999091115324129,-0.11285201315133742,-1.5404009718836564,9.76024302731507,-0.001090830782496456,0.001090830782496456,0.0,7.75,59.6875,-24.5625
1772910775.983384,7.09911284733824,0.6929438526862552,-8.999091115324129,-0.11189798289314065,-1.5436119540167432,9.756816620256068,-0.001090830782496456,0.0,0.001090830782496456,7.75,59.6875,-24.5625
1772910775.99843,7.09911284733824,0.6929438526862552,-8.999091115324129,-0.11189798289314065,-1.5436119540167432,9.756816620256068,-0.001090830782496456,0.0,0.001090830782496456,7.75,59.6875,-24.5625
1772910776.0201023,7.09911284733824,0.6929438526862552,-8.999091115324129,-0.11189798289314065,-1.5436119540167432,9.756816620256068,-0.001090830782496456,0.0,0.001090830782496456,7.75,59.6875,-24.5625
1772910776.0364828,7.09911284733824,0.6929438526862552,-8.999091115324129,-0.11126308641352699,-1.5457488267572919,9.754536384633775,0.0,-0.001090830782496456,-0.001090830782496456,7.0625,58.5,-23.75
1772910776.0551946,7.09911284733824,0.6929438526862552,-8.999091115324129,-0.11084056989860247,-1.5471708916956946,9.75636402500636,-0.002181661564992912,-0.001090830782496456,-0.001090830782496456,7.0625,58.5,-23.75
1772910776.0674055,7.09911284733824,0.6929438526862552,-8.999091115324129,-0.11084056989860247,-1.5471708916956946,9.75636402500636,-0.002181661564992912,-0.001090830782496456,-0.001090830782496456,7.0625,58.5,-23.75
1772910776.0878797,7.09911284733824,0.6929438526862552,-8.999091115324129,-0.11055938987773893,-1.5481172600266953,9.757580299258233,0.001090830782496456,-0.002181661564992912,-0.002181661564992912,7.0625,58.5,-23.75
1772910776.1022387,7.09911284733824,0.6929438526862552,-8.999091115324129,-0.11037226771484089,-1.5487470575793492,9.758389716186182,-0.002181661564992912,-0.001090830782496456,0.001090830782496456,7.5,58.1875,-24.1875
1772910776.126079,7.09911284733824,0.6929438526862552,-8.999091115324129,-0.11037226771484089,-1.5487470575793492,9.758389716186182,-0.002181661564992912,-0.001090830782496456,0.001090830782496456,7.5,58.1875,-24.1875
1772910776.143,7.09911284733824,0.6929438526862552,-8.999091115324129,-0.11024774000572377,-1.5458210691080214,9.758928374109953,0.0,-0.001090830782496456,-0.001090830782496456,7.5,58.1875,-24.1875
1772910776.1552975,7.09911284733824,0.6929438526862552,-8.999091115324129,-0.11024774000572377,-1.5458210691080214,9.758928374109953,0.0,-0.001090830782496456,-0.001090830782496456,7.5,58.1875,-24.1875
1772910776.1669364,7.09911284733824,0.6929438526862552,-8.999091115324129,-0.11016486820637197,-1.547218968173105,9.75928684494102,0.001090830782496456,0.001090830782496456,0.001090830782496456,7.5,58.1875,-24.1875
1772910776.1811383,7.09911284733824,0.6929438526862552,-8.999091115324129,-0.11016486820637197,-1.547218968173105,9.75928684494102,0.001090830782496456,0.001090830782496456,0.001090830782496456,7.5,58.1875,-24.1875
1772910776.1956513,7.09911284733824,0.6929438526862552,-8.999091115324129,-0.1134548296569614,-1.544804142678043,9.759525403274713,-0.001090830782496456,-0.001090830782496456,0.0,6.375,58.5,-25.375
1772910776.2202778,7.09911284733824,0.6929438526862552,-8.999091115324129,-0.11898937395837059,-1.5465422149937669,9.749648826058957,-0.001090830782496456,0.0,-0.002181661564992912,6.375,58.5,-25.375
1772910776.2468774,7.09911284733824,0.6929438526862552,-8.999091115324129,-0.11898937395837059,-1.5465422149937669,9.749648826058957,-0.001090830782496456,0.0,-0.002181661564992912,6.375,58.5,-25.375
1772910776.2709732,7.09911284733824,0.6929438526862552,-8.999091115324129,-0.12267255136604761,-1.5443537709970219,9.756456521079745,0.0,-0.003272492347489368,0.001090830782496456,6.75,58.875,-23.375
1772910776.3054037,7.09911284733824,0.6929438526862552,-8.999091115324129,-0.12177855307974979,-1.5428973859637094,9.764332077776462,0.0,0.001090830782496456,-0.002181661564992912,6.75,58.875,-23.375
1772910776.3302722,7.09911284733824,0.6929438526862552,-8.999091115324129,-0.12118360720683378,-1.5419281779929266,9.769573172782394,0.0,0.0,0.0,7.0625,58.5,-25.0
1772910776.3613663,0.0003327273914469928,0.6929764126349348,-8.999512237225856,-0.12118360720683378,-1.5419281779929266,9.769573172782394,0.0,0.0,0.0,7.0625,58.5,-25.0
1772910776.7215023,0.0003327273914469928,0.6929764126349348,-8.999512237225856,-0.3098190755334582,-1.5138846185335286,9.765784423247052,-0.00013481153495431536,-0.0010824683118156816,0.001090830782496456,13.517295179582174,56.95356452653376,-23.75
1772910776.9616451,0.0003327273914469928,0.6929764126349348,-8.999512237225856,-0.29659464505268435,-1.5176093463296731,9.76568976504614,0.0002696230699086307,0.0021649366236313632,-0.001090830782496456,14.19952470254276,56.86859907472557,-23.75
1772910777.0073478,0.0003327273914469928,0.6929764126349348,-8.999512237225856,-0.3046119508245109,-1.5190952212312496,9.767131586786686,-0.0010824683118156816,0.00013481153495431536,0.001090830782496456,14.19952470254276,56.86859907472557,-23.75
1772910777.0816631,0.0003327273914469928,0.6929764126349348,-8.999512237225856,-0.30953396890730783,-1.516764586795452,9.768091103048814,0.0009476567768613663,-0.0012172798467699971,-0.001090830782496456,13.974385825732503,57.58944925759897,-23.375
1772910777.1199775,0.0003327273914469928,0.6929764126349348,-8.999512237225856,-0.30324375658177316,-1.5100299161224124,9.76358335035258,0.001217279846769997,0.0009476567768613663,-0.001090830782496456,14.881754225503348,56.78363362291738,-23.0
1772910777.1373203,0.0003327273914469928,0.6929764126349348,-8.999512237225856,-0.30239792510270425,-1.5148780137944606,9.765729791338314,0.0009476567768613663,-0.0012172798467699971,0.001090830782496456,14.881754225503348,56.78363362291738,-23.0
1772910777.1650383,0.0003327273914469928,0.6929764126349348,-8.999512237225856,-0.30183503370194065,-1.5181043686384093,9.767158223837004,0.0009476567768613663,-0.0012172798467699971,0.001090830782496456,14.881754225503348,56.78363362291738,-23.0
1772910777.2421234,0.0003327273914469928,0.6929764126349348,-8.999512237225856,-0.30477990334712773,-1.5198380623971317,9.768108829708247,0.0020301250886770477,-0.0013520913817243125,-0.002181661564992912,14.19952470254276,56.86859907472557,-23.375
1772910777.2793589,0.0003327273914469928,0.6929764126349348,-8.999512237225856,-0.3063262718504704,-1.5176723486424473,9.772086559003913,0.0010824683118156816,-0.00013481153495431536,0.0,14.19952470254276,56.86859907472557,-23.375
1772910777.3194582,0.0003327273914469928,0.6929764126349348,-8.999512237225856,-0.3073553628153769,-1.5162310903313123,9.774733693416032,0.0,0.0,0.001090830782496456,12.532229840259323,58.14695361952261,-24.5625
1772910777.3783793,0.0003327273914469928,0.6929764126349348,-8.999512237225856,-0.3113596789413092,-1.5148585396759824,9.77315022008955,0.0009476567768613663,-0.0012172798467699971,0.002181661564992912,12.532229840259323,58.14695361952261,-24.5625
1772910777.4202745,0.0003327273914469928,0.6929764126349348,-8.999512237225856,-0.31485132529033516,-1.5205840577162284,9.77209643627933,0.0,0.0,-0.001090830782496456,14.28449015435095,57.550828597686156,-24.1875
1772910777.460451,0.0003327273914469928,0.6929764126349348,-8.999512237225856,-0.31385550934688017,-1.524807735362965,9.771395154925166,0.0009476567768613663,-0.0012172798467699971,0.001090830782496456,14.28449015435095,57.550828597686156,-24.1875
1772910777.487074,0.0003327273914469928,0.6929764126349348,-8.999512237225856,-0.31385550934688017,-1.524807735362965,9.771395154925166,0.0009476567768613663,-0.0012172798467699971,0.001090830782496456,14.28449015435095,57.550828597686156,-24.1875
1772910777.5170915,0.0003327273914469928,0.6929764126349348,-8.999512237225856,-0.3131928049605038,-1.5276185456552973,9.767583348310477,0.0021649366236313632,-0.0002696230699086307,0.001090830782496456,13.432329727773986,56.27133500357317,-24.5625
1772910777.5393822,0.0003327273914469928,0.6929764126349348,-8.999512237225856,-0.3123383732450834,-1.5261696409215497,9.76504663358907,-0.00013481153495431536,-0.0010824683118156816,0.0,13.432329727773986,56.27133500357317,-24.5625
1772910777.560777,0.0003327273914469928,0.6929764126349348,-8.999512237225856,-0.3084502908986124,-1.525618820355747,9.763358478278935,-0.00013481153495431536,-0.0010824683118156816,0.0,14.71863621441678,57.49675967380822,-23.375
1772910777.5815535,0.0003327273914469928,0.6929764126349348,-8.999512237225856,-0.30586281552976163,-1.5252522554222745,9.75888991807065,0.0009476567768613663,-0.0012172798467699971,-0.001090830782496456,14.71863621441678,57.49675967380822,-23.375
1772910777.6131175,0.0003327273914469928,0.6929764126349348,-8.999512237225856,-0.3041408795757852,-1.5250083105538472,9.755916141169127,0.0008128452419070509,-0.0022997481585856788,0.001090830782496456,14.71863621441678,57.49675967380822,-23.375
1772910777.6587877,0.0003327273914469928,0.6929764126349348,-8.999512237225856,-0.3041408795757852,-1.5250083105538472,9.755916141169127,0.0008128452419070509,-0.0022997481585856788,0.001090830782496456,14.71863621441678,57.49675967380822,-23.375
1772910777.6965218,0.0003327273914469928,0.6929764126349348,-8.999512237225856,-0.30299495043369873,-1.5248459679689512,9.753937125860427,-0.0010824683118156816,0.00013481153495431536,-0.001090830782496456,13.804454922116124,56.2249902116778,-23.75
1772910777.7276459,0.0003327273914469928,0.6929764126349348,-8.999512237225856,-0.3022323473905075,-1.5247379307921887,9.759310336694176,0.00013481153495431536,0.0010824683118156816,0.001090830782496456,13.804454922116124,56.2249902116778,-23.75
1772910777.7596562,0.0003327273914469928,0.6929764126349348,-8.999512237225856,-0.3008980248857379,-1.5180270980889348,9.762886148481337,-0.0010824683118156816,0.00013481153495431536,0.0,13.804454922116124,56.2249902116778,-23.75
1772910777.7910697,0.0003327273914469928,0.6929764126349348,-8.999512237225856,-0.30415633444701917,-1.5197866397096251,9.765265811281258,0.0,0.0,0.0,14.595050102695776,56.50442582222918,-23.375
1772910777.8176427,0.0003327273914469928,0.6929764126349348,-8.999512237225856,-0.30721748954599815,-1.5173187154768386,9.764558232655972,0.001217279846769997,0.0009476567768613663,0.0,14.595050102695776,56.50442582222918,-23.375
1772910777.8825264,0.0003327273914469928,0.6929764126349348,-8.999512237225856,-0.30721748954599815,-1.5173187154768386,9.764558232655972,0.001217279846769997,0.0009476567768613663,0.0,14.595050102695776,56.50442582222918,-23.375
1772910777.9087682,0.0003327273914469928,0.6929764126349348,-8.999512237225856,-0.30836186758537665,-1.5193152189944275,9.763033452913755,0.00013481153495431536,0.0010824683118156816,-0.003272492347489368,14.63367076260859,56.81453015084763,-24.1875
1772910777.9313407,0.0003327273914469928,0.6929764126349348,-8.999512237225856,-0.30580397080255634,-1.5210572791321573,9.762018729028215,-0.002434559693539994,-0.0018953135537227326,0.0,14.63367076260859,56.81453015084763,-24.1875
1772910777.9526134,0.0003327273914469928,0.6929764126349348,-8.999512237225856,-0.30580397080255634,-1.5210572791321573,9.762018729028215,-0.002434559693539994,-0.0018953135537227326,0.0,14.63367076260859,56.81453015084763,-24.1875
1772910777.9670105,0.0003327273914469928,0.6929764126349348,-8.999512237225856,-0.3070077773024751,-1.5184837237600632,9.761343441617596,0.0,0.0,0.002181661564992912,14.881754225503348,56.78363362291738,-24.1875
1772910777.9905436,0.0003327273914469928,0.6929764126349348,-8.999512237225856,-0.30448942949628494,-1.517184460757612,9.764239157096602,0.0,0.0,0.001090830782496456,14.881754225503348,56.78363362291738,-24.1875
1772910778.0140555,0.0003327273914469928,0.6929764126349348,-8.999512237225856,-0.30448942949628494,-1.517184460757612,9.764239157096602,0.0,0.0,0.001090830782496456,14.881754225503348,56.78363362291738,-24.1875
1772910778.0392377,0.0003327273914469928,0.6929764126349348,-8.999512237225856,-0.3028134971630536,-1.5163198157431994,9.76616622340062,0.0010824683118156816,-0.00013481153495431536,-0.001090830782496456,14.238145362455574,57.17870340334402,-25.375
1772910778.0634737,0.0003327273914469928,0.6929764126349348,-8.999512237225856,-0.30169818291667905,-1.5157444041448254,9.767448664499204,-0.00013481153495431536,-0.0010824683118156816,0.0,14.238145362455574,57.17870340334402,-25.375
1772910778.0957384,0.0003327273914469928,0.6929764126349348,-8.999512237225856,-0.3009559537445933,-1.5153614741538763,9.768302114724506,0.0,0.0,0.0,14.238145362455574,57.17870340334402,-25.375
1772910778.1223068,0.0003327273914469928,0.6929764126349348,-8.999512237225856,-0.3009559537445933,-1.5153614741538763,9.768302114724506,0.0,0.0,0.0,14.238145362455574,57.17870340334402,-25.375
1772910778.1545396,0.0003327273914469928,0.6929764126349348,-8.999512237225856,-0.30046200852181326,-1.515106638522508,9.76887007631578,-0.001217279846769997,-0.0009476567768613663,0.0,13.928041033837125,57.21732406325683,-24.5625
1772910778.1969678,0.0003327273914469928,0.6929764126349348,-8.999512237225856,-0.3001332934937828,-1.5149370482565327,9.765902936702906,-0.00013481153495431536,-0.0010824683118156816,-0.001090830782496456,13.928041033837125,57.21732406325683,-24.5625
1772910778.2243962,0.0003327273914469928,0.6929764126349348,-8.999512237225856,-0.29950112796543604,-1.5115047202444871,9.760583226728341,-0.0010824683118156816,0.00013481153495431536,0.0,14.92037488541616,57.09373795153583,-24.5625
1772910778.240005,0.0003327273914469928,0.6929764126349348,-8.999512237225856,-0.29908042886807296,-1.5092205442940871,9.757043019165323,-0.0008128452419070509,0.0022997481585856788,0.001090830782496456,14.92037488541616,57.09373795153583,-24.5625
1772910778.2666821,0.0003327273914469928,0.6929764126349348,-8.999512237225856,-0.2988004583182946,-1.5077004507150131,9.758032162286163,0.00013481153495431536,0.0010824683118156816,0.0,14.92037488541616,57.09373795153583,-24.5625
1772910778.2965596,0.0003327273914469928,0.6929764126349348,-8.999512237225856,-0.2988004583182946,-1.5077004507150131,9.758032162286163,0.00013481153495431536,0.0010824683118156816,0.0,14.92037488541616,57.09373795153583,-24.5625
1772910778.3258517,0.0003327273914469928,0.6929764126349348,-8.999512237225856,-0.29902755039407314,-1.5100083130031838,9.758690425983628,-0.0010824683118156816,0.00013481153495431536,0.0,13.974385825732503,57.58944925759897,-23.375
1772910778.3611147,0.0003327273914469928,0.6929764126349348,-8.999512237225856,-0.299178677633719,-1.5115441695754501,9.759128493121006,-0.0008128452419070509,0.0022997481585856788,0.001090830782496456,13.974385825732503,57.58944925759897,-23.375
1772910778.3856964,0.0003327273914469928,0.6929764126349348,-8.999512237225856,-0.29927925112350146,-1.5125662649676515,9.75607491020008,0.00013481153495431536,0.0010824683118156816,-0.001090830782496456,14.672291422521402,57.12463447946608,-25.0
1772910778.410247,0.0003327273914469928,0.6929764126349348,-8.999512237225856,-0.29927925112350146,-1.5125662649676515,9.75607491020008,0.00013481153495431536,0.0010824683118156816,-0.001090830782496456,14.672291422521402,57.12463447946608,-25.0
1772910778.4241872,0.0003327273914469928,0.6929764126349348,-8.999512237225856,-0.3030790585911386,-1.5161525162689142,9.75404278487696,-0.001760502018768417,0.003517028005355676,0.0,14.672291422521402,57.12463447946608,-25.0
1772910778.442146,-132.68209396983897,-3.651653752821459,-1.9464250017138793,-0.3056077880142204,-1.5185391264488526,9.75603553988207,-0.0010824683118156816,0.00013481153495431536,-0.001090830782496456,14.672291422521402,57.12463447946608,-25.0
1772910778.456719,-132.68209396983897,-3.651653752821459,-1.9464250017138793,-0.3056077880142204,-1.5185391264488526,9.75603553988207,-0.0010824683118156816,0.00013481153495431536,-0.001090830782496456,14.672291422521402,57.12463447946608,-25.0
1772910778.488824,0.0003327273914469928,0.6929764126349348,-8.999512237225856,-0.30509107362195653,-1.5215977691074392,9.76158934991864,0.0013520913817243122,0.002030125088677048,-0.001090830782496456,13.8507997140115,56.59711540601994,-24.5625
1772910778.5082643,0.0003327273914469928,0.6929764126349348,-8.999512237225856,-0.30509107362195653,-1.5215977691074392,9.76158934991864,0.0013520913817243122,0.002030125088677048,-0.001090830782496456,13.8507997140115,56.59711540601994,-24.5625
1772910778.536899,0.0003327273914469928,0.6929764126349348,-8.999512237225856,-0.30030782637257647,-1.522989700083791,9.764402806323973,-0.0009476567768613663,0.0012172798467699971,-0.001090830782496456,13.183790645152849,57.31001364704758,-23.75
1772910778.555311,0.0003327273914469928,0.6929764126349348,-8.999512237225856,-0.30030782637257647,-1.522989700083791,9.764402806323973,-0.0009476567768613663,0.0012172798467699971,-0.001090830782496456,13.183790645152849,57.31001364704758,-23.75
1772910778.5781386,0.0003327273914469928,0.6929764126349348,-8.999512237225856,-0.30044409634497327,-1.5235026052504856,9.762930018426035,-0.0004044346048629461,-0.003247404935447045,-0.001090830782496456,13.183790645152849,57.31001364704758,-23.75
1772910778.5984023,0.0003327273914469928,0.6929764126349348,-8.999512237225856,-0.30053478248936794,-1.5238439379093944,9.761949894532076,-0.00013481153495431536,-0.0010824683118156816,0.001090830782496456,13.183790645152849,57.31001364704758,-23.75
1772910778.6182134,0.0003327273914469928,0.6929764126349348,-8.999512237225856,-0.300181723756252,-1.5207516233964764,9.761297633029347,-0.0002696230699086307,-0.0021649366236313632,0.001090830782496456,14.966719677311538,57.46586314587797,-24.1875
1772910778.6500561,0.0003327273914469928,0.6929764126349348,-8.999512237225856,-0.3032662346977742,-1.518280313282366,9.76086356028552,-0.00013481153495431536,-0.0010824683118156816,0.0,14.966719677311538,57.46586314587797,-24.1875
1772910778.6750038,0.0003327273914469928,0.6929764126349348,-8.999512237225856,-0.3053189422731123,-1.5166356840077682,9.763919801430733,-0.00013481153495431536,-0.0010824683118156816,0.0,14.819049930190094,58.30303092821619,-24.1875
1772910778.7038577,0.0003327273914469928,0.6929764126349348,-8.999512237225856,-0.3066849962342537,-1.515541201597236,9.76595369577242,0.0,0.0,0.001090830782496456,14.819049930190094,58.30303092821619,-24.1875
1772910778.728456,0.0003327273914469928,0.6929764126349348,-8.999512237225856,-0.30759408988557074,-1.5148128357791968,9.767307229736726,0.0009476567768613663,-0.0012172798467699971,0.0,14.819049930190094,58.30303092821619,-24.1875
1772910778.7527463,0.0003327273914469928,0.6929764126349348,-8.999512237225856,-0.30759408988557074,-1.5148128357791968,9.767307229736726,0.0009476567768613663,-0.0012172798467699971,0.0,14.819049930190094,58.30303092821619,-24.1875
1772910778.7750177,0.0003327273914469928,0.6929764126349348,-8.999512237225856,-0.30819908155528075,-1.5143281164636708,9.768207991470007,-0.0002696230699086307,-0.0021649366236313632,0.0,13.060204533431847,56.31767979546855,-24.5625
1772910778.7992566,0.0003327273914469928,0.6929764126349348,-8.999512237225856,-0.3056956385179666,-1.5177384181075242,9.768807438341335,0.0008128452419070509,-0.0022997481585856788,0.002181661564992912,13.060204533431847,56.31767979546855,-24.5625
1772910778.8157606,0.0003327273914469928,0.6929764126349348,-8.999512237225856,-0.30402962514192516,-1.520007935755943,9.765861251830627,0.0002696230699086307,0.0021649366236313632,0.001090830782496456,13.060204533431847,56.31767979546855,-24.5625
1772910778.8291478,0.0003327273914469928,0.6929764126349348,-8.999512237225856,-0.30402962514192516,-1.520007935755943,9.765861251830627,0.0002696230699086307,0.0021649366236313632,0.001090830782496456,13.060204533431847,56.31767979546855,-24.5625
1772910778.847056,0.0003327273914469928,0.6929764126349348,-8.999512237225856,-0.3025075025015784,-1.5181988068143062,9.767245709326128,0.0,0.0,-0.002181661564992912,13.478674519669362,56.64346019791531,-24.5625
1772910778.8604817,0.0003327273914469928,0.6929764126349348,-8.999512237225856,-0.3025075025015784,-1.5181988068143062,9.767245709326128,0.0,0.0,-0.002181661564992912,13.478674519669362,56.64346019791531,-24.5625
1772910778.874955,0.0003327273914469928,0.6929764126349348,-8.999512237225856,-0.3014945468876516,-1.5169948517129415,9.764821938616661,0.00013481153495431536,0.0010824683118156816,0.0,13.478674519669362,56.64346019791531,-24.5625
1772910778.8948154,0.0003327273914469928,0.6929764126349348,-8.999512237225856,-0.3014945468876516,-1.5169948517129415,9.764821938616661,0.00013481153495431536,0.0010824683118156816,0.0,13.478674519669362,56.64346019791531,-24.5625
1772910778.921254,0.0003327273914469928,0.6929764126349348,-8.999512237225856,-0.30082043624203897,-1.516193633042043,9.766554057992124,-0.001217279846769997,-0.0009476567768613663,0.001090830782496456,13.517295179582174,56.95356452653376,-25.0
1772910778.9360108,0.0003327273914469928,0.6929764126349348,-8.999512237225856,-0.30082043624203897,-1.516193633042043,9.766554057992124,-0.001217279846769997,-0.0009476567768613663,0.001090830782496456,13.517295179582174,56.95356452653376,-25.0
1772910778.9531665,0.0003327273914469928,0.6929764126349348,-8.999512237225856,-0.3003718231376931,-1.515660430966759,9.771051875794772,-0.00013481153495431536,-0.0010824683118156816,-0.001090830782496456,13.517295179582174,56.95356452653376,-25.0
1772910778.966473,0.0003327273914469928,0.6929764126349348,-8.999512237225856,-0.3003718231376931,-1.515660430966759,9.771051875794772,-0.00013481153495431536,-0.0010824683118156816,-0.001090830782496456,13.517295179582174,56.95356452653376,-25.0
1772910779.0097437,0.0003327273914469928,0.6929764126349348,-8.999512237225856,-0.2967538085436013,-1.515719000291095,9.774045123298517,0.0,0.0,0.002181661564992912,13.517295179582174,56.95356452653376,-25.375
1772910779.0390959,0.0003327273914469928,0.6929764126349348,-8.999512237225856,-0.30098499541607704,-1.5149311588238181,9.766001760953536,-0.0010824683118156816,0.00013481153495431536,0.0,13.517295179582174,56.95356452653376,-25.375
1772910779.0539565,0.0003327273914469928,0.6929764126349348,-8.999512237225856,-0.3038008030142554,-1.5144068591281112,9.760648993163196,0.0002696230699086307,0.0021649366236313632,-0.001090830782496456,13.928041033837125,57.21732406325683,-23.375
1772910779.0761583,0.0003327273914469928,0.6929764126349348,-8.999512237225856,-0.3056746915162112,-1.5140579435374297,9.757086785993058,-0.00013481153495431536,-0.0010824683118156816,0.0,13.928041033837125,57.21732406325683,-23.375
1772910779.102948,0.0003327273914469928,0.6929764126349348,-8.999512237225856,-0.30692174338155664,-1.513825744109474,9.761406400328433,-0.0010824683118156816,0.00013481153495431536,-0.003272492347489368,13.928041033837125,57.21732406325683,-23.375
1772910779.139057,0.0003327273914469928,0.6929764126349348,-8.999512237225856,-0.3044321748829756,-1.5140846273331867,9.757590832000732,-0.0004044346048629461,-0.003247404935447045,0.0,15.277279625656364,56.41946037042099,-24.1875
1772910779.1582239,0.0003327273914469928,0.6929764126349348,-8.999512237225856,-0.3044321748829756,-1.5140846273331867,9.757590832000732,-0.0004044346048629461,-0.003247404935447045,0.0,15.277279625656364,56.41946037042099,-24.1875
1772910779.1884382,0.0003327273914469928,0.6929764126349348,-8.999512237225856,-0.3027753948574722,-1.5142569112266526,9.758396725608657,-0.0009476567768613663,0.0012172798467699971,0.0,15.277279625656364,56.41946037042099,-24.1875
1772910779.2039368,0.0003327273914469928,0.6929764126349348,-8.999512237225856,-0.3016728262579452,-1.5143715642332167,9.75893303880231,0.0,0.0,-0.001090830782496456,14.672291422521402,57.12463447946608,-24.1875
1772910779.2251256,0.0003327273914469928,0.6929764126349348,-8.999512237225856,-0.30093907917145835,-1.5144478645283275,9.759289949241674,-0.0002696230699086307,-0.0021649366236313632,0.0,14.672291422521402,57.12463447946608,-24.1875
1772910779.2437046,0.0003327273914469928,0.6929764126349348,-8.999512237225856,-0.30093907917145835,-1.5144478645283275,9.759289949241674,-0.0002696230699086307,-0.0021649366236313632,0.0,14.672291422521402,57.12463447946608,-24.1875
1772910779.2727797,0.0003327273914469928,0.6929764126349348,-8.999512237225856,-0.307503123200046,-1.5169912904085197,9.75952746915212,-0.001217279846769997,-0.0009476567768613663,-0.002181661564992912,13.555915839494988,57.26366885515221,-24.1875
1772910779.2977834,0.0003327273914469928,0.6929764126349348,-8.999512237225856,-0.307503123200046,-1.5169912904085197,9.75952746915212,-0.001217279846769997,-0.0009476567768613663,-0.002181661564992912,13.555915839494988,57.26366885515221,-24.1875
1772910779.331745,0.0003327273914469928,0.6929764126349348,-8.999512237225856,-0.3014996090732558,-1.5166046723829125,9.759685535999251,0.00013481153495431536,0.0010824683118156816,0.0,13.555915839494988,57.26366885515221,-24.1875
1772910779.3639271,0.0003327273914469928,0.6929764126349348,-8.999512237225856,-0.30123721441919027,-1.5192534406409837,9.769826062842254,-0.001217279846769997,-0.0009476567768613663,-0.002181661564992912,14.238145362455574,57.17870340334402,-24.1875
1772910779.4113162,0.0003327273914469928,0.6929764126349348,-8.999512237225856,-0.30064918435887,-1.5176966987435636,9.776574470179165,-0.001217279846769997,-0.0009476567768613663,-0.001090830782496456,14.238145362455574,57.17870340334402,-24.1875
1772910779.4412305,0.0003327273914469928,0.6929764126349348,-8.999512237225856,-0.300671266271633,-1.5199801719852633,9.77772034816991,0.0010824683118156816,-0.00013481153495431536,0.0,14.672291422521402,57.12463447946608,-23.375
1772910779.4792712,0.0003327273914469928,0.6929764126349348,-8.999512237225856,-0.30027255218872567,-1.5181803303350605,9.771792693757815,0.00013481153495431536,0.0010824683118156816,-0.001090830782496456,14.672291422521402,57.12463447946608,-23.375
1772910779.5049596,0.0003327273914469928,0.6929764126349348,-8.999512237225856,-0.30042062176965895,-1.5203020234068856,9.764502794255487,0.0008128452419070509,-0.0022997481585856788,0.0,14.672291422521402,57.12463447946608,-23.375
1772910779.530282,0.0003327273914469928,0.6929764126349348,-8.999512237225856,-0.30042062176965895,-1.5203020234068856,9.764502794255487,0.0008128452419070509,-0.0022997481585856788,0.0,14.672291422521402,57.12463447946608,-23.375
1772910779.5664039,0.0003327273914469928,0.6929764126349348,-8.999512237225856,-0.30010575107254445,-1.518394518860834,9.7596514475702,-0.0009476567768613663,0.0012172798467699971,-0.002181661564992912,14.238145362455574,57.17870340334402,-23.0
1772910779.588827,0.0003327273914469928,0.6929764126349348,-8.999512237225856,-0.30030961749013096,-1.5204445634781452,9.753077818836914,0.001217279846769997,0.0009476567768613663,0.0,14.238145362455574,57.17870340334402,-23.0
1772910779.6094282,0.0003327273914469928,0.6929764126349348,-8.999512237225856,-0.304178165247364,-1.5247149035057732,9.748703142347157,-0.0002696230699086307,-0.0021649366236313632,0.0,14.238145362455574,57.17870340334402,-23.0
1772910779.630847,0.0003327273914469928,0.6929764126349348,-8.999512237225856,-0.304178165247364,-1.5247149035057732,9.748703142347157,-0.0002696230699086307,-0.0021649366236313632,0.0,14.238145362455574,57.17870340334402,-23.0
1772910779.65014,0.0003327273914469928,0.6929764126349348,-8.999512237225856,-0.30343317298080624,-1.527970176440516,9.75582717913352,0.0,0.0,-0.002181661564992912,14.19952470254276,56.86859907472557,-24.5625
1772910779.6691062,0.0003327273914469928,0.6929764126349348,-8.999512237225856,-0.302523979600341,-1.5268170566303196,9.763913257741459,0.0002696230699086307,0.0021649366236313632,0.001090830782496456,14.19952470254276,56.86859907472557,-24.5625
1772910779.6848187,0.0003327273914469928,0.6929764126349348,-8.999512237225856,-0.30109210286363686,-1.5194107331088533,9.765949341020306,-0.0010824683118156816,0.00013481153495431536,0.0,14.19952470254276,56.86859907472557,-24.5625
1772910779.7055635,0.0003327273914469928,0.6929764126349348,-8.999512237225856,-0.30013920489047147,-1.5144819075393725,9.76395921999052,-0.0010824683118156816,0.00013481153495431536,-0.001090830782496456,13.517295179582174,56.95356452653376,-24.1875
1772910779.741245,0.0003327273914469928,0.6929764126349348,-8.999512237225856,-0.3032379388675641,-1.5141078874167786,9.762634816676306,-0.0006780337069527356,0.0033822164704013606,0.001090830782496456,13.517295179582174,56.95356452653376,-24.1875
1772910779.775333,0.0003327273914469928,0.6929764126349348,-8.999512237225856,-0.3032379388675641,-1.5141078874167786,9.762634816676306,-0.0006780337069527356,0.0033822164704013606,0.001090830782496456,13.517295179582174,56.95356452653376,-24.1875
1772910779.8001301,0.0003327273914469928,0.6929764126349348,-8.999512237225856,-0.30530011171419263,-1.5138589812032708,9.76175344106525,0.00013481153495431536,0.0010824683118156816,0.001090830782496456,13.928041033837125,57.21732406325683,-24.5625
1772910779.8535597,0.0003327273914469928,0.6929764126349348,-8.999512237225856,-0.3066724647076438,-1.5136933368986458,9.761166895441704,-0.0020301250886770477,0.0013520913817243125,0.001090830782496456,13.928041033837125,57.21732406325683,-24.5625
1772910779.8938282,0.0003327273914469928,0.6929764126349348,-8.999512237225856,-0.30860694099982783,-1.5168292102641054,9.763861900971678,0.001217279846769997,0.0009476567768613663,-0.002181661564992912,14.764981006312155,57.86888486815036,-23.0
1772910779.9151828,0.0003327273914469928,0.6929764126349348,-8.999512237225856,-0.30860694099982783,-1.5168292102641054,9.763861900971678,0.001217279846769997,0.0009476567768613663,-0.002181661564992912,14.764981006312155,57.86888486815036,-23.0
1772910779.9622612,0.0003327273914469928,0.6929764126349348,-8.999512237225856,-0.30338343735082257,-1.5144766734589572,9.763936475341492,-0.00013481153495431536,-0.0010824683118156816,0.001090830782496456,13.230135437048224,57.68213884138972,-24.5625
1772910779.9874601,0.0003327273914469928,0.6929764126349348,-8.999512237225856,-0.30338343735082257,-1.5144766734589572,9.763936475341492,-0.00013481153495431536,-0.0010824683118156816,0.001090830782496456,13.230135437048224,57.68213884138972,-24.5625
1772910780.015341,0.0003327273914469928,0.6929764126349348,-8.999512237225856,-0.30166406239581023,-1.5111983459594243,9.762619680366452,0.001217279846769997,0.0009476567768613663,-0.002181661564992912,13.230135437048224,57.68213884138972,-24.5625
1772910780.0370224,0.0003327273914469928,0.6929764126349348,-8.999512237225856,-0.30051983756992623,-1.5090166556298026,9.765088479727446,0.0,0.0,-0.001090830782496456,14.672291422521402,57.12463447946608,-24.5625
1772910780.0572953,0.0003327273914469928,0.6929764126349348,-8.999512237225856,-0.30681071324828196,-1.5100574139726437,9.766731438123891,-0.001217279846769997,-0.0009476567768613663,-0.001090830782496456,14.672291422521402,57.12463447946608,-24.5625
1772910780.079736,0.0003327273914469928,0.6929764126349348,-8.999512237225856,-0.3043582855695691,-1.5115768457221321,9.767824808583677,0.00013481153495431536,0.0010824683118156816,0.0,14.672291422521402,57.12463447946608,-24.5625
1772910780.1092477,0.0003327273914469928,0.6929764126349348,-8.999512237225856,-0.3027262223447979,-1.5125880105782519,9.768552434410918,0.0,0.0,-0.001090830782496456,13.889420373924313,56.90721973463838,-24.1875
1772910780.1336079,0.0003327273914469928,0.6929764126349348,-8.999512237225856,-0.30164010250005346,-1.5132609294945478,9.762346437856195,-0.0020301250886770477,0.0013520913817243125,0.001090830782496456,13.889420373924313,56.90721973463838,-24.1875
1772910780.149421,0.0003327273914469928,0.6929764126349348,-8.999512237225856,-0.30164010250005346,-1.5132609294945478,9.762346437856195,-0.0020301250886770477,0.0013520913817243125,0.001090830782496456,13.889420373924313,56.90721973463838,-24.1875
1772910780.1813626,0.0003327273914469928,0.6929764126349348,-8.999512237225856,-0.30465017880979606,-1.5166148077516526,9.761561528181868,-0.0013520913817243122,-0.002030125088677048,0.0,13.889420373924313,56.90721973463838,-24.1875
1772910780.2056246,0.0003327273914469928,0.6929764126349348,-8.999512237225856,-0.3066533509691742,-1.5188467762664806,9.761039179561621,-0.0021649366236313632,0.0002696230699086307,-0.001090830782496456,13.889420373924313,56.90721973463838,-25.0
1772910780.2479908,0.0003327273914469928,0.6929764126349348,-8.999512237225856,-0.3046669720798547,-1.520745535729557,9.760691562389862,0.0004044346048629461,0.003247404935447045,0.001090830782496456,13.889420373924313,56.90721973463838,-25.0
1772910780.276545,0.0003327273914469928,0.6929764126349348,-8.999512237225856,-0.3029316497691387,-1.5186896713572147,9.757115115337875,0.0,0.0,-0.002181661564992912,14.28449015435095,57.550828597686156,-23.75
1772910780.2956138,0.0003327273914469928,0.6929764126349348,-8.999512237225856,-0.30177681215617763,-1.5173215165829308,9.75473502977631,0.00013481153495431536,0.0010824683118156816,0.001090830782496456,14.28449015435095,57.550828597686156,-23.75
1772910780.313918,0.0003327273914469928,0.6929764126349348,-8.999512237225856,-0.30177681215617763,-1.5173215165829308,9.75473502977631,0.00013481153495431536,0.0010824683118156816,0.001090830782496456,14.28449015435095,57.550828597686156,-23.75
1772910780.3481112,0.0003327273914469928,0.6929764126349348,-8.999512237225856,-0.30049683147628314,-1.5158051027958024,9.768810766663982,-0.0009476567768613663,0.0012172798467699971,-0.001090830782496456,-2018.1002033313225,309.97295587933826,-23.75
1772910780.383944,0.0003327273914469928,0.6929764126349348,-8.999512237225856,-0.30049683147628314,-1.5158051027958024,9.768810766663982,-0.0009476567768613663,0.0012172798467699971,-0.001090830782496456,-2018.1002033313225,309.97295587933826,-23.75
1772910780.417169,0.0003327273914469928,0.6929764126349348,-8.999512237225856,-0.30015646778098465,-1.515401868428053,9.772553690206806,-0.0020301250886770477,0.0013520913817243125,0.001090830782496456,-2018.1002033313225,309.97295587933826,-23.75
1772910780.4405808,0.0003327273914469928,0.6929764126349348,-8.999512237225856,-0.29951655019469514,-1.5118140528762525,9.768354340598721,0.0002696230699086307,0.0021649366236313632,-0.001090830782496456,-2018.1002033313225,309.97295587933826,-23.75
1772910780.462045,0.0003327273914469928,0.6929764126349348,-8.999512237225856,-0.2990906921893673,-1.5094264017050552,9.76555972034435,0.0009476567768613663,-0.0012172798467699971,0.0,14.63367076260859,56.81453015084763,-24.1875
1772910780.4850655,0.0003327273914469928,0.6929764126349348,-8.999512237225856,-0.2992206977931472,-1.5111569141069208,9.770390155197656,-0.0009476567768613663,0.0012172798467699971,-0.001090830782496456,14.63367076260859,56.81453015084763,-24.1875
1772910780.5259845,0.0003327273914469928,0.6929764126349348,-8.999512237225856,-0.2992206977931472,-1.5111569141069208,9.770390155197656,-0.0009476567768613663,0.0012172798467699971,-0.001090830782496456,14.63367076260859,56.81453015084763,-24.1875
1772910780.5446327,0.0003327273914469928,0.6929764126349348,-8.999512237225856,-0.29930721507020497,-1.5123085507792722,9.773604755633041,0.0022997481585856788,0.000812845241907051,0.0,14.28449015435095,57.550828597686156,-24.5625
1772910780.5779972,0.0003327273914469928,0.6929764126349348,-8.999512237225856,-0.29936479135162564,-1.5130749521200975,9.77239892460603,0.0010824683118156816,-0.00013481153495431536,-0.001090830782496456,14.28449015435095,57.550828597686156,-24.5625
1772910780.6081388,0.0003327273914469928,0.6929764126349348,-8.999512237225856,-0.29898969837456185,-1.5102655160666665,9.76490623411293,-0.0009476567768613663,0.0012172798467699971,0.0,13.928041033837125,57.21732406325683,-24.5625
1772910780.6434035,0.0003327273914469928,0.6929764126349348,-8.999512237225856,-0.29915348753756904,-1.5117153353410515,9.76326504399593,0.0002696230699086307,0.0021649366236313632,-0.001090830782496456,13.928041033837125,57.21732406325683,-24.5625
1772910780.6599133,0.0003327273914469928,0.6929764126349348,-8.999512237225856,-0.2992624873959055,-1.5126801738726123,9.76217285030636,-0.0009476567768613663,0.0012172798467699971,0.001090830782496456,13.928041033837125,57.21732406325683,-24.5625
1772910780.676133,0.0003327273914469928,0.6929764126349348,-8.999512237225856,-0.2992624873959055,-1.5126801738726123,9.76217285030636,-0.0009476567768613663,0.0012172798467699971,0.001090830782496456,13.928041033837125,57.21732406325683,-24.5625
1772910780.6903973,0.0003327273914469928,0.6929764126349348,-8.999512237225856,-0.30306790251768656,-1.51622832137272,9.761446007606555,-0.0008128452419070509,0.0022997481585856788,-0.001090830782496456,13.106549325327222,56.68980498981069,-23.375
1772910780.7135766,0.0003327273914469928,0.6929764126349348,-8.999512237225856,-0.3056003637719596,-1.5185895738986366,9.7609623019092,0.0,0.0,-0.001090830782496456,13.106549325327222,56.68980498981069,-23.375
1772910780.7389216,0.0003327273914469928,0.6929764126349348,-8.999512237225856,-0.3056003637719596,-1.5185895738986366,9.7609623019092,0.0,0.0,-0.001090830782496456,13.106549325327222,56.68980498981069,-23.375
1772910780.7557771,0.0003327273914469928,0.6929764126349348,-8.999512237225856,-0.3072856884472325,-1.5201609610777151,9.760640401170955,0.001217279846769997,0.0009476567768613663,0.0,13.183790645152849,57.31001364704758,-24.1875
1772910780.781995,0.0003327273914469928,0.6929764126349348,-8.999512237225856,-0.30799384384313644,-1.5178872341073606,9.76042617982552,0.001217279846769997,0.0009476567768613663,-0.001090830782496456,13.183790645152849,57.31001364704758,-24.1875
1772910780.7997537,0.0003327273914469928,0.6929764126349348,-8.999512237225856,-0.30799384384313644,-1.5178872341073606,9.76042617982552,0.001217279846769997,0.0009476567768613663,-0.001090830782496456,13.183790645152849,57.31001364704758,-24.1875
1772910780.8228958,0.0003327273914469928,0.6929764126349348,-8.999512237225856,-0.30514564576401004,-1.5167875035569645,9.760283617913144,0.001621714451632943,0.004195061712308411,0.0,14.71863621441678,57.49675967380822,-25.0
1772910780.8373337,0.0003327273914469928,0.6929764126349348,-8.999512237225856,-0.3032502017588087,-1.516055645160471,9.760188744552977,-0.0010824683118156816,0.00013481153495431536,0.0,14.71863621441678,57.49675967380822,-25.0
1772910780.857149,0.0003327273914469928,0.6929764126349348,-8.999512237225856,-0.3032502017588087,-1.516055645160471,9.760188744552977,-0.0010824683118156816,0.00013481153495431536,0.0,14.71863621441678,57.49675967380822,-25.0
1772910780.8839808,0.0003327273914469928,0.6929764126349348,-8.999512237225856,-0.3024022142960241,-1.5188880691574849,9.76347071909891,-0.0009476567768613663,0.0012172798467699971,0.0,14.71863621441678,57.49675967380822,-25.0
1772910780.9130075,0.0003327273914469928,0.6929764126349348,-8.999512237225856,-0.29851842052769517,-1.5211864250364282,9.765654836497172,0.0010824683118156816,-0.00013481153495431536,0.0,14.19952470254276,56.86859907472557,-24.5625
1772910780.945006,0.0003327273914469928,0.6929764126349348,-8.999512237225856,-0.2992532667441778,-1.5223025458503678,9.767108342227525,0.0,0.0,0.001090830782496456,14.19952470254276,56.86859907472557,-24.5625
1772910780.9735467,0.0003327273914469928,0.6929764126349348,-8.999512237225856,-0.2992532667441778,-1.5223025458503678,9.767108342227525,0.0,0.0,0.001090830782496456,14.19952470254276,56.86859907472557,-24.5625
1772910781.004183,0.0003327273914469928,0.6929764126349348,-8.999512237225856,-0.29891547999411683,-1.5164063766151852,9.764730522347032,0.0020301250886770477,-0.0013520913817243125,-0.001090830782496456,13.889420373924313,56.90721973463838,-23.375
1772910781.0306315,0.0003327273914469928,0.6929764126349348,-8.999512237225856,-0.2995175053836365,-1.51912147702267,9.763148109778552,-0.0009476567768613663,0.0012172798467699971,-0.001090830782496456,13.889420373924313,56.90721973463838,-23.375
1772910781.105234,0.0003327273914469928,0.6929764126349348,-8.999512237225856,-0.30282420479060396,-1.517195469080526,9.762095031890937,0.001217279846769997,0.0009476567768613663,-0.003272492347489368,13.517295179582174,56.95356452653376,-24.5625
1772910781.1361089,0.0003327273914469928,0.6929764126349348,-8.999512237225856,-0.3050247763076881,-1.5159137323099474,9.761394220320378,-0.0010824683118156816,0.00013481153495431536,0.0,13.517295179582174,56.95356452653376,-24.5625
1772910781.2012076,0.0003327273914469928,0.6929764126349348,-8.999512237225856,-0.3064892320703131,-1.5150607508070653,9.76092783804875,-0.00013481153495431536,-0.0010824683118156816,0.0,13.555915839494988,57.26366885515221,-25.0
1772910781.2631876,0.0003327273914469928,0.6929764126349348,-8.999512237225856,-0.30829062971965726,-1.521132036314298,9.760617465856813,-0.0002696230699086307,-0.0021649366236313632,-0.002181661564992912,13.555915839494988,57.26366885515221,-25.0
1772910781.3399005,0.0003327273914469928,0.6929764126349348,-8.999512237225856,-0.3094894397323656,-1.525172408998658,9.760410916630162,-0.0009476567768613663,0.0012172798467699971,0.0,13.517295179582174,56.95356452653376,-23.75
1772910781.418058,0.0003327273914469928,0.6929764126349348,-8.999512237225856,-0.3094604157058776,-1.5212222967172069,9.760273460427133,-0.0002696230699086307,-0.0021649366236313632,-0.002181661564992912,13.517295179582174,56.95356452653376,-23.75
1772910781.4702675,0.0003327273914469928,0.6929764126349348,-8.999512237225856,-0.3127605681249559,-1.5181801317703665,9.760181984859504,-0.00013481153495431536,-0.0010824683118156816,0.0,14.92037488541616,57.09373795153583,-24.1875
1772910781.5368512,0.0003327273914469928,0.6929764126349348,-8.999512237225856,-0.3149567826947345,-1.5161556049814535,9.760121108891095,0.0009476567768613663,-0.0012172798467699971,-0.001090830782496456,14.92037488541616,57.09373795153583,-24.1875
1772910781.5951064,0.0003327273914469928,0.6929764126349348,-8.999512237225856,-0.3149567826947345,-1.5161556049814535,9.760121108891095,0.0009476567768613663,-0.0012172798467699971,-0.001090830782496456,14.92037488541616,57.09373795153583,-24.1875
1772910781.6929836,0.0003327273914469928,0.6929764126349348,-8.999512237225856,-0.31697757897470025,-1.5105922243596241,9.765624882327588,0.0010824683118156816,-0.00013481153495431536,0.0,13.183790645152849,57.31001364704758,-24.5625
1772910781.7288933,0.0003327273914469928,0.6929764126349348,-8.999512237225856,-0.31697757897470025,-1.5105922243596241,9.765624882327588,0.0010824683118156816,-0.00013481153495431536,0.0,13.183790645152849,57.31001364704758,-24.5625
1772910781.7536712,0.0003327273914469928,0.6929764126349348,-8.999512237225856,-0.3177631563081415,-1.511105937362084,9.763743296354956,0.0021649366236313632,-0.0002696230699086307,-0.001090830782496456,13.974385825732503,57.58944925759897,-25.375
1772910781.8006961,0.0003327273914469928,0.6929764126349348,-8.999512237225856,-0.3182859492480729,-1.5114478076266709,9.762491121908864,-0.00013481153495431536,-0.0010824683118156816,0.0,13.974385825732503,57.58944925759897,-25.375
1772910781.8707128,0.0003327273914469928,0.6929764126349348,-8.999512237225856,-0.3022797856892956,-1.513892310351718,9.761103256566699,0.0021649366236313632,-0.0002696230699086307,0.0,14.672291422521402,57.12463447946608,-24.1875
1772910781.9182444,0.0003327273914469928,0.6929764126349348,-8.999512237225856,-0.29802353630835454,-1.5145423357729864,9.760734204920954,0.00013481153495431536,0.0010824683118156816,-0.001090830782496456,13.555915839494988,57.26366885515221,-24.1875
1772910781.9778726,0.0003327273914469928,0.6929764126349348,-8.999512237225856,-0.2989239268244255,-1.5178809786648872,9.760488605173288,0.001217279846769997,0.0009476567768613663,-0.001090830782496456,13.555915839494988,57.26366885515221,-24.1875
1772910781.9927351,0.0003327273914469928,0.6929764126349348,-8.999512237225856,-0.29952312665484965,-1.5201028082143624,9.760325161284745,0.001760502018768417,-0.003517028005355676,0.0,13.555915839494988,57.26366885515221,-24.1875
1772910782.044737,0.0003327273914469928,0.6929764126349348,-8.999512237225856,-0.29992188744849624,-1.521581410960076,9.76021639120271,-0.0010824683118156816,0.00013481153495431536,-0.001090830782496456,14.672291422521402,57.12463447946608,-24.5625
1772910782.0828147,0.0003327273914469928,0.6929764126349348,-8.999512237225856,-0.3001872583022181,-1.5225654045702735,9.760144005928154,0.00013481153495431536,0.0010824683118156816,0.002181661564992912,14.672291422521402,57.12463447946608,-24.5625
1772910782.1069102,0.0003327273914469928,0.6929764126349348,-8.999512237225856,-0.30036385964098333,-1.523220241325931,9.763440946043854,-0.0009476567768613663,0.0012172798467699971,-0.001090830782496456,13.889420373924313,56.90721973463838,-24.5625
1772910782.1449797,0.0003327273914469928,0.6929764126349348,-8.999512237225856,-0.3004813858591654,-1.5236560278718152,9.765635022861618,0.0002696230699086307,0.0021649366236313632,-0.001090830782496456,13.889420373924313,56.90721973463838,-24.5625
1772910782.1615846,0.0003327273914469928,0.6929764126349348,-8.999512237225856,-0.29973277954615163,-1.5173071037810737,9.770440268181716,0.00013481153495431536,0.0010824683118156816,-0.002181661564992912,13.889420373924313,56.90721973463838,-24.5625
1772910782.1814375,0.0003327273914469928,0.6929764126349348,-8.999512237225856,-0.29973277954615163,-1.5173071037810737,9.770440268181716,0.00013481153495431536,0.0010824683118156816,-0.002181661564992912,13.889420373924313,56.90721973463838,-24.5625
1772910782.2133813,0.0003327273914469928,0.6929764126349348,-8.999512237225856,-0.3029674673409878,-1.5159880239561205,9.773638105264133,-0.0009476567768613663,0.0012172798467699971,0.0,13.928041033837125,57.21732406325683,-24.1875
1772910782.2341216,0.0003327273914469928,0.6929764126349348,-8.999512237225856,-0.30138723900095465,-1.5122041328323952,9.769076006705662,-0.0002696230699086307,-0.0021649366236313632,0.0,13.928041033837125,57.21732406325683,-24.1875
1772910782.2582896,0.0003327273914469928,0.6929764126349348,-8.999512237225856,-0.30074902404214976,-1.5130054631428758,9.76603998107698,0.0002696230699086307,0.0021649366236313632,0.0,13.928041033837125,57.21732406325683,-24.1875
1772910782.2899528,0.0003327273914469928,0.6929764126349348,-8.999512237225856,-0.297004831531907,-1.5139521488622345,9.76401953993572,0.0002696230699086307,0.0021649366236313632,-0.001090830782496456,13.928041033837125,57.21732406325683,-24.1875
1772910782.3200564,0.0003327273914469928,0.6929764126349348,-8.999512237225856,-0.2978325808261977,-1.5141687482841153,9.762674958926018,0.00013481153495431536,0.0010824683118156816,0.0,14.881754225503348,56.78363362291738,-24.5625
1772910782.347156,0.0003327273914469928,0.6929764126349348,-8.999512237225856,-0.2978325808261977,-1.5141687482841153,9.762674958926018,0.00013481153495431536,0.0010824683118156816,0.0,14.881754225503348,56.78363362291738,-24.5625
1772910782.364337,0.0003327273914469928,0.6929764126349348,-8.999512237225856,-0.29838343873498263,-1.514312892779803,9.761780155284017,-0.0010824683118156816,0.00013481153495431536,-0.003272492347489368,14.881754225503348,56.78363362291738,-24.5625
1772910782.379844,0.0003327273914469928,0.6929764126349348,-8.999512237225856,-0.29838343873498263,-1.514312892779803,9.761780155284017,-0.0010824683118156816,0.00013481153495431536,-0.003272492347489368,14.881754225503348,56.78363362291738,-24.5625
1772910782.4267051,0.0003327273914469928,0.6929764126349348,-8.999512237225856,-0.29833661917061294,-1.5110893517469972,9.761184673455876,0.00013481153495431536,0.0010824683118156816,-0.002181661564992912,13.555915839494988,57.26366885515221,-23.0
1772910782.4633653,0.0003327273914469928,0.6929764126349348,-8.999512237225856,-0.29871887062271374,-1.512263588783464,9.760788386951216,-0.00013481153495431536,-0.0010824683118156816,0.0,13.555915839494988,57.26366885515221,-23.0
1772910782.5030909,0.0003327273914469928,0.6929764126349348,-8.999512237225856,-0.3022927222785447,-1.5126316210649655,9.760524662709175,-0.0009476567768613663,0.0012172798467699971,0.001090830782496456,14.63367076260859,56.81453015084763,-23.5
1772910782.5283635,0.0003327273914469928,0.6929764126349348,-8.999512237225856,-0.3046710806329614,-1.512876542437115,9.763694268879409,0.00013481153495431536,0.0010824683118156816,0.0,14.63367076260859,56.81453015084763,-23.5
1772910782.5918982,0.0003327273914469928,0.6929764126349348,-8.999512237225856,-0.30666726089900204,-1.5163590024588156,9.765803606378878,-0.0013520913817243122,-0.002030125088677048,-0.003272492347489368,13.602260631390363,57.63579404949434,-23.375
1772910782.6387982,0.0003327273914469928,0.6929764126349348,-8.999512237225856,-0.3046762289827711,-1.5190899500508102,9.767207346921932,0.0,0.0,0.0,13.602260631390363,57.63579404949434,-23.375
1772910782.6657379,0.0003327273914469928,0.6929764126349348,-8.999512237225856,-0.3029378101346232,-1.5175878975821127,9.768141520572524,-0.0010824683118156816,0.00013481153495431536,0.001090830782496456,13.145169985240035,56.99990931842913,-24.5625
1772910782.6959648,0.0003327273914469928,0.6929764126349348,-8.999512237225856,-0.3017809118105917,-1.51658829844322,9.76876320270159,0.0009476567768613663,-0.0012172798467699971,-0.002181661564992912,13.145169985240035,56.99990931842913,-24.5625
1772910782.7228198,0.0003327273914469928,0.6929764126349348,-8.999512237225856,-0.3017809118105917,-1.51658829844322,9.76876320270159,0.0009476567768613663,-0.0012172798467699971,-0.002181661564992912,13.145169985240035,56.99990931842913,-24.5625
1772910782.7451077,0.0003327273914469928,0.6929764126349348,-8.999512237225856,-0.30433047648383615,-1.5155096670333608,9.76917692521384,0.00013481153495431536,0.0010824683118156816,-0.001090830782496456,13.478674519669362,56.64346019791531,-23.75
1772910782.765243,0.0003327273914469928,0.6929764126349348,-8.999512237225856,-0.3031211250580705,-1.518524726812868,9.769452252924157,0.0002696230699086307,0.0021649366236313632,-0.001090830782496456,13.478674519669362,56.64346019791531,-23.75
1772910782.8079264,0.0003327273914469928,0.6929764126349348,-8.999512237225856,-0.30563578277805037,-1.5201178060665257,9.766290368732443,-0.00013481153495431536,-0.0010824683118156816,-0.001090830782496456,13.478674519669362,56.64346019791531,-23.75
1772910782.8298652,0.0003327273914469928,0.6929764126349348,-8.999512237225856,-0.30563578277805037,-1.5201178060665257,9.766290368732443,-0.00013481153495431536,-0.0010824683118156816,-0.001090830782496456,13.478674519669362,56.64346019791531,-23.75
1772910782.8508618,0.0003327273914469928,0.6929764126349348,-8.999512237225856,-0.3106287269846161,-1.5207645731647936,9.764186170123418,0.0002696230699086307,0.0021649366236313632,-0.002181661564992912,15.35452094548199,57.039669027657894,-24.1875
1772910782.8693209,0.0003327273914469928,0.6929764126349348,-8.999512237225856,-0.3106287269846161,-1.5207645731647936,9.764186170123418,0.0002696230699086307,0.0021649366236313632,-0.002181661564992912,15.35452094548199,57.039669027657894,-24.1875
1772910782.9037254,0.0003327273914469928,0.6929764126349348,-8.999512237225856,-0.3114662027610005,-1.5108377636564834,9.761853951692025,0.0014869029166786278,0.00311259340049273,0.0,15.35452094548199,57.039669027657894,-24.1875
1772910782.9343135,0.0003327273914469928,0.6929764126349348,-8.999512237225856,-0.3074564618350579,-1.5120961597196503,9.761233784141044,-0.00013481153495431536,-0.0010824683118156816,-0.001090830782496456,14.238145362455574,57.17870340334402,-25.375
1772910782.9631152,0.0003327273914469928,0.6929764126349348,-8.999512237225856,-0.3074564618350579,-1.5120961597196503,9.761233784141044,-0.00013481153495431536,-0.0010824683118156816,-0.001090830782496456,14.238145362455574,57.17870340334402,-25.375
1772910783.0006278,0.0003327273914469928,0.6929764126349348,-8.999512237225856,-0.3052212770933582,-1.5132158015757202,9.75497516644143,0.0,0.0,-0.002181661564992912,14.238145362455574,57.17870340334402,-25.375
1772910783.0261853,0.0003327273914469928,0.6929764126349348,-8.999512237225856,-0.3052212770933582,-1.5132158015757202,9.75497516644143,0.0,0.0,-0.002181661564992912,14.238145362455574,57.17870340334402,-25.375
1772910783.0487242,0.0003327273914469928,0.6929764126349348,-8.999512237225856,-0.3033005335636326,-1.5136787173904782,9.75665602939784,0.00013481153495431536,0.0010824683118156816,0.0,14.020730617627878,57.96157445194111,-25.375
1772910783.082239,0.0003327273914469928,0.6929764126349348,-8.999512237225856,-0.3020223002007113,-1.5139867826940911,9.757774624918861,-0.0009476567768613663,0.0012172798467699971,-0.001090830782496456,14.020730617627878,57.96157445194111,-25.375
1772910783.108043,0.0003327273914469928,0.6929764126349348,-8.999512237225856,-0.3011716501764894,-1.5141917967123308,9.75851903774257,-0.001217279846769997,-0.0009476567768613663,0.0,13.928041033837125,57.21732406325683,-23.375
1772910783.1420588,0.0003327273914469928,0.6929764126349348,-8.999512237225856,-0.30101896143693313,-1.5176476988357988,9.759014436161113,0.00013481153495431536,0.0010824683118156816,0.0,13.928041033837125,57.21732406325683,-23.375
1772910783.1656525,0.0003327273914469928,0.6929764126349348,-8.999512237225856,-0.30101896143693313,-1.5176476988357988,9.759014436161113,0.00013481153495431536,0.0010824683118156816,0.0,13.928041033837125,57.21732406325683,-23.375
1772910783.1970153,0.0003327273914469928,0.6929764126349348,-8.999512237225856,-0.3042368163708898,-1.5195341537448306,9.755999006567372,-0.0008128452419070509,0.0022997481585856788,0.0,13.889420373924313,56.90721973463838,-23.0
1772910783.2325315,0.0003327273914469928,0.6929764126349348,-8.999512237225856,-0.30264538594997664,-1.5178835101784027,9.75399227185729,0.0,0.0,0.0,13.889420373924313,56.90721973463838,-23.0
1772910783.2587917,0.0003327273914469928,0.6929764126349348,-8.999512237225856,-0.304905774366788,-1.5163716159746619,9.756001924031748,-0.0002696230699086307,-0.0021649366236313632,0.001090830782496456,14.28449015435095,57.550828597686156,-23.75
1772910783.2997365,0.0003327273914469928,0.6929764126349348,-8.999512237225856,-0.3030905700234965,-1.5157788766202172,9.760684436811882,-0.001217279846769997,-0.0009476567768613663,-0.001090830782496456,14.28449015435095,57.550828597686156,-23.75
1772910783.3165941,0.0003327273914469928,0.6929764126349348,-8.999512237225856,-0.3018825718101971,-1.5153844152011668,9.767145708467286,0.0,0.0,-0.002181661564992912,14.28449015435095,57.550828597686156,-23.75
1772910783.3451655,0.0003327273914469928,0.6929764126349348,-8.999512237225856,-0.3018825718101971,-1.5153844152011668,9.767145708467286,0.0,0.0,-0.002181661564992912,14.28449015435095,57.550828597686156,-23.75
1772910783.3796039,0.0003327273914469928,0.6929764126349348,-8.999512237225856,-0.30149207184265064,-1.5184413731176978,9.771445612576823,-0.0002696230699086307,-0.0021649366236313632,-0.001090830782496456,13.648605423285739,58.00791924383648,-24.5625
1772910783.4001627,0.0003327273914469928,0.6929764126349348,-8.999512237225856,-0.30123219847641886,-1.5204757444626917,9.767616927314005,-0.0010824683118156816,0.00013481153495431536,0.0,13.648605423285739,58.00791924383648,-24.5625
1772910783.424275,0.0003327273914469928,0.6929764126349348,-8.999512237225856,-0.30105925565416736,-1.5218295958673682,9.765068980040818,-0.0020301250886770477,0.0013520913817243125,0.002181661564992912,13.648605423285739,58.00791924383648,-24.5625
1772910783.4488623,0.0003327273914469928,0.6929764126349348,-8.999512237225856,-0.3009441641378569,-1.5227305688536692,9.766718461300266,-0.00013481153495431536,-0.0010824683118156816,-0.002181661564992912,14.63367076260859,56.81453015084763,-24.5625
1772910783.480687,0.0003327273914469928,0.6929764126349348,-8.999512237225856,-0.30418703960389515,-1.522916746962345,9.767816172652516,0.0009476567768613663,-0.0012172798467699971,0.0,14.63367076260859,56.81453015084763,-24.5625
1772910783.4987066,0.0003327273914469928,0.6929764126349348,-8.999512237225856,-0.305518318302891,-1.5164017112449502,9.7685466872952,0.0,0.0,-0.001090830782496456,14.63367076260859,56.81453015084763,-24.5625
1772910783.5212934,0.0003327273914469928,0.6929764126349348,-8.999512237225856,-0.305518318302891,-1.5164017112449502,9.7685466872952,0.0,0.0,-0.001090830782496456,14.63367076260859,56.81453015084763,-24.5625
1772910783.5408728,0.0003327273914469928,0.6929764126349348,-8.999512237225856,-0.3034982111704089,-1.515798904686408,9.769032836629522,0.0,0.0,0.0,14.28449015435095,57.550828597686156,-24.5625
1772910783.5675771,0.0003327273914469928,0.6929764126349348,-8.999512237225856,-0.3021538524398174,-1.5153977436554884,9.76935636358087,-0.0009476567768613663,0.0012172798467699971,-0.001090830782496456,14.28449015435095,57.550828597686156,-24.5625
1772910783.59238,0.0003327273914469928,0.6929764126349348,-8.999512237225856,-0.30125919672207974,-1.515130775470674,9.762881443738321,0.00013481153495431536,0.0010824683118156816,-0.002181661564992912,14.28449015435095,57.550828597686156,-24.5625
1772910783.6207836,0.0003327273914469928,0.6929764126349348,-8.999512237225856,-0.30125919672207974,-1.515130775470674,9.762881443738321,0.00013481153495431536,0.0010824683118156816,-0.002181661564992912,14.28449015435095,57.550828597686156,-24.5625
1772910783.6530237,0.0003327273914469928,0.6929764126349348,-8.999512237225856,-0.30398328092037086,-1.5145397017767297,9.758572456912697,0.0,0.0,-0.001090830782496456,14.672291422521402,57.12463447946608,-24.1875
1772910783.6735241,0.0003327273914469928,0.6929764126349348,-8.999512237225856,-0.30662294722267924,-1.5207852840051086,9.755704874314782,-0.0009476567768613663,0.0012172798467699971,0.0,14.672291422521402,57.12463447946608,-24.1875
1772910783.690123,0.0003327273914469928,0.6929764126349348,-8.999512237225856,-0.30662294722267924,-1.5207852840051086,9.755704874314782,-0.0009476567768613663,0.0012172798467699971,0.0,14.672291422521402,57.12463447946608,-24.1875
1772910783.7119799,0.0003327273914469928,0.6929764126349348,-8.999512237225856,-0.3075527969615008,-1.518302714041397,9.753796530128866,0.0004044346048629461,0.003247404935447045,-0.002181661564992912,14.672291422521402,57.12463447946608,-24.1875
1772910783.7397127,0.0003327273914469928,0.6929764126349348,-8.999512237225856,-0.30817160157558443,-1.5166505914626707,9.755871660098059,-0.0002696230699086307,-0.0021649366236313632,-0.001090830782496456,12.795989376982396,57.736207765267665,-24.5625
1772910783.7937746,0.0003327273914469928,0.6929764126349348,-8.999512237225856,-0.30526394154927017,-1.5159645316911265,9.757252635911836,0.0009476567768613663,-0.0012172798467699971,0.0,12.795989376982396,57.736207765267665,-24.5625
1772910783.8127277,0.0003327273914469928,0.6929764126349348,-8.999512237225856,-0.3029155169332688,-1.5121884989924677,9.758171659889395,0.0013520913817243122,0.002030125088677048,-0.001090830782496456,15.50127945315068,58.218065476408,-24.1875
1772910783.8491716,0.0003327273914469928,0.6929764126349348,-8.999512237225856,-0.30135266658494175,-1.509675591412559,9.758783260080289,0.0004044346048629461,0.003247404935447045,-0.001090830782496456,15.50127945315068,58.218065476408,-24.1875
1772910783.8689945,0.0003327273914469928,0.6929764126349348,-8.999512237225856,-0.30135266658494175,-1.509675591412559,9.758783260080289,0.0004044346048629461,0.003247404935447045,-0.001090830782496456,15.50127945315068,58.218065476408,-24.1875
1772910783.8883889,0.0003327273914469928,0.6929764126349348,-8.999512237225856,-0.30135266658494175,-1.509675591412559,9.758783260080289,0.0004044346048629461,0.003247404935447045,-0.001090830782496456,15.50127945315068,58.218065476408,-24.1875
1772910783.9148664,0.0003327273914469928,0.6929764126349348,-8.999512237225856,-0.30363207472079873,-1.5075898701399666,9.759190273175308,-0.0008128452419070509,0.0022997481585856788,0.0,13.974385825732503,57.58944925759897,-24.1875
1772910783.952261,0.0003327273914469928,0.6929764126349348,-8.999512237225856,-0.30888187230622066,-1.509107904167396,9.75946113584341,0.001217279846769997,0.0009476567768613663,0.0,13.974385825732503,57.58944925759897,-24.1875
1772910783.990381,0.0003327273914469928,0.6929764126349348,-8.999512237225856,-0.3123755539552374,-1.5101181388550993,9.759641391923296,-0.0014869029166786278,-0.00311259340049273,0.001090830782496456,13.889420373924313,56.90721973463838,-23.375
1772910784.0483494,0.0003327273914469928,0.6929764126349348,-8.999512237225856,-0.30806162489670413,-1.5116172574530649,9.763106462038188,-0.00013481153495431536,-0.0010824683118156816,0.001090830782496456,13.889420373924313,56.90721973463838,-23.375
1772910784.0811443,0.0003327273914469928,0.6929764126349348,-8.999512237225856,-0.3056041626471754,-1.5159343717182454,9.76541242749228,-0.00013481153495431536,-0.0010824683118156816,-0.001090830782496456,14.28449015435095,57.550828597686156,-23.5
1772910784.1148043,0.0003327273914469928,0.6929764126349348,-8.999512237225856,-0.30396874897176607,-1.5188073630363967,9.766947021742654,-0.0013520913817243122,-0.002030125088677048,0.001090830782496456,14.28449015435095,57.550828597686156,-23.5
1772910784.129798,0.0003327273914469928,0.6929764126349348,-8.999512237225856,-0.30396874897176607,-1.5188073630363967,9.766947021742654,-0.0013520913817243122,-0.002030125088677048,0.001090830782496456,14.28449015435095,57.550828597686156,-23.5
1772910784.1505487,0.0003327273914469928,0.6929764126349348,-8.999512237225856,-0.3066132763732152,-1.523625364900517,9.764623165366418,0.001217279846769997,0.0009476567768613663,0.0,14.843133565590534,56.473529294298935,-24.5625
1772910784.1672626,0.0003327273914469928,0.6929764126349348,-8.999512237225856,-0.30464030288390664,-1.5239256330851754,9.76307666490721,-0.00013481153495431536,-0.0010824683118156816,-0.002181661564992912,14.843133565590534,56.473529294298935,-24.5625
1772910784.1850562,0.0003327273914469928,0.6929764126349348,-8.999512237225856,-0.30464030288390664,-1.5239256330851754,9.76307666490721,-0.00013481153495431536,-0.0010824683118156816,-0.002181661564992912,14.843133565590534,56.473529294298935,-24.5625
1772910784.2177706,0.0003327273914469928,0.6929764126349348,-8.999512237225856,-0.3066467786508161,-1.5237120488586702,9.76204748612715,0.0006780337069527356,-0.0033822164704013606,0.0,13.928041033837125,57.21732406325683,-25.0
1772910784.257478,0.0003327273914469928,0.6929764126349348,-8.999512237225856,-0.3108881240951977,-1.5198370340081566,9.75801746743838,-0.0021649366236313632,0.0002696230699086307,-0.002181661564992912,13.928041033837125,57.21732406325683,-25.0
1772910784.2835817,0.0003327273914469928,0.6929764126349348,-8.999512237225856,-0.31329728276032076,-1.5139387873274057,9.755335535019263,-0.0010824683118156816,0.00013481153495431536,0.001090830782496456,14.238145362455574,57.17870340334402,-25.0
1772910784.3116937,0.0003327273914469928,0.6929764126349348,-8.999512237225856,-0.31329728276032076,-1.5139387873274057,9.755335535019263,-0.0010824683118156816,0.00013481153495431536,0.001090830782496456,14.238145362455574,57.17870340334402,-25.0
1772910784.3310623,0.0003327273914469928,0.6929764126349348,-8.999512237225856,-0.3082616157709217,-1.5108403887474584,9.763586074075446,-0.00013481153495431536,-0.0010824683118156816,-0.002181661564992912,14.238145362455574,57.17870340334402,-25.0
1772910784.3513272,0.0003327273914469928,0.6929764126349348,-8.999512237225856,-0.3049104356415627,-1.5087784391038837,9.769076715652776,-0.00013481153495431536,-0.0010824683118156816,0.001090830782496456,14.238145362455574,57.17870340334402,-25.0
1772910784.3712707,0.0003327273914469928,0.6929764126349348,-8.999512237225856,-0.3049104356415627,-1.5087784391038837,9.769076715652776,-0.00013481153495431536,-0.0010824683118156816,0.001090830782496456,14.238145362455574,57.17870340334402,-25.0
1772910784.4150193,0.0003327273914469928,0.6929764126349348,-8.999512237225856,-0.3059997302850956,-1.5069928253003912,9.776075787995323,-0.0002696230699086307,-0.0021649366236313632,0.0,14.881754225503348,56.78363362291738,-24.1875
1772910784.4448097,0.0003327273914469928,0.6929764126349348,-8.999512237225856,-0.30755146240050824,-1.512443454429753,9.780733592454528,0.00013481153495431536,0.0010824683118156816,-0.001090830782496456,14.881754225503348,56.78363362291738,-24.1875
1772910784.4618368,0.0003327273914469928,0.6929764126349348,-8.999512237225856,-0.30755146240050824,-1.512443454429753,9.780733592454528,0.00013481153495431536,0.0010824683118156816,-0.001090830782496456,14.881754225503348,56.78363362291738,-24.1875
1772910784.4850328,0.0003327273914469928,0.6929764126349348,-8.999512237225856,-0.3085841227893319,-1.5160707872278263,9.783833309291044,-0.0010824683118156816,0.00013481153495431536,0.0,13.555915839494988,57.26366885515221,-25.0
1772910784.50324,0.0003327273914469928,0.6929764126349348,-8.999512237225856,-0.3092713467425216,-1.5184847366849816,9.779205912804999,-0.001217279846769997,-0.0009476567768613663,-0.002181661564992912,13.555915839494988,57.26366885515221,-25.0
1772910784.5240657,0.0003327273914469928,0.6929764126349348,-8.999512237225856,-0.3092713467425216,-1.5184847366849816,9.779205912804999,-0.001217279846769997,-0.0009476567768613663,-0.002181661564992912,13.555915839494988,57.26366885515221,-25.0
1772910784.546082,0.0003327273914469928,0.6929764126349348,-8.999512237225856,-0.3130481541910612,-1.5196777837339563,9.776126432134943,0.0,0.0,-0.001090830782496456,13.555915839494988,57.26366885515221,-25.0
1772910784.5635953,0.0003327273914469928,0.6929764126349348,-8.999512237225856,-0.3130481541910612,-1.5196777837339563,9.776126432134943,0.0,0.0,-0.001090830782496456,13.555915839494988,57.26366885515221,-25.0
1772910784.6179678,0.0003327273914469928,0.6929764126349348,-8.999512237225856,-0.3114305769145483,-1.5194795744416376,9.772713245971328,0.0002696230699086307,0.0021649366236313632,-0.001090830782496456,14.238145362455574,57.17870340334402,-24.5625
1772910784.6466522,0.0003327273914469928,0.6929764126349348,-8.999512237225856,-0.3114305769145483,-1.5194795744416376,9.772713245971328,0.0002696230699086307,0.0021649366236313632,-0.001090830782496456,14.238145362455574,57.17870340334402,-24.5625
1772910784.6598396,0.0003327273914469928,0.6929764126349348,-8.999512237225856,-0.3111656301658771,-1.520753246497125,9.771805634884975,-0.0010824683118156816,0.00013481153495431536,-0.002181661564992912,14.238145362455574,57.17870340334402,-24.5625
1772910784.6820204,0.0003327273914469928,0.6929764126349348,-8.999512237225856,-0.31430877864877194,-1.5211874516730226,9.767856518138368,0.0010824683118156816,-0.00013481153495431536,0.0,14.63367076260859,56.81453015084763,-23.75
1772910784.7188053,0.0003327273914469928,0.6929764126349348,-8.999512237225856,-0.3164005088528693,-1.521476410367193,9.765228425058025,-0.0009476567768613663,0.0012172798467699971,-0.002181661564992912,14.63367076260859,56.81453015084763,-23.75
1772910784.7428617,0.0003327273914469928,0.6929764126349348,-8.999512237225856,-0.3140596550038723,-1.5187626509149768,9.76347945847078,-0.0010824683118156816,0.00013481153495431536,0.001090830782496456,14.63367076260859,56.81453015084763,-23.75
1772910784.7651005,0.0003327273914469928,0.6929764126349348,-8.999512237225856,-0.3140596550038723,-1.5187626509149768,9.76347945847078,-0.0010824683118156816,0.00013481153495431536,0.001090830782496456,14.63367076260859,56.81453015084763,-23.75
1772910784.7960112,0.0003327273914469928,0.6929764126349348,-8.999512237225856,-0.31250184291641564,-1.5169566743142062,9.762315540744206,-0.0008128452419070509,0.0022997481585856788,0.0,14.020730617627878,57.96157445194111,-24.1875
1772910784.8181944,0.0003327273914469928,0.6929764126349348,-8.999512237225856,-0.3114651363741145,-1.515754817060474,9.761540966498984,-0.0002696230699086307,-0.0021649366236313632,0.0,14.020730617627878,57.96157445194111,-24.1875
1772910784.8505664,0.0003327273914469928,0.6929764126349348,-8.999512237225856,-0.310775219750984,-1.5149549944837406,9.76102549599135,-0.0002696230699086307,-0.0021649366236313632,0.0,14.71863621441678,57.49675967380822,-24.1875
1772910784.8931646,0.0003327273914469928,0.6929764126349348,-8.999512237225856,-0.30699662036067793,-1.514836130842708,9.760682456126702,-0.0009476567768613663,0.0012172798467699971,0.001090830782496456,14.71863621441678,57.49675967380822,-24.1875
1772910784.918309,0.0003327273914469928,0.6929764126349348,-8.999512237225856,-0.3048954140253301,-1.518076496001881,9.757109055221466,0.00013481153495431536,0.0010824683118156816,-0.001090830782496456,14.71863621441678,57.49675967380822,-24.1875
1772910784.9471207,0.0003327273914469928,0.6929764126349348,-8.999512237225856,-0.3048954140253301,-1.518076496001881,9.757109055221466,0.00013481153495431536,0.0010824683118156816,-0.001090830782496456,14.71863621441678,57.49675967380822,-24.1875
1772910784.9777477,0.0003327273914469928,0.6929764126349348,-8.999512237225856,-0.30349708468116887,-1.5202329228180602,9.758076108543856,-0.0009476567768613663,0.0012172798467699971,-0.001090830782496456,13.889420373924313,56.90721973463838,-31.0
1772910785.0050225,0.0003327273914469928,0.6929764126349348,-8.999512237225856,-0.30256651212299185,-1.5216680007753614,9.758719671727212,-0.0010824683118156816,0.00013481153495431536,-0.001090830782496456,13.889420373924313,56.90721973463838,-31.0
1772910785.0323112,0.0003327273914469928,0.6929764126349348,-8.999512237225856,-0.3019472264807016,-1.5226230291250742,9.759147955836664,-0.0022997481585856788,-0.000812845241907051,0.0,13.230135437048224,57.68213884138972,-24.1875
1772910785.0509896,0.0003327273914469928,0.6929764126349348,-8.999512237225856,-0.3019472264807016,-1.5226230291250742,9.759147955836664,-0.0022997481585856788,-0.000812845241907051,0.0,13.230135437048224,57.68213884138972,-24.1875
1772910785.0738957,0.0003327273914469928,0.6929764126349348,-8.999512237225856,-0.30070828010527134,-1.5166196546544697,9.759432974127256,0.00013481153495431536,0.0010824683118156816,-0.002181661564992912,13.230135437048224,57.68213884138972,-24.1875
1772910785.1118321,0.0003327273914469928,0.6929764126349348,-8.999512237225856,-0.29988377513236036,-1.5126244760063694,9.762967762323102,-0.00013481153495431536,-0.0010824683118156816,0.0,14.238145362455574,57.17870340334402,-23.75
1772910785.1343524,0.0003327273914469928,0.6929764126349348,-8.999512237225856,-0.3030679532168785,-1.5128717874804345,9.765320124381267,0.0021649366236313632,-0.0002696230699086307,-0.001090830782496456,14.238145362455574,57.17870340334402,-23.75
1772910785.1575494,0.0003327273914469928,0.6929764126349348,-8.999512237225856,-0.3030679532168785,-1.5128717874804345,9.765320124381267,0.0021649366236313632,-0.0002696230699086307,-0.001090830782496456,14.238145362455574,57.17870340334402,-23.75
1772910785.1879861,0.0003327273914469928,0.6929764126349348,-8.999512237225856,-0.3051869881625255,-1.513036370503775,9.773575818468009,-0.0002696230699086307,-0.0021649366236313632,0.0,14.764981006312155,57.86888486815036,-23.375
1772910785.2135587,0.0003327273914469928,0.6929764126349348,-8.999512237225856,-0.30369112401237586,-1.5168787756009614,9.77906989066059,0.0,0.0,-0.001090830782496456,14.764981006312155,57.86888486815036,-23.375
1772910785.244012,0.0003327273914469928,0.6929764126349348,-8.999512237225856,-0.3022822337811687,-1.5161163856861752,9.772690799209986,0.0010824683118156816,-0.00013481153495431536,-0.001090830782496456,14.28449015435095,57.550828597686156,-24.5625
1772910785.271983,0.0003327273914469928,0.6929764126349348,-8.999512237225856,-0.2984385748353291,-1.5193419006480047,9.76844558510873,0.0013520913817243122,0.002030125088677048,0.0,14.28449015435095,57.550828597686156,-24.5625
1772910785.3065577,0.0003327273914469928,0.6929764126349348,-8.999512237225856,-0.2984385748353291,-1.5193419006480047,9.76844558510873,0.0013520913817243122,0.002030125088677048,0.0,14.28449015435095,57.550828597686156,-24.5625
1772910785.3266208,0.0003327273914469928,0.6929764126349348,-8.999512237225856,-0.29505384404499657,-1.5148495096547665,9.765620442546492,-0.0002696230699086307,-0.0021649366236313632,0.001090830782496456,14.881754225503348,56.78363362291738,-24.1875
1772910785.3641832,0.0003327273914469928,0.6929764126349348,-8.999512237225856,-0.29505384404499657,-1.5148495096547665,9.765620442546492,-0.0002696230699086307,-0.0021649366236313632,0.001090830782496456,14.881754225503348,56.78363362291738,-24.1875
1772910785.3918443,0.0003327273914469928,0.6929764126349348,-8.999512237225856,-0.2998536880321034,-1.5143525225181886,9.763740341730234,-0.00013481153495431536,-0.0010824683118156816,-0.001090830782496456,14.881754225503348,56.78363362291738,-24.1875
1772910785.4067876,0.0003327273914469928,0.6929764126349348,-8.999512237225856,-0.3030479305877524,-1.5140217831305058,9.759144043931796,0.0,0.0,0.0,14.28449015435095,57.550828597686156,-24.1875
1772910785.4189591,0.0003327273914469928,0.6929764126349348,-8.999512237225856,-0.3030479305877524,-1.5140217831305058,9.759144043931796,0.0,0.0,0.0,14.28449015435095,57.550828597686156,-24.1875
1772910785.4310567,0.0003327273914469928,0.6929764126349348,-8.999512237225856,-0.3055870726756895,-1.5171211473470905,9.756085259090947,0.001217279846769997,0.0009476567768613663,-0.003272492347489368,14.28449015435095,57.550828597686156,-24.1875
1772910785.4442027,0.0003327273914469928,0.6929764126349348,-8.999512237225856,-0.3055870726756895,-1.5171211473470905,9.756085259090947,0.001217279846769997,0.0009476567768613663,-0.003272492347489368,14.28449015435095,57.550828597686156,-24.1875
1772910785.4774992,-0.006979247961805749,0.6919274261480233,-8.992083593049378,-0.3101707088153961,-1.5424200127024654,9.747359448533588,0.013798488951514072,0.0048770714514423065,-0.02181661564992912,14.28449015435095,57.550828597686156,-24.1875
1772910785.5168095,-0.020595799635413706,0.6891297086643476,-8.964395888263716,-0.3099015998793138,-1.559669534338804,9.741552519081358,-0.0037866510752643063,-0.003925438642399781,0.020725784867432664,14.672291422521402,57.12463447946608,-24.1875
1772910785.5366437,-0.006827480695918,0.6910715241738543,-8.978164207203209,-0.31137614828521487,-1.5844267686359508,9.717617402154634,-0.010959494653111131,0.00026564703772747185,0.002181661564992912,14.672291422521402,57.12463447946608,-24.1875
1772910785.550271,-0.006827480695918,0.6910715241738543,-8.978164207203209,-0.31137614828521487,-1.5844267686359508,9.717617402154634,-0.010959494653111131,0.00026564703772747185,0.002181661564992912,14.672291422521402,57.12463447946608,-24.1875
1772910785.6079094,-0.0067516739651743,0.6906435532155374,-8.971204416022443,-0.29642487642268345,-1.6139323870568525,9.746801036975336,0.011094306188065447,0.0008168212740882098,0.00545415391248228,14.28449015435095,57.550828597686156,-23.0
1772910785.6285803,-0.0067516739651743,0.6906435532155374,-8.971204416022443,-0.29327595531459344,-1.6284172541805428,9.754561349256484,0.005007906954215462,-0.003921462610218622,0.003272492347489368,14.28449015435095,57.550828597686156,-23.0
1772910785.668336,-0.02755581698827267,0.6885867585739913,-8.964471454603045,-0.29245718991359204,-1.5671077241230371,9.763070862098537,0.0090641810993884,0.002168912655812522,-0.019634954084936207,14.28449015435095,57.550828597686156,-23.0
1772910785.6853786,-0.02755581698827267,0.6885867585739913,-8.964471454603045,-0.29245718991359204,-1.5671077241230371,9.763070862098537,0.0090641810993884,0.002168912655812522,-0.019634954084936207,14.28449015435095,57.550828597686156,-23.0
1772910785.7105892,-0.04856077110358693,0.6851806829152646,-8.936315125935275,-0.2919123106854345,-1.5263069167420924,9.768733847837439,0.009333804169297029,0.004333849279443885,-0.017453292519943295,14.63367076260859,56.81453015084763,-24.1875
1772910785.724362,-0.055520835218925195,0.6846394193726936,-8.936390213691993,-0.2890692435507154,-1.4792376296980378,9.772502501586981,-0.0009436807446802075,-0.0075772781827097724,-0.017453292519943295,14.63367076260859,56.81453015084763,-24.1875
1772910785.7403915,-0.055520835218925195,0.6846394193726936,-8.936390213691993,-0.2890692435507154,-1.4792376296980378,9.772502501586981,-0.0009436807446802075,-0.0075772781827097724,-0.017453292519943295,14.63367076260859,56.81453015084763,-24.1875
1772910785.7577038,-0.05443811577191679,0.6707202401027713,-8.937240530584647,-0.2539825382868369,-1.4520476384604075,9.758284940022085,0.003929414674580939,-0.012581209104744074,-0.007635815477475192,14.63367076260859,56.81453015084763,-24.1875
1772910785.7783587,-0.06139820466135359,0.6701788599856774,-8.93731471582152,-0.21318418567502048,-1.4833194146509374,9.748823311621214,-0.00027359910208978944,0.006629621405848406,-0.002181661564992912,14.19952470254276,56.86859907472557,-23.75
1772910785.8060098,-0.055295898944164534,0.6833641714682552,-8.915509651753466,-0.18603333775931719,-1.5041304323771059,9.722456033369832,0.017723927593913853,0.0010904203761779995,-0.00545415391248228,14.19952470254276,56.86859907472557,-23.75
1772910785.8320072,-0.055295898944164534,0.6833641714682552,-8.915509651753466,-0.18603333775931719,-1.5041304323771059,9.722456033369832,0.017723927593913853,0.0010904203761779995,-0.00545415391248228,14.19952470254276,56.86859907472557,-23.75
1772910785.8494802,-0.08252311728763345,0.6738205140006355,-8.909271723212571,-0.18498769182891878,-1.492263203013086,9.704908904235337,0.009742214806341135,-0.0012133038145888382,-0.016362461737446838,15.067133393084852,58.272134400285935,-23.75
1772910785.8800523,-0.08252311728763345,0.6738205140006355,-8.909271723212571,-0.2274449047411918,-1.478991372897629,9.716647267761841,0.0025693712284943094,0.0029777818655384145,-0.004363323129985824,15.067133393084852,58.272134400285935,-23.75
1772910785.9179168,-0.11036568411369482,0.6716616105419669,-8.909567893605722,-0.25280584021190516,-1.4469228451204441,9.734494352684575,0.007307655112801141,-0.003108617368311571,-0.003272492347489368,16.207136991785333,57.31138050622672,-23.75
1772910785.9549892,-0.13862922026344868,0.6694288579818921,-8.90932321524998,-0.2767112184035132,-1.4820125470499232,9.736336053213694,-0.001621714451632943,-0.004195061712308411,-0.019634954084936207,16.207136991785333,57.31138050622672,-23.75
1772910785.973077,-0.16593187413803642,0.6603095455904582,-8.910035745526656,-0.33285480812142676,-1.5306920571257348,9.781048136537834,0.0063639743681209344,-0.010685895551021342,-0.017453292519943295,14.238145362455574,57.17870340334402,-23.0
1772910786.0052044,-0.29795230372097575,0.5490443900599978,-8.867422397431843,-0.3900613886743477,-1.7224221713507752,9.937917773401487,0.034413099262185935,-0.10321904406644691,-0.1090830782496456,14.238145362455574,57.17870340334402,-23.0
1772910786.0200758,-0.41257944977852634,0.39475591841912877,-8.785096686185835,-0.4351596879290002,-1.9064473695380972,10.042312764385587,0.07325907504913964,-0.13553840172505724,-0.11999138607461016,14.238145362455574,57.17870340334402,-23.0
1772910786.0353293,-0.46321676009226725,0.2307075486495977,-8.689464256872297,-0.42652994817147794,-2.1517099982795043,10.064954900814573,0.06920677693614785,-0.15042333502056815,-0.04036073895236887,13.974385825732503,57.58944925759897,-24.5625
1772910786.0603878,-0.31587228598439804,0.12309183707164698,-8.344642099763261,-0.42780271890837024,-2.39832963690517,10.029846314069037,0.1862203339219277,-0.10233860627746016,0.07853981633974483,13.974385825732503,57.58944925759897,-24.5625
1772910786.114446,0.07382062390166234,0.14697525139330625,-7.712167408561193,-0.4087329281090731,-2.5649327075837562,10.006481941778492,0.3776506053208998,-0.056926252040351503,0.23671027980173096,13.974385825732503,57.58944925759897,-24.5625
1772910786.1443806,0.6503442214607936,0.08580657441658993,-6.650542936866956,-0.40645058583144006,-2.5969769795038466,10.031074553504109,0.4887682390583201,-0.13562115128245142,0.19416787928436915,13.8507997140115,56.59711540601994,-23.375
1772910786.1674383,0.6503442214607936,0.08580657441658993,-6.650542936866956,-0.40645058583144006,-2.5969769795038466,10.031074553504109,0.4887682390583201,-0.13562115128245142,0.19416787928436915,13.8507997140115,56.59711540601994,-23.375
1772910786.193178,1.001118452752967,-0.13259095061565448,-5.459342196963823,-0.45767855570789623,-2.500491467237045,10.047440661890032,0.5245135495413246,-0.19283728011282245,0.13744467859455345,13.8507997140115,56.59711540601994,-23.375
1772910786.2271755,1.001118452752967,-0.13259095061565448,-5.459342196963823,-0.45767855570789623,-2.500491467237045,10.047440661890032,0.5245135495413246,-0.19283728011282245,0.13744467859455345,13.8507997140115,56.59711540601994,-23.375
1772910786.2565355,2.2170363509535487,-0.17252248305771564,-3.7409523869349703,-0.5353201080186981,-2.344910258464118,10.082305829237367,0.4420395777291176,-0.025372027237474313,0.27379852640661045,13.750385998238185,55.79084415161197,-21.75
1772910786.2975543,2.2170363509535487,-0.17252248305771564,-3.7409523869349703,-0.5353201080186981,-2.344910258464118,10.082305829237367,0.4420395777291176,-0.025372027237474313,0.27379852640661045,13.750385998238185,55.79084415161197,-21.75
1772910786.3318384,2.8951851419862953,0.07588410555263592,-2.7949166925207574,-0.4912282772494851,-2.1841824647603034,10.098260062136264,0.43172233249332875,0.05066242559516973,0.31525009614147576,13.61907575453462,54.73648943430924,-17.75
1772910786.378394,3.5923664225210876,0.3476802424231508,-1.9134390572464979,-0.37520266823790943,-2.0037416389164946,10.11556764932466,0.395461632063594,0.0507813330013994,0.32179508083645453,13.61907575453462,54.73648943430924,-17.75
1772910786.4095864,4.2666520898794476,0.516597991419907,-1.023976711604657,-0.2623503679648773,-1.786970122883205,10.127085655260121,0.3355373444375932,0.019770330370520627,0.23671027980173096,13.72994732064876,49.55808886117593,-13.875
1772910786.4330645,4.640345504315926,0.42141450274167314,-0.8847501712991557,-0.17112545815794916,-1.5132518646645796,10.168201876618808,0.21041919122582983,-0.05808426496360921,0.21489366415180183,13.72994732064876,49.55808886117593,-13.875
1772910786.449663,4.880833323955634,0.2881973659482536,-0.8699331023180442,-0.11498818815352475,-1.313671264832582,10.195564262634726,0.18893246874973862,-0.11586747215906561,0.2203478180642841,13.72994732064876,49.55808886117593,-13.875
1772910786.4704504,5.283948950516872,-0.008006810947776014,-0.7043934196714355,-0.07721605271079528,-1.1775331375212819,10.227154071699717,0.20086745240497922,-0.17891230524992144,0.24216443371421323,11.74983581475446,39.72743992917633,-9.875
1772910786.5027258,5.5947490624938405,-0.25328683216030073,-0.5067201815389225,-0.0405036567390184,-0.9939896421925203,10.19130983772675,0.1428543824614258,-0.2475360996922593,0.2792526803190927,11.74983581475446,39.72743992917633,-9.875
1772910786.5206838,5.5947490624938405,-0.25328683216030073,-0.5067201815389225,-0.0405036567390184,-0.9939896421925203,10.19130983772675,0.1428543824614258,-0.2475360996922593,0.2792526803190927,11.74983581475446,39.72743992917633,-9.875
1772910786.5518343,6.474805544630453,-0.9587469021899536,-0.17045337616937248,-0.004046517824775971,-0.8564863864915229,10.150730341887474,0.07778737634625522,-0.27570810802473517,0.32506757318394386,10.46626304646993,32.45532256567631,-10.6875
1772910786.5810578,7.25033987386781,-1.4895599820274386,-0.03946704758166274,0.09113996260938743,-0.7097643993636983,9.943089108513858,0.025682157747604708,-0.24393594857030437,0.35452000431134817,10.46626304646993,32.45532256567631,-10.6875
1772910786.6059482,7.25033987386781,-1.4895599820274386,-0.03946704758166274,0.09113996260938743,-0.7097643993636983,9.943089108513858,0.025682157747604708,-0.24393594857030437,0.35452000431134817,10.46626304646993,32.45532256567631,-10.6875
1772910786.6370084,8.07015048834004,-1.9306914957742531,-0.07362424500853108,0.16234027967008618,-0.5490526718168777,9.72796861793993,-0.009519930563401323,-0.19118450452215038,0.36324665057131983,6.875431510665206,18.79437260304669,-13.0625
1772910786.664302,8.622244452612902,-2.236126881014225,-0.11809469087459594,0.2760882614219602,-0.3964306993355546,9.584808334516314,-0.0486315533880825,-0.1698246415166512,0.3043417883165112,6.875431510665206,18.79437260304669,-13.0625
1772910786.699107,9.282091602969668,-2.6518049564855652,-0.1838532130709141,0.3720555235304862,-0.15917771993361546,9.579854781200671,-0.0322557411437118,-0.17955890425863,0.30543261909900765,5.792458364064116,13.63868880613469,-18.5625
1772910786.728076,9.558613372996634,-2.8554179513509967,-0.1494192664439895,0.4839980768544943,0.11407822711864973,9.576558246803927,0.056506660425174104,-0.19061345012488384,0.24107360293171676,5.792458364064116,13.63868880613469,-18.5625
1772910786.7534952,9.932621947773931,-3.182750199395701,0.18834348389137445,0.561388461055626,0.3191632805044018,9.547603546329041,0.26813517943341164,-0.23016094225267217,0.22471114119426994,5.792458364064116,13.63868880613469,-18.5625
1772910786.778193,10.248224157260498,-3.4486163137310943,0.8045081767526946,0.6228492999877019,0.4544048645349238,9.491538287827689,0.35687372480921054,-0.1884481399420474,0.17889624832941878,2.7727569752426495,5.575065022602269,-27.375
1772910786.8156638,10.583464751084271,-3.7105041234130183,1.3702128345362135,0.6765786843500684,0.6203409730537606,9.4174312558045,0.3325241518416294,-0.19860671744979497,0.2181661564992912,2.7727569752426495,5.575065022602269,-27.375
1772910786.8531377,11.043749538582864,-4.051218299102052,2.386423496525188,0.7617014010737425,0.7482181418481437,9.200858268456887,0.47946226711429124,-0.20151690676825368,0.20507618710933373,0.4323235811603194,3.977059538298706,-31.25
1772910786.8761537,11.043749538582864,-4.051218299102052,2.386423496525188,0.7617014010737425,0.7482181418481437,9.200858268456887,0.47946226711429124,-0.20151690676825368,0.20507618710933373,0.4323235811603194,3.977059538298706,-31.25
1772910786.905531,11.481918206421733,-4.476741697243164,3.6940337807873296,0.8482248264306746,0.829598285056612,9.056731364655837,0.6003101875615092,-0.2550414357365031,0.20725784867432664,0.4323235811603194,3.977059538298706,-31.25
1772910786.9320762,11.90780236393818,-4.782425476200042,4.481420387445615,1.0712920126045824,1.0215808263930217,8.994267637252442,0.38163966047819803,-0.2014258315872921,0.30652344988150415,-2.582159584173658,1.5182582559828615,-37.5625
1772910786.9508605,12.494516624991391,-5.020471495490067,4.917682081574452,1.2960884876227634,1.1398346480357564,9.016255846870104,0.24834136642900914,-0.14195369095232815,0.3948807432637171,-2.582159584173658,1.5182582559828615,-37.5625
1772910786.9661658,12.494516624991391,-5.020471495490067,4.917682081574452,1.2960884876227634,1.1398346480357564,9.016255846870104,0.24834136642900914,-0.14195369095232815,0.3948807432637171,-2.582159584173658,1.5182582559828615,-37.5625
1772910786.9912546,12.98940660224731,-5.229596302340141,5.190595315791148,1.45478303628816,1.2915595322159539,9.114516547429247,0.25066497078068173,-0.19390819388729974,0.47451139038595835,-2.582159584173658,1.5182582559828615,-37.5625
1772910787.010527,14.313259000107806,-5.742709209641138,5.673508214662077,1.5616327137382582,1.402489150513325,9.417410877227088,0.31831327622089006,-0.1891420777777248,0.6414085001079161,-3.2564371652884945,1.1613535157426595,-39.5625
1772910787.0327055,14.313259000107806,-5.742709209641138,5.673508214662077,1.5616327137382582,1.402489150513325,9.417410877227088,0.31831327622089006,-0.1891420777777248,0.6414085001079161,-3.2564371652884945,1.1613535157426595,-39.5625
1772910787.0496573,15.865401333853029,-5.901018740174798,5.821929616126256,1.7057682673508943,1.4672165666432353,9.618983670156187,0.1855104919575257,-0.028599925571220652,0.9435686268594344,-3.2564371652884945,1.1613535157426595,-39.5625
1772910787.065048,15.865401333853029,-5.901018740174798,5.821929616126256,1.7057682673508943,1.4672165666432353,9.618983670156187,0.1855104919575257,-0.028599925571220652,0.9435686268594344,-3.2564371652884945,1.1613535157426595,-39.5625
1772910787.0938463,17.632102550939205,-5.648497929005863,5.840477750332108,1.7382928561512987,0.9775047675050053,9.11566338189765,0.054594695624316555,0.44719422431483086,1.162825614141222,-7.47340041477302,0.6788123750127582,-43.1875
1772910787.1119692,19.6530056020966,-5.099819354872419,5.6698978404742295,1.7382928561512987,0.9775047675050053,9.11566338189765,0.054594695624316555,0.44719422431483086,1.162825614141222,-7.47340041477302,0.6788123750127582,-43.1875
1772910787.1248074,21.228969561639136,-4.6344831200106,5.482170681550865,1.709426577440342,0.756985321855345,8.842814869095895,0.012608294211602021,0.5425623910964782,1.32972272386318,-7.47340041477302,0.6788123750127582,-43.1875
1772910787.1394715,23.013447678418032,-4.152296912626298,5.270771899451829,1.6611923874357373,0.5666534134005614,8.6746176785732,-0.007704884771711955,0.5824669790021606,1.6046120810522868,-8.427113606439242,1.1125028153522092,-45.875
1772910787.1553578,23.013447678418032,-4.152296912626298,5.270771899451829,1.6611923874357373,0.5666534134005614,8.6746176785732,-0.007704884771711955,0.5824669790021606,1.6046120810522868,-8.427113606439242,1.1125028153522092,-45.875
1772910787.1910012,25.00538646431186,-3.708288390200698,4.986174525732177,1.6083494485936014,0.43583117539673893,8.729939912532044,-0.07791460937605231,0.5571339649680876,1.7955074679891665,-8.427113606439242,1.1125028153522092,-45.875
1772910787.2280548,30.395510699841765,-2.7504455929461784,3.9437144305414376,1.3964854263675588,0.22919644759756022,8.920631379778502,-0.2966722356081439,0.5041324044517259,1.9013180538913228,-10.745969273616206,3.22779733262428,-49.5
1772910787.2468526,30.395510699841765,-2.7504455929461784,3.9437144305414376,1.3964854263675588,0.22919644759756022,8.920631379778502,-0.2966722356081439,0.5041324044517259,1.9013180538913228,-10.745969273616206,3.22779733262428,-49.5
1772910787.2709444,35.54892137513133,-1.7456430625820825,2.547706593612305,1.2554922862523268,0.09168334450836016,9.047534421067756,-0.4052045939883453,0.550626853441445,1.820596575986585,-10.745969273616206,3.22779733262428,-49.5
1772910787.316487,41.86025274866668,-0.31043928179300667,1.1881979043933737,1.2267388933981231,0.14375822093787666,8.864378040860347,-0.2818032064413576,0.5352583384566532,1.8904097460663583,-14.610128360397924,11.141017650676993,-59.375
1772910787.3520875,44.04947450707751,0.23105590494476203,0.8782303801296668,1.2146317905861546,0.23484441842350284,8.742489515823141,-0.20631595181289317,0.5588348265041387,1.9918570088385286,-14.610128360397924,11.141017650676993,-59.375
1772910787.3871214,47.504989821855126,1.0175048748988136,0.42290176698825743,1.193710187921224,0.30043437033189807,9.112964144483039,-0.24351238092294583,0.5337873396686992,2.0802143022207416,-14.610128360397924,11.141017650676993,-59.375
1772910787.404607,50.907167393807676,1.6563136061252783,0.07052805608429415,1.1552984011273368,0.36398836335503637,9.523421345042083,-0.1988138446824203,0.42489030700544633,2.0442168863983583,-14.518805635786302,14.908614385993753,-63.1875
1772910787.4220176,50.907167393807676,1.6563136061252783,0.07052805608429415,1.1552984011273368,0.36398836335503637,9.523421345042083,-0.1988138446824203,0.42489030700544633,2.0442168863983583,-14.518805635786302,14.908614385993753,-63.1875
1772910787.44299,54.04189254518567,2.0892428093933413,-0.23628767341959625,1.1077519338509603,0.39216595393996345,9.796576026906767,-0.2072672110627306,0.2687492230662607,1.8402315300715213,-14.518805635786302,14.908614385993753,-63.1875
1772910787.4627829,55.94313289547435,2.37669430700432,-0.3967989769958038,1.0869320908323303,0.3354090827561412,9.84455294805721,-0.16545935753896313,0.26903872629707515,1.6733344203495635,-14.518805635786302,14.908614385993753,-63.1875
1772910787.4787967,58.558741098570714,2.8289341101579324,-0.5141055044701703,1.0760071616937161,0.23996684201529278,9.538624770706248,-0.09185946439985908,0.2774606579791412,1.5522522034924569,-16.103413144893437,21.90810903147219,-71.5625
1772910787.511375,-127.30163765863028,-0.4796878099677858,-1.971872574227356,1.1948765116019056,0.16074154169310492,9.335032986120844,-0.05087240818236096,0.29763902542750087,1.581704634619861,-16.103413144893437,21.90810903147219,-71.5625
1772910787.540385,63.94268060649705,3.739799147097913,-0.579490933038147,1.3034201494372666,0.15491613765631693,9.326659172626645,-0.11198614342986365,0.20411845981340235,1.7038776822594641,-16.103413144893437,21.90810903147219,-71.5625
1772910787.5534492,63.94268060649705,3.739799147097913,-0.579490933038147,1.3034201494372666,0.15491613765631693,9.326659172626645,-0.11198614342986365,0.20411845981340235,1.7038776822594641,-16.103413144893437,21.90810903147219,-71.5625
1772910787.5811014,65.81979114554893,3.9174729906574557,-0.5935327630642947,1.3756547279048175,0.15103939634386154,9.6522525523125,-0.10817166012933124,0.14648199224944375,1.6776977434795493,-15.07359768271753,24.614082537230036,-73.375
1772910787.6025758,69.32828277628145,4.196697677781557,-0.6939949772318361,1.3544550086189189,0.10652223217358499,9.868931309377071,-0.1544322703387723,0.1192655927581916,1.5424347264499887,-15.07359768271753,24.614082537230036,-73.375
1772910787.6298466,72.47964435759057,4.512550828639352,-0.9584164420344811,1.2395713478325892,-0.028536165670769213,9.929500809060247,-0.21952313264702983,0.14386093260259436,1.4333516482003432,-14.626964886908029,31.234639095836528,1970.3125
1772910787.6712463,74.68445993478895,4.739594808010103,-1.1346189897357173,1.0731516775298309,-0.27238833604208046,9.969809134493756,-0.19246142485163778,0.14049064422873647,1.3220869083857045,-14.626964886908029,31.234639095836528,1970.3125
1772910787.6911383,76.02507296143993,4.303453004620306,-1.3741875205987772,0.9159286997900626,-0.4288815005284402,9.996633874796258,-0.19538751829882114,0.028730761073993805,1.1955505376161157,-14.626964886908029,31.234639095836528,1970.3125
1772910787.7089746,76.02507296143993,4.303453004620306,-1.3741875205987772,0.9159286997900626,-0.4288815005284402,9.996633874796258,-0.19538751829882114,0.028730761073993805,1.1955505376161157,-14.626964886908029,31.234639095836528,1970.3125
1772910787.7220223,77.29463042451593,3.817414262966816,-1.544496138142041,0.8187399326852259,-0.4732755368301673,10.014485439815589,-0.16909889542352455,-0.06028535943607609,1.1322823522313212,-14.961608470653296,34.11054350521076,-80.0625
1772910787.7349668,78.49818807390709,3.716105816466086,-1.5938460829487804,0.7665007526951608,-0.48414269461570936,9.982879004725755,-0.12726718570667012,-0.11276320438214027,1.0591966898040588,-14.961608470653296,34.11054350521076,-80.0625
1772910787.7572117,78.49818807390709,3.716105816466086,-1.5938460829487804,0.7665007526951608,-0.48414269461570936,9.982879004725755,-0.12726718570667012,-0.11276320438214027,1.0591966898040588,-14.961608470653296,34.11054350521076,-80.0625
1772910787.775017,80.17049930732249,3.370218512027584,-1.6393472902497805,0.7317361619616489,-0.49137466672788105,9.908323487923374,-0.07978134358609675,-0.10218826417298629,1.00029182754925,-14.961608470653296,34.11054350521076,-80.0625
1772910787.8029857,81.80113960576413,3.3887225019038096,-1.5466739865550438,0.6791511090542698,-0.516116461680074,9.835291842379846,0.025967311387032885,0.023148197249535738,0.96647607329186,-14.4440916278216,38.26594150869796,-82.0
1772910787.826345,83.2972123261787,3.625876779221745,-1.392748398744203,0.5803084121185231,-0.6392426074716357,9.786690098087563,0.05567356146315617,0.15575652949522847,0.8530296719122286,-14.4440916278216,38.26594150869796,-82.0
1772910787.8477495,84.14784632006831,3.863162479078146,-1.3237734467083924,0.3830521900763722,-0.8295326554914463,9.771071738714703,0.017636454885928358,0.19457069702473292,0.7472190860100724,-14.4440916278216,38.26594150869796,-82.0
1772910787.8631773,84.14784632006831,3.863162479078146,-1.3237734467083924,0.3830521900763722,-0.8295326554914463,9.771071738714703,0.017636454885928358,0.19457069702473292,0.7472190860100724,-14.4440916278216,38.26594150869796,-82.0
1772910787.88485,85.23267647584515,4.129474451713371,-1.3563471037802224,0.18790806058219198,-1.0088910143542078,9.854341022825514,-0.0440443587266597,0.15828216436973006,0.657770961845363,-15.801282161486588,39.505675393582194,-80.75
1772910787.9092364,86.04532935537931,4.19208817514835,-1.4543328471877914,-0.039450772900023356,-1.1531906802655376,9.909755801222406,-0.09944432108772608,-0.004103986531346842,0.4374231437810788,-15.801282161486588,39.505675393582194,-80.75
1772910787.9462934,157.09736086626773,-32.44365313037359,-134.936150211611,-0.190755536817855,-1.2492204959966409,9.91318260014871,-0.09616510789482977,-0.07486488537204794,0.4079707126536745,-15.76380055088972,42.335235011061044,-82.75
1772910787.9710822,87.41785199379264,3.9760751047259513,-1.645853930561083,-0.14835761549335102,-1.1927386499472596,9.898737538017716,-0.08507477773894546,-0.06525350606847996,0.41560652813114973,-15.76380055088972,42.335235011061044,-82.75
1772910787.9954727,87.86440755941472,3.63398543786747,-1.9276772314540622,-0.07866721684819737,-1.1198645041721016,9.885779398824138,-0.07980917581136486,-0.04062635796662791,0.41015237421866746,-15.76380055088972,42.335235011061044,-82.75
1772910788.0134199,87.86440755941472,3.63398543786747,-1.9276772314540622,-0.07866721684819737,-1.1198645041721016,9.885779398824138,-0.07980917581136486,-0.04062635796662791,0.41015237421866746,-15.76380055088972,42.335235011061044,-82.75
1772910788.0340319,88.72802195576217,3.2603863718826327,-2.256698345028014,-0.02648911136304314,-1.0518641780585434,9.88050101365003,-0.10741410577875532,-0.032791384810552986,0.3883357585687383,-16.718197172145505,44.28059862471674,-82.75
1772910788.0512447,89.15271337620277,3.066851808920899,-2.4487630197589545,0.05550981426877409,-0.9518212163127907,9.873643195572766,-0.16247722608203846,-0.04242264427502676,0.3752457891787809,-16.718197172145505,44.28059862471674,-82.75
1772910788.074838,89.55062144046319,3.021817635946453,-2.6245685657385165,0.110079183288731,-0.8852437428241002,9.859044059127237,-0.18332169914080737,-0.024437045675566597,0.35124751196385884,-16.718197172145505,44.28059862471674,-82.75
1772910788.091614,89.55062144046319,3.021817635946453,-2.6245685657385165,0.110079183288731,-0.8852437428241002,9.859044059127237,-0.18332169914080737,-0.024437045675566597,0.35124751196385884,-16.718197172145505,44.28059862471674,-82.75
1772910788.1088727,89.55062144046319,3.021817635946453,-2.6245685657385165,0.110079183288731,-0.8852437428241002,9.859044059127237,-0.18332169914080737,-0.024437045675566597,0.35124751196385884,-16.718197172145505,44.28059862471674,-82.75
1772910788.1438565,90.90344554873987,2.7240571687336717,-3.4152621915186874,0.013760164976951946,-0.970464874364228,9.720295482791064,-0.10539988481880291,0.001034755925641777,0.2694352032766246,-16.176141074186994,45.59871287874254,-85.0625
1772910788.1730952,91.3020635137219,2.473942803934978,-3.687801055942681,-0.017653407660421658,-0.9964446762033953,9.693435746838139,-0.05086408255879356,-0.020047531945586488,0.22689280275926285,-16.176141074186994,45.59871287874254,-85.0625
1772910788.1992636,91.53254860980726,2.359108049843387,-3.7714633502699058,-0.007029943680897293,-1.0041767579186336,9.709012009677572,-0.050035333188161876,-0.05752551222209124,0.19416787928436915,-16.14661140543587,48.87014268826978,-84.5625
1772910788.2296767,91.79260800399005,2.2417687514516467,-3.87009966670057,3.9852925607794306e-05,-1.0093223719271127,9.823076301525859,-0.09210883374965684,-0.06877451010601679,0.11999138607461016,-16.14661140543587,48.87014268826978,-84.5625
1772910788.2469006,91.86593304557285,2.019257470658424,-4.099669848372034,-0.015573298472617705,-1.0405548820839579,9.919055483813182,-0.08345703931949368,-0.05226388632669179,-0.00545415391248228,-16.14661140543587,48.87014268826978,-84.5625
1772910788.2745051,91.73717198847133,1.7840707382881964,-4.328162741545525,-0.025963676317807802,-1.0613397687033397,9.982928557467678,-0.09145068020360989,-0.028183936429019313,-0.07963064712224129,-17.50380193910086,50.10987657315401,-85.0625
1772910788.3211517,91.53035335148054,1.5505784229459252,-4.497132098168439,0.0007175356973412191,-1.049017354448384,9.97860381057329,-0.04531295343257968,-0.02843367933802215,-0.12762720155208535,-17.50380193910086,50.10987657315401,-85.0625
1772910788.3446279,91.3243318530544,1.3318726326777885,-4.604639706118637,0.031751454582701115,-1.0424705628088178,9.975725739825663,-0.010673967454477866,-0.03274764845656024,-0.12980886311707826,-17.50380193910086,50.10987657315401,-85.0625
1772910788.3611617,91.1856719402988,1.1924276596467573,-4.675614504717644,0.04868349678669923,-1.0679889543655183,9.957084857356676,-0.0005273180432737849,-0.030713547335702033,-0.11671889372712078,-18.791247475059595,51.40390719177937,-84.25
1772910788.391138,91.1856719402988,1.1924276596467573,-4.675614504717644,0.04868349678669923,-1.0679889543655183,9.957084857356676,-0.0005273180432737849,-0.030713547335702033,-0.11671889372712078,-18.791247475059595,51.40390719177937,-84.25
1772910788.4181669,91.06809735025915,1.0049002808232015,-4.758970663586232,0.059538172380975335,-1.088290626471877,9.92795399976927,0.00921489676306735,-0.03192685115029087,-0.04581489286485115,-18.791247475059595,51.40390719177937,-84.25
1772910788.4394834,91.13691335034038,0.7867084122107519,-4.789354696917755,0.07340077290326748,-1.102627981172482,9.888497069213937,0.03208154284615099,-0.033675425072515815,0.044724062082354694,-20.705942370648227,51.20148509119041,-84.5625
1772910788.4626567,91.29447621163744,0.6943583808706828,-4.86008403827494,0.08262617869545849,-1.1121693305669884,9.828787805618964,-0.003509075940993358,-0.019349618077727955,0.10362892433716332,-20.705942370648227,51.20148509119041,-84.5625
1772910788.49153,91.29447621163744,0.6943583808706828,-4.86008403827494,0.08262617869545849,-1.1121693305669884,9.828787805618964,-0.003509075940993358,-0.019349618077727955,0.10362892433716332,-20.705942370648227,51.20148509119041,-84.5625
1772910788.5193045,91.5100058070004,0.7450325234304115,-5.01437054775711,0.030680996862638216,-1.1247689034070614,9.789051957692687,-0.013822345144601025,0.04789027672543631,0.09817477042468103,-21.480861477399568,50.54220015431433,-84.25
1772910788.5513647,91.64588130371462,0.9248670158257237,-5.079673946060529,-0.022138916700553797,-1.1443646019777245,9.765953306483574,0.03525340317015601,0.13301674288273685,0.08835729338221293,-21.480861477399568,50.54220015431433,-84.25
1772910788.5749257,91.78588757555303,1.1209037860286424,-5.093484485815802,-0.05728997913976267,-1.157405320478205,9.8107934228645,0.043639550562591674,0.1385678720089507,0.10690141668465268,-20.20977544485871,51.139692035329915,-84.5625
1772910788.614085,92.04817189009378,1.3713378226633561,-5.156702495003217,-0.08068261852996032,-1.1660837729659044,9.840634019419085,0.032953655011570326,0.1322038976408298,0.13744467859455345,-20.20977544485871,51.139692035329915,-84.5625
1772910788.6404161,92.04817189009378,1.3713378226633561,-5.156702495003217,-0.08068261852996032,-1.1660837729659044,9.840634019419085,0.032953655011570326,0.1322038976408298,0.13744467859455345,-20.20977544485871,51.139692035329915,-84.5625
1772910788.6863375,92.96433343082474,1.9093718029635804,-5.479813679757322,-0.12526464572997698,-1.1992075147197139,9.845852037773541,-0.0869028723047936,0.08777100843803178,0.18980455615438332,-21.233461444094374,52.022976799700324,-85.0625
1772910788.715515,93.30799992995769,2.046184478150269,-5.701897686344132,-0.14622482909297443,-1.2486799778120703,9.847239577474065,-0.07431371113568722,0.0741113070536532,0.16253378659197193,-21.079890043895876,55.27895834526244,-85.75
1772910788.7662663,93.30799992995769,2.046184478150269,-5.701897686344132,-0.14622482909297443,-1.2486799778120703,9.847239577474065,-0.07431371113568722,0.0741113070536532,0.16253378659197193,-21.079890043895876,55.27895834526244,-85.75
1772910788.7828102,93.4660963446993,2.116375101030957,-5.887309148520296,-0.19543531957122323,-1.2940665937870417,9.854853193059569,-0.05753744031863471,0.07641900727660118,0.06763150851478027,-21.079890043895876,55.27895834526244,-85.75
1772910788.8051813,93.49614129241348,2.160616026326019,-6.0769016723744445,-0.1983091430069228,-1.3279915638592845,9.846539522352785,-0.0548133773942803,0.036506467306556434,0.018544123302439753,-19.57502976310944,53.202056678039995,-86.25
