timestamp,yaw,pitch,roll,ax,ay,az,gx,gy,gz,mx,my,mz
1772909823.2440946,0.5497211297401466,0.6947817352271464,-8.818230963754381,-0.1169138083439578,-1.5204429911936133,9.774143923996698,0.0,0.004363323129985824,-0.001090830782496456,-0.1875,49.6875,7.5625
1772909823.2562172,0.5497211297401466,0.6947817352271464,-8.818230963754381,-0.11794617392792361,-1.5202948056908137,9.772757735129138,-0.001090830782496456,0.003272492347489368,0.001090830782496456,0.5,49.6875,6.0
1772909823.2715492,0.5497211297401466,0.6947817352271464,-8.818230963754381,-0.11794617392792361,-1.5202948056908137,9.772757735129138,-0.001090830782496456,0.003272492347489368,0.001090830782496456,0.5,49.6875,6.0
1772909823.2917304,0.5497211297401466,0.6947817352271464,-8.818230963754381,-0.11863320169177366,-1.5235413016013606,9.77518035362984,-0.001090830782496456,0.003272492347489368,-0.001090830782496456,0.5,49.6875,6.0
1772909823.3130603,0.43774962672013185,0.6864043265712959,-8.881834416613826,-0.11909041099401288,-1.5257018083640939,9.786827914301595,-0.08072147790473774,0.01090830782496456,-0.1439896632895322,0.5,49.6875,6.0
1772909823.3279452,0.37513670964283746,0.6748156661215381,-8.952776839262851,-0.11939467867729053,-2.112534150261143,9.784543900694912,-0.025089107997418487,0.008726646259971648,-0.018544123302439753,0.5,50.0625,7.1875
1772909823.3407829,0.37513670964283746,0.6748156661215381,-8.952776839262851,-0.11939467867729053,-2.112534150261143,9.784543900694912,-0.025089107997418487,0.008726646259971648,-0.018544123302439753,0.5,50.0625,7.1875
1772909823.355842,0.42472952520482693,0.6714904151615018,-8.910174727395175,-0.015898702494718184,-2.5030645184468456,9.475273638080383,0.011999138607461015,-0.0272707695624114,0.07308566242726255,0.5,50.0625,7.1875
1772909823.3675392,0.42472952520482693,0.6714904151615018,-8.910174727395175,-0.015898702494718184,-2.5030645184468456,9.475273638080383,0.011999138607461015,-0.0272707695624114,0.07308566242726255,0.5,50.0625,7.1875
1772909823.3874974,0.4368594728755672,0.7002719066178813,-8.854106932595785,0.05297671352897708,-2.445172503769032,9.269457733085614,0.039269908169872414,0.026179938779914945,0.016362461737446838,0.5,50.0625,7.1875
1772909823.4035602,0.4365659557252579,0.7070663228110653,-8.811751068630901,-0.09854905722790692,-2.145727301526213,9.51048717035299,0.01090830782496456,-0.025089107997418487,0.013089969389957472,-0.5625,47.875,8.75
1772909823.4235778,0.4365659557252579,0.7070663228110653,-8.811751068630901,-0.09854905722790692,-2.145727301526213,9.51048717035299,0.01090830782496456,-0.025089107997418487,0.013089969389957472,-0.5625,47.875,8.75
1772909823.459336,0.42330157255129963,0.6922650530431984,-8.874839623361716,-0.18286700591856525,-1.808261709978912,9.69735289147778,-0.009817477042468103,0.003272492347489368,0.014180800172453928,0.0625,46.75,9.5625
1772909823.5086408,0.42330157255129963,0.6922650530431984,-8.874839623361716,-0.12838617309514044,-1.7285605064332725,9.714963937385198,0.0,0.007635815477475192,0.028361600344907856,0.0625,46.75,9.5625
1772909823.8550992,0.5884648105347171,0.7331895910609998,-8.880840328517564,-0.14377287986292905,-1.6402225448378132,9.880537508285473,-0.01090830782496456,-0.008726646259971648,0.016362461737446838,0.875,28.6875,14.375
1772909823.8762038,0.5874257632103945,0.7470970166168361,-8.873731841104721,-0.14920103281758848,-1.579936090371827,9.974020833564564,0.014180800172453928,0.019634954084936207,-0.007635815477475192,0.875,28.6875,14.375
1772909823.9012916,0.5874257632103945,0.7470970166168361,-8.873731841104721,-0.14920103281758848,-1.579936090371827,9.974020833564564,0.014180800172453928,0.019634954084936207,-0.007635815477475192,0.875,28.6875,14.375
1772909823.920776,0.6235106367546046,0.7422514419154885,-8.768238483725312,-0.0992916206553626,-1.3290740908074143,10.036232942260632,0.038179077387375956,-0.0272707695624114,0.020725784867432664,0.5,27.5625,16.25
1772909823.9420762,0.6235106367546046,0.7422514419154885,-8.768238483725312,-0.0992916206553626,-1.3290740908074143,10.036232942260632,0.038179077387375956,-0.0272707695624114,0.020725784867432664,0.5,27.5625,16.25
1772909823.9638004,0.5058936669392402,0.7193125200585054,-8.790157182429386,-0.06607746438606574,-0.800856168018955,10.137846416374824,-0.0272707695624114,-0.031634092692397225,-0.013089969389957472,0.5,27.5625,16.25
1772909824.0047185,0.5879662014049476,0.7401236599552808,-8.873757542528482,-0.043973814415284924,-0.4493330409840558,10.20546904830094,-0.04145156973486533,0.016362461737446838,0.020725784867432664,0.5,25.75,17.0625
1772909824.0404842,0.5879662014049476,0.7401236599552808,-8.873757542528482,-0.043973814415284924,-0.4493330409840558,10.20546904830094,-0.04145156973486533,0.016362461737446838,0.020725784867432664,0.5,25.75,17.0625
1772909824.064258,0.5190553846329051,0.7275687424596803,-8.832390198979006,-0.02257385885904021,-0.6000861730546818,10.056454675428949,0.02181661564992912,0.007635815477475192,-0.04581489286485115,0.5,25.75,17.0625
1772909824.0961876,0.5468682145658391,0.7297972719013347,-8.846338119645576,-0.008332427489526364,-0.7639678208639245,9.957287274882255,-0.014180800172453928,0.0,0.020725784867432664,1.25,25.0,17.0625
1772909824.1285973,0.553139642702323,0.7373798302702945,-8.866909510019852,-0.03230603107352098,-0.8094721043639499,9.891292477590877,-0.019634954084936207,-0.00545415391248228,0.009817477042468103,1.25,25.0,17.0625
1772909824.1545286,0.5396904418567502,0.7293609581958631,-8.87407273835044,-0.04826019645597017,-0.903311819156132,9.803887225008504,0.001090830782496456,0.003272492347489368,-0.013089969389957472,1.25,25.0,17.0625
1772909824.1746736,0.5329199438123773,0.7287180145934528,-8.846420800800583,-0.05553240359096594,-1.0728046757262504,9.745720005795581,0.018544123302439753,0.006544984694978736,-0.00545415391248228,1.25,25.375,16.6875
1772909824.2113326,0.5329199438123773,0.7287180145934528,-8.846420800800583,-0.05553240359096594,-1.0728046757262504,9.745720005795581,0.018544123302439753,0.006544984694978736,-0.00545415391248228,1.25,25.375,16.6875
1772909824.232444,0.5329199438123773,0.7287180145934528,-8.846420800800583,-0.060371976203429115,-1.185600278414398,9.800673498984738,-0.003272492347489368,0.002181661564992912,-0.001090830782496456,1.25,25.375,16.6875
1772909824.2459016,0.5329199438123773,0.7287180145934528,-8.846420800800583,-0.060371976203429115,-1.185600278414398,9.800673498984738,-0.003272492347489368,0.002181661564992912,-0.001090830782496456,1.25,25.375,16.6875
1772909824.2700272,0.5328004110027634,0.7287478990882105,-8.860000573381539,-0.07697310454473254,-1.2606644919939187,9.83724443483138,-0.004363323129985824,0.0,0.001090830782496456,0.875,24.6875,17.5
1772909824.2992852,0.5327585745183028,0.7287837604821815,-8.867057259548227,-0.09805630513107355,-1.37417601004795,9.821440643625367,0.007635815477475192,0.003272492347489368,-0.009817477042468103,0.875,24.6875,17.5
1772909824.3202963,0.5328004110027634,0.7287478990882105,-8.860000573381539,-0.11208693960650135,-1.4497166573061677,9.81092339711768,0.00545415391248228,0.002181661564992912,0.001090830782496456,0.875,24.6875,17.5
1772909824.3373146,0.5328004110027634,0.7287478990882105,-8.860000573381539,-0.11208693960650135,-1.4497166573061677,9.81092339711768,0.00545415391248228,0.002181661564992912,0.001090830782496456,0.875,24.6875,17.5
1772909824.3522463,0.5328004110027634,0.7287478990882105,-8.860000573381539,-0.10135349987352558,-1.433085880065803,9.817304733881434,-0.003272492347489368,0.001090830782496456,0.006544984694978736,0.5,25.375,17.875
1772909824.3651218,0.5328004110027634,0.7287478990882105,-8.860000573381539,-0.10135349987352558,-1.433085880065803,9.817304733881434,-0.003272492347489368,0.001090830782496456,0.006544984694978736,0.5,25.375,17.875
1772909824.3804615,0.532218469712844,0.7357570993670469,-8.86703479060734,-0.09421051563160825,-1.4220182835902948,9.82155144221351,-0.008726646259971648,0.002181661564992912,0.002181661564992912,0.5,25.375,17.875
1772909824.3953447,0.5321762062554584,0.7357929608170899,-8.874091617828514,-0.11287272136221015,-1.4849002676227046,9.810997132340388,0.001090830782496456,0.001090830782496456,-0.002181661564992912,0.5,25.375,17.875
1772909824.4144201,0.5321762062554584,0.7357929608170899,-8.874091617828514,-0.11287272136221015,-1.4849002676227046,9.810997132340388,0.001090830782496456,0.001090830782496456,-0.002181661564992912,0.5,25.375,17.875
1772909824.4750156,0.532218469712844,0.7357570993670469,-8.86703479060734,-0.12529221080542813,-1.526747525558486,9.793938021897233,-0.003272492347489368,0.003272492347489368,0.002181661564992912,1.5625,25.375,17.875
1772909824.4875946,0.532218469712844,0.7357570993670469,-8.86703479060734,-0.12529221080542813,-1.526747525558486,9.793938021897233,-0.003272492347489368,0.003272492347489368,0.002181661564992912,1.5625,25.375,17.875
1772909824.5032308,0.532218469712844,0.7357570993670469,-8.86703479060734,-0.12352190717314415,-1.5445610731282895,9.779240262752744,-0.003272492347489368,0.002181661564992912,0.002181661564992912,1.5625,25.375,17.875
1772909824.5250232,0.5321762062554584,0.7357929608170899,-8.874091617828514,-0.1223437898814465,-1.556415790045629,9.772804179934134,0.0,0.0,-0.001090830782496456,1.5625,25.375,17.875
1772909824.5391588,0.5321762062554584,0.7357929608170899,-8.874091617828514,-0.1223437898814465,-1.556415790045629,9.772804179934134,0.0,0.0,-0.001090830782496456,1.5625,25.375,17.875
1772909824.5543785,0.5321762062554584,0.7357929608170899,-8.874091617828514,-0.12824998939889293,-1.5643049717282536,9.765175927006785,0.003272492347489368,0.003272492347489368,-0.001090830782496456,1.25,25.0,16.25
1772909824.5664864,0.5321762062554584,0.7357929608170899,-8.874091617828514,-0.13218049920118194,-1.566210022302787,9.766789633311442,0.003272492347489368,0.001090830782496456,-0.002181661564992912,1.25,25.0,16.25
1772909824.5820198,0.5321762062554584,0.7357929608170899,-8.874091617828514,-0.13218049920118194,-1.566210022302787,9.766789633311442,0.003272492347489368,0.001090830782496456,-0.002181661564992912,1.25,25.0,16.25
1772909824.602335,0.5321762062554584,0.7357929608170899,-8.874091617828514,-0.12476087444597575,-1.5474071419354134,9.76786353683091,-0.003272492347489368,-0.001090830782496456,0.001090830782496456,1.25,25.0,16.25
1772909824.6157444,0.5321762062554584,0.7357929608170899,-8.874091617828514,-0.12476087444597575,-1.5474071419354134,9.76786353683091,-0.003272492347489368,-0.001090830782496456,0.001090830782496456,1.25,25.0,16.25
1772909824.6321197,0.5321762062554584,0.7357929608170899,-8.874091617828514,-0.11982319705402525,-1.5348940350928624,9.768578207626827,0.0,0.002181661564992912,-0.002181661564992912,0.875,25.375,17.0625
1772909824.6470127,0.5321762062554584,0.7357929608170899,-8.874091617828514,-0.11653722790715274,-1.5332569256843458,9.769053813058115,0.002181661564992912,0.0,-0.001090830782496456,0.875,25.375,17.0625
1772909824.6609871,0.5321762062554584,0.7357929608170899,-8.874091617828514,-0.11653722790715274,-1.5332569256843458,9.769053813058115,0.002181661564992912,0.0,-0.001090830782496456,0.875,25.375,17.0625
1772909824.6735034,0.5321762062554584,0.7357929608170899,-8.874091617828514,-0.12104067556122834,-1.5321674476606884,9.772715434867095,0.001090830782496456,0.003272492347489368,-0.003272492347489368,0.875,25.375,17.0625
1772909824.6910894,0.5321762062554584,0.7357929608170899,-8.874091617828514,-0.12104067556122834,-1.5321674476606884,9.772715434867095,0.001090830782496456,0.003272492347489368,-0.003272492347489368,0.875,25.375,17.0625
1772909824.7163055,0.5321762062554584,0.7357929608170899,-8.874091617828514,-0.11734744625357035,-1.5280973004988918,9.775152203277976,-0.003272492347489368,0.002181661564992912,0.003272492347489368,1.5625,25.0,16.25
1772909824.7357945,0.5321762062554584,0.7357929608170899,-8.874091617828514,-0.12157986682003731,-1.5253886630292393,9.776773845434931,0.0,0.0,-0.001090830782496456,1.5625,25.0,16.25
1772909824.7494464,0.5321762062554584,0.7357929608170899,-8.874091617828514,-0.12157986682003731,-1.5253886630292393,9.776773845434931,0.0,0.0,-0.001090830782496456,1.5625,25.0,16.25
1772909824.7646892,0.5321762062554584,0.7357929608170899,-8.874091617828514,-0.12439649542778547,-1.5403116535872454,9.771162806760815,0.003272492347489368,0.003272492347489368,-0.003272492347489368,1.5625,25.0,16.25
1772909824.7834501,0.5321762062554584,0.7357929608170899,-8.874091617828514,-0.12627093030243872,-1.5502427371028713,9.77411894661724,0.002181661564992912,0.0,-0.001090830782496456,1.25,25.0,17.0625
1772909824.8060148,0.5321762062554584,0.7357929608170899,-8.874091617828514,-0.12751834577271093,-1.533435980293813,9.769396001254805,-0.002181661564992912,0.002181661564992912,0.0,1.25,25.0,17.0625
1772909824.8196313,0.5321762062554584,0.7357929608170899,-8.874091617828514,-0.12751834577271093,-1.533435980293813,9.769396001254805,-0.002181661564992912,0.002181661564992912,0.0,1.25,25.0,17.0625
1772909824.8346152,0.5321762062554584,0.7357929608170899,-8.874091617828514,-0.12500337512631388,-1.5222512713811596,9.779633380704139,-0.003272492347489368,0.001090830782496456,0.0,1.25,25.0,17.0625
1772909824.8507085,0.5321762062554584,0.7357929608170899,-8.874091617828514,-0.12332969025519956,-1.5214981959558125,9.773065795539372,0.0,0.002181661564992912,0.0,0.875,25.375,16.6875
1772909824.8678088,0.5321762062554584,0.7357929608170899,-8.874091617828514,-0.1255609833770774,-1.5209970326726479,9.77538536439159,0.0,0.002181661564992912,0.0,0.875,25.375,16.6875
1772909824.8941166,0.5321762062554584,0.7357929608170899,-8.874091617828514,-0.1255609833770774,-1.5209970326726479,9.77538536439159,0.0,0.002181661564992912,0.0,0.875,25.375,16.6875
1772909824.9141588,0.5321762062554584,0.7357929608170899,-8.874091617828514,-0.12704588402450978,-1.5139732906914236,9.776929011551461,0.0,0.004363323129985824,0.001090830782496456,-0.1875,25.375,16.25
1772909824.9439921,0.5321762062554584,0.7357929608170899,-8.874091617828514,-0.12803406881794893,-1.5092990688632577,9.777956291492686,-0.002181661564992912,0.002181661564992912,0.002181661564992912,-0.1875,25.375,16.25
1772909824.9871838,0.5321762062554584,0.7357929608170899,-8.874091617828514,-0.13203680646655463,-1.5095335381584118,9.778639934818102,0.001090830782496456,0.003272492347489368,-0.001090830782496456,-0.1875,25.375,16.25
1772909825.0037727,0.5321762062554584,0.7357929608170899,-8.874091617828514,-0.13470058365819246,-1.516379798269782,9.77909489181437,0.001090830782496456,0.0,-0.001090830782496456,1.5625,25.75,17.0625
1772909825.018589,0.5321762062554584,0.7357929608170899,-8.874091617828514,-0.13312818591556708,-1.5209359078961624,9.779397660613185,0.0,0.0,0.0,1.5625,25.75,17.0625
1772909825.0402076,0.5321762062554584,0.7357929608170899,-8.874091617828514,-0.13312818591556708,-1.5209359078961624,9.779397660613185,0.0,0.0,0.0,1.5625,25.75,17.0625
1772909825.055879,0.5321762062554584,0.7357929608170899,-8.874091617828514,-0.13208177278268357,-1.5239679479574393,9.779599149866646,-0.002181661564992912,-0.002181661564992912,-0.001090830782496456,1.5625,25.75,17.0625
1772909825.0718474,0.5321762062554584,0.7357929608170899,-8.874091617828514,-0.13208177278268357,-1.5239679479574393,9.779599149866646,-0.002181661564992912,-0.002181661564992912,-0.001090830782496456,1.5625,25.75,17.0625
1772909825.091197,0.5321762062554584,0.7357929608170899,-8.874091617828514,-0.1313853965319502,-1.5293308484554315,9.779733238714043,0.001090830782496456,-0.001090830782496456,-0.001090830782496456,0.5,24.6875,17.875
1772909825.1086104,0.5321762062554584,0.7357929608170899,-8.874091617828514,-0.13092196591611957,-1.5328997988293216,9.779822473344113,0.001090830782496456,0.0,0.0,0.5,24.6875,17.875
1772909825.127354,0.5321762062554584,0.7357929608170899,-8.874091617828514,-0.13092196591611957,-1.5328997988293216,9.779822473344113,0.001090830782496456,0.0,0.0,0.5,24.6875,17.875
1772909825.1414638,0.5321762062554584,0.7357929608170899,-8.874091617828514,-0.1272684463108241,-1.5252395603133995,9.77988185799361,0.0,-0.002181661564992912,-0.001090830782496456,0.5,24.6875,17.875
1772909825.1549597,0.5321762062554584,0.7357929608170899,-8.874091617828514,-0.12483706982598809,-1.5201417571515243,9.77992137781448,-0.002181661564992912,-0.001090830782496456,0.0,0.875,25.375,16.6875
1772909825.171249,0.5321762062554584,0.7357929608170899,-8.874091617828514,-0.12483706982598809,-1.5201417571515243,9.77992137781448,-0.002181661564992912,-0.001090830782496456,0.0,0.875,25.375,16.6875
1772909825.186317,0.5321762062554584,0.7357929608170899,-8.874091617828514,-0.12321901593558468,-1.5234394495081276,9.779947677813803,-0.001090830782496456,0.002181661564992912,0.0,0.875,25.375,16.6875
1772909825.2198849,0.5321762062554584,0.7357929608170899,-8.874091617828514,-0.12321901593558468,-1.5234394495081276,9.779947677813803,-0.001090830782496456,0.002181661564992912,0.0,0.875,25.375,16.6875
1772909825.2345424,0.5321762062554584,0.7357929608170899,-8.874091617828514,-0.12214221914636748,-1.5256340269338098,9.773274956754925,-0.002181661564992912,0.001090830782496456,-0.001090830782496456,0.875,25.0,16.25
1772909825.2512314,0.5321762062554584,0.7357929608170899,-8.874091617828514,-0.12214221914636748,-1.5256340269338098,9.773274956754925,-0.002181661564992912,0.001090830782496456,-0.001090830782496456,0.875,25.0,16.25
1772909825.267967,0.5321762062554584,0.7357929608170899,-8.874091617828514,-0.12142562291175173,-1.5270944936955653,9.775524558844058,0.0,0.0,-0.001090830782496456,0.875,25.0,16.25
1772909825.292276,0.5321762062554584,0.7357929608170899,-8.874091617828514,-0.12142562291175173,-1.5270944936955653,9.775524558844058,0.0,0.0,-0.001090830782496456,0.875,25.0,16.25
1772909825.3080122,0.5321762062554584,0.7357929608170899,-8.874091617828514,-0.12429384782983877,-1.5314115297183502,9.770331420490034,0.0,-0.001090830782496456,0.0,2.25,25.75,16.25
1772909825.3214357,0.46303126498091346,1.6285064735293617,-8.872303871951944,-0.126202619472654,-1.5242491338451032,9.773565668341227,0.001090830782496456,-0.001090830782496456,-0.001090830782496456,2.25,25.75,16.25
1772909825.3381445,0.46303126498091346,1.6285064735293617,-8.872303871951944,-0.126202619472654,-1.5242491338451032,9.773565668341227,0.001090830782496456,-0.001090830782496456,-0.001090830782496456,2.25,25.75,16.25
1772909825.3568294,0.5321762062554584,0.7357929608170899,-8.874091617828514,-0.12747288567857118,-1.5194826394006615,9.765682689035323,0.001090830782496456,0.0,-0.001090830782496456,2.25,25.75,16.25
1772909825.3822567,0.5321762062554584,0.7357929608170899,-8.874091617828514,-0.1249731219414864,-1.5163105905931173,9.763781766073212,0.001090830782496456,0.0,0.0,1.25,25.0,15.875
1772909825.4102519,0.5321762062554584,0.7357929608170899,-8.874091617828514,-0.12330955709864709,-1.5175447392531232,9.759171611369307,0.0,0.0,0.001090830782496456,1.25,25.0,15.875
1772909825.433652,0.5321762062554584,0.7357929608170899,-8.874091617828514,-0.12554758498629384,-1.525056274814652,9.759448716619982,0.002181661564992912,-0.002181661564992912,-0.001090830782496456,1.25,25.0,15.875
1772909825.460373,0.5321762062554584,0.7357929608170899,-8.874091617828514,-0.12703696754511315,-1.5233648944068603,9.759633127068836,-0.001090830782496456,-0.001090830782496456,-0.001090830782496456,0.5,25.0,17.5
1772909825.4771829,0.5321762062554584,0.7357929608170899,-8.874091617828514,-0.12703696754511315,-1.5233648944068603,9.759633127068836,-0.001090830782496456,-0.001090830782496456,-0.001090830782496456,0.5,25.0,17.5
1772909825.501327,0.5321762062554584,0.7357929608170899,-8.874091617828514,-0.12133791158587531,-1.522239299639432,9.75975585016255,-0.002181661564992912,0.0,-0.002181661564992912,0.5,25.0,17.5
1772909825.5131776,0.5321762062554584,0.7357929608170899,-8.874091617828514,-0.12133791158587531,-1.522239299639432,9.75975585016255,-0.002181661564992912,0.0,-0.002181661564992912,0.5,25.0,17.5
1772909825.5246751,0.5321762062554584,0.7357929608170899,-8.874091617828514,-0.11754525350762896,-1.521490228895426,9.75983752101051,-0.001090830782496456,-0.001090830782496456,-0.001090830782496456,0.875,25.375,17.0625
1772909825.538493,0.5321762062554584,0.7357929608170899,-8.874091617828514,-0.11502128192332273,-1.524336842390278,9.759891872047504,-0.001090830782496456,-0.002181661564992912,0.001090830782496456,0.875,25.375,17.0625
1772909825.556588,0.5321762062554584,0.7357929608170899,-8.874091617828514,-0.11502128192332273,-1.524336842390278,9.759891872047504,-0.001090830782496456,-0.002181661564992912,0.001090830782496456,0.875,25.375,17.0625
1772909825.5702815,0.5321762062554584,0.7357929608170899,-8.874091617828514,-0.11668671873589631,-1.529576343579665,9.756582930348163,-0.002181661564992912,0.002181661564992912,-0.003272492347489368,0.875,25.375,17.0625
1772909825.595974,0.5321762062554584,0.7357929608170899,-8.874091617828514,-0.12114016003783522,-1.5330631730921387,9.757725978317872,-0.001090830782496456,0.002181661564992912,0.0,1.25,25.0,16.25
1772909825.625219,0.5321762062554584,0.7357929608170899,-8.874091617828514,-0.12410387547607657,-1.5286933957676134,9.75848666397303,0.0,0.002181661564992912,0.0,1.25,25.0,16.25
1772909825.6506288,0.5321762062554584,0.7357929608170899,-8.874091617828514,-0.12607619499335548,-1.525785357771753,9.758992891779123,-0.001090830782496456,0.0,-0.001090830782496456,1.25,25.0,16.25
1772909825.6682053,0.5321762062554584,0.7357929608170899,-8.874091617828514,-0.12607619499335548,-1.525785357771753,9.758992891779123,-0.001090830782496456,0.0,-0.001090830782496456,1.25,25.0,16.25
1772909825.6902044,0.5321762062554584,0.7357929608170899,-8.874091617828514,-0.127388751599852,-1.5271952026777402,9.762674892436461,0.002181661564992912,0.002181661564992912,0.0,0.0625,25.75,18.25
1772909825.7358127,0.5321762062554584,0.7357929608170899,-8.874091617828514,-0.1282622433592574,-1.5281334387136751,9.761780111035959,0.001090830782496456,-0.001090830782496456,0.0,0.0625,25.75,18.25
1772909825.7527518,0.5321762062554584,0.7357929608170899,-8.874091617828514,-0.1282622433592574,-1.5281334387136751,9.761780111035959,0.001090830782496456,-0.001090830782496456,0.0,0.0625,25.75,18.25
1772909825.7700338,0.5321762062554584,0.7357929608170899,-8.874091617828514,-0.1288435423675994,-1.5321029360221259,9.761184644009287,-0.001090830782496456,-0.002181661564992912,0.0,0.0625,25.75,18.25
1772909825.810286,0.5321762062554584,0.7357929608170899,-8.874091617828514,-0.1288435423675994,-1.5321029360221259,9.761184644009287,-0.001090830782496456,-0.002181661564992912,0.0,0.0625,25.75,18.25
1772909825.8324502,0.5321762062554584,0.7357929608170899,-8.874091617828514,-0.12588527865679622,-1.5313994804313902,9.76078836735484,-0.001090830782496456,-0.001090830782496456,-0.001090830782496456,0.5,24.6875,16.6875
1772909825.855321,0.5321762062554584,0.7357929608170899,-8.874091617828514,-0.12391658720322762,-1.5309313385938694,9.760524649668005,-0.002181661564992912,0.002181661564992912,-0.001090830782496456,0.5,24.6875,16.6875
1772909825.8769972,0.5321762062554584,0.7357929608170899,-8.874091617828514,-0.12391658720322762,-1.5309313385938694,9.760524649668005,-0.002181661564992912,0.002181661564992912,-0.001090830782496456,0.5,24.6875,16.6875
1772909825.8984683,0.5321762062554584,0.7357929608170899,-8.874091617828514,-0.12260644503260222,-1.5306197954304863,9.760349148493336,-0.002181661564992912,0.001090830782496456,0.001090830782496456,1.5625,25.75,17.5
1772909825.921526,0.5321762062554584,0.7357929608170899,-8.874091617828514,-0.12260644503260222,-1.5306197954304863,9.760349148493336,-0.002181661564992912,0.001090830782496456,0.001090830782496456,1.5625,25.75,17.5
1772909825.940233,0.5321762062554584,0.7357929608170899,-8.874091617828514,-0.12260644503260222,-1.5306197954304863,9.760349148493336,0.0,0.001090830782496456,0.0,1.5625,25.75,17.5
1772909825.9613786,0.5321762062554584,0.7357929608170899,-8.874091617828514,-0.12260644503260222,-1.5306197954304863,9.760349148493336,0.0,0.001090830782496456,0.0,1.5625,25.75,17.5
1772909825.9833806,0.5321762062554584,0.7357929608170899,-8.874091617828514,-0.12173456005329801,-1.53041246693542,9.76023235442207,0.0,0.0,0.0,2.0,24.25,17.875
1772909826.0061393,0.5321762062554584,0.7357929608170899,-8.874091617828514,-0.12173456005329801,-1.53041246693542,9.76023235442207,0.0,0.0,0.0,2.0,24.25,17.875
1772909826.0238998,0.5321762062554584,0.7357929608170899,-8.874091617828514,-0.12449944204648382,-1.5302744921379645,9.76015462927232,0.0,0.002181661564992912,0.001090830782496456,2.0,24.25,17.875
1772909826.0388305,0.5321762062554584,0.7357929608170899,-8.874091617828514,-0.12449944204648382,-1.5302744921379645,9.76015462927232,0.0,0.002181661564992912,0.001090830782496456,2.0,24.25,17.875
1772909826.064673,2.2244233473418027e-05,0.7358237155476152,-8.874461066756119,-0.1263394401271934,-1.5268375597442179,9.760102904053406,-0.001090830782496456,0.0,0.001090830782496456,1.25,25.75,17.0625
1772909826.7144907,2.2244233473418027e-05,0.7358237155476152,-8.874461066756119,-0.13863217979383266,-1.5256905380360475,9.76002018345737,-0.0010907837292158135,1.0131738245402366e-05,0.001090830782496456,1.100198522788518,24.24082688792719,16.25
1772909826.9923606,2.2244233473418027e-05,0.7358237155476152,-8.874461066756119,-0.13692356939388942,-1.5364301051793603,9.7568791611872,-0.0011313106821974229,-0.004353003178617852,0.0,0.7391468386891046,25.744245220065316,17.0625
1772909827.0592577,2.2244233473418027e-05,0.7358237155476152,-8.874461066756119,-0.13601438052629672,-1.5338842499247052,9.757923116632135,-1.0131738245402366e-05,-0.0010907837292158135,0.001090830782496456,0.7391468386891046,25.744245220065316,17.0625
1772909827.1151395,2.2244233473418027e-05,0.7358237155476152,-8.874461066756119,-0.1354093254912189,-1.5321900116917988,9.761962969026312,0.0010806519909704112,-0.0011009154674612158,0.0,1.118194203846896,26.178243313341007,16.6875
1772909827.1564085,2.2244233473418027e-05,0.7358237155476152,-8.874461066756119,-0.13500666812428222,-1.5310625150736807,9.764651445666528,-1.0131738245402366e-05,-0.0010907837292158135,-0.001090830782496456,1.118194203846896,26.178243313341007,16.6875
1772909827.2229435,2.2244233473418027e-05,0.7358237155476152,-8.874461066756119,-0.13480084356483646,-1.5370021134993292,9.763095485131021,1.0131738245402366e-05,0.0010907837292158135,0.0,1.1106476279191893,25.365778360748116,16.25
1772909827.3005688,2.2244233473418027e-05,0.7358237155476152,-8.874461066756119,-0.1346638696197363,-1.5409548499019363,9.76206001077586,-0.0010806519909704112,0.0011009154674612158,0.0,1.1106476279191893,25.365778360748116,16.25
1772909827.3427808,-0.006951425449637997,0.7352828133030349,-8.874508327482006,-0.13122774757434963,-1.5436164215330492,9.764716025866827,-0.007665881319246901,-0.003201429019929624,-0.008726646259971648,1.1042620636726679,24.67830801624644,16.6875
1772909827.3752527,0.006853818444386709,0.7364525820631774,-8.895334438989478,-0.12562714903225788,-1.5487637048470098,9.773173797654872,-0.008766796786708117,-0.004282081010900034,0.001090830782496456,1.1042620636726679,24.67830801624644,16.6875
1772909827.423986,0.006948549832583378,0.736393941194543,-8.881387372355228,-0.0879532237528786,-1.4989803828545463,9.778802350300314,3.0395214736207097e-05,0.0032723511876474407,-0.025089107997418487,0.7321807686019904,24.994277571518033,17.0625
1772909827.4613807,0.006948549832583378,0.736393941194543,-8.881387372355228,-0.0879532237528786,-1.4989803828545463,9.778802350300314,3.0395214736207097e-05,0.0032723511876474407,-0.025089107997418487,0.7321807686019904,24.994277571518033,17.0625
1772909827.4966657,0.7412694706462318,0.7594733843611374,-8.975128623083409,-0.09084008302219142,-1.928296115821502,9.680294316410826,-0.03845098745517934,-0.02909654985023788,0.39706240482870997,0.7321807686019904,24.994277571518033,17.5
1772909827.523387,1.3772816690448273,0.7887841780633443,-8.99886637662921,-0.11078353440610102,-2.3800360002056946,9.66012519403976,-0.02463554155220824,-0.0684964766991974,0.6381360077604268,0.7321807686019904,24.994277571518033,17.5
1772909827.5484471,2.9738030888012896,0.9176303851031115,-9.092414623428377,0.16809550458307468,-2.9208906679567805,9.656738203527631,-0.10437420290566206,-0.07975548082865697,1.1344640137963142,0.7321807686019904,24.994277571518033,17.5
1772909827.5699558,6.452439699219382,1.2289677296885133,-9.402814838812985,0.40230741546588195,-3.448537824005752,9.661174422591612,-0.20398000136464478,-0.115920139441663,1.6536994662646272,0.031358789766678906,23.563225142715595,16.6875
1772909827.6057034,8.577591245677343,1.4669299136880927,-9.64116578991585,0.5579553378689611,-3.823095884056557,9.784550698286376,-0.3007456693792447,-0.08120411913213199,1.9547687622336491,0.031358789766678906,23.563225142715595,16.6875
1772909827.621333,8.577591245677343,1.4669299136880927,-9.64116578991585,0.5579553378689611,-3.823095884056557,9.784550698286376,-0.3007456693792447,-0.08120411913213199,1.9547687622336491,0.031358789766678906,23.563225142715595,16.6875
1772909827.644325,10.810579537624134,1.792061575046088,-9.992592104295408,0.41400970281538346,-4.070060930382579,9.866656231557936,-0.40726760052731453,-0.039852210803097456,2.0562160250058197,0.031358789766678906,23.563225142715595,16.6875
1772909827.659939,14.363968755135504,2.415891745351121,-10.700240029711031,0.2600771864943623,-4.371028888875785,9.96478299896641,-0.5224752745561293,0.0059438863487635465,2.2187498115977915,-1.564359971025706,13.265102115364678,13.5
1772909827.676969,14.363968755135504,2.415891745351121,-10.700240029711031,0.2600771864943623,-4.371028888875785,9.96478299896641,-0.5224752745561293,0.0059438863487635465,2.2187498115977915,-1.564359971025706,13.265102115364678,13.5
1772909827.7103758,22.287496475631706,4.047502047874849,-12.190413347018781,-0.5760151874026398,-4.829930970449474,10.201681858285136,-0.5869632271770525,-0.007638529574563289,2.5405448924342457,-1.564359971025706,13.265102115364678,13.5
1772909827.7264946,22.287496475631706,4.047502047874849,-12.190413347018781,-0.5760151874026398,-4.829930970449474,10.201681858285136,-0.5869632271770525,-0.007638529574563289,2.5405448924342457,-1.564359971025706,13.265102115364678,13.5
1772909827.7506454,25.375248424919963,4.751815614410907,-12.607642058286686,-0.9296705378970208,-5.129367388990878,9.843192305217997,-0.6030615579209092,0.020873823458728895,2.7838001569309556,-4.506574634632394,6.042118114741543,6.75
1772909827.764609,30.454615952302376,6.039795207167408,-13.095352215643956,-1.2476852474232227,-5.22416824798713,9.604621512242515,-0.5850213774352228,0.08397717194131964,3.1426834843722897,-4.506574634632394,6.042118114741543,6.75
1772909827.7797804,33.982743840884616,7.0306563409899905,-13.325599805892441,-1.5496346043614249,-5.2864182784804665,9.549553777454609,-0.5680922441552431,0.14490908470372416,3.274674009054361,-4.506574634632394,6.042118114741543,6.75
1772909827.8022325,33.982743840884616,7.0306563409899905,-13.325599805892441,-1.5496346043614249,-5.2864182784804665,9.549553777454609,-0.5680922441552431,0.14490908470372416,3.274674009054361,-4.506574634632394,6.042118114741543,6.75
1772909827.81752,39.24572297400372,8.605900594185295,-13.63517353188731,-1.8197869824096977,-4.855521039254308,9.51290681510016,-0.6090759659061555,0.19547014230097684,3.2594023780994106,-17.05479793436358,0.908445743029128,-21.6875
1772909827.833004,42.739064896669824,9.676771502518065,-13.839149912370365,-1.922687699796073,-4.214880727617551,9.475138224197392,-0.6918134215146309,0.21369269407508046,3.2441307471444603,-17.05479793436358,0.908445743029128,-21.6875
1772909827.8457053,42.739064896669824,9.676771502518065,-13.839149912370365,-1.922687699796073,-4.214880727617551,9.475138224197392,-0.6918134215146309,0.21369269407508046,3.2441307471444603,-17.05479793436358,0.908445743029128,-21.6875
1772909827.8624818,46.150196219211914,10.791918302723612,-13.991289903811056,-1.9771346441674211,-3.71842171976957,9.429932978610488,-0.6807029494575647,0.23540705127694272,3.208133331322077,-17.05479793436358,0.908445743029128,-21.6875
1772909827.8797026,49.399703502571384,11.94774368461516,-14.050543841391812,-1.8653510289996893,-3.299086742897654,9.396504280940764,-0.6153537990857824,0.3417060841836137,3.013965452037708,-21.68056211868126,7.576697909907926,-36.1875
1772909827.8951583,49.399703502571384,11.94774368461516,-14.050543841391812,-1.8653510289996893,-3.299086742897654,9.396504280940764,-0.6153537990857824,0.3417060841836137,3.013965452037708,-21.68056211868126,7.576697909907926,-36.1875
1772909827.9171567,52.563768334163214,13.184735985107679,-13.977862223299855,-1.7132182188013136,-2.9337694506105887,9.374257856064583,-0.523917024857029,0.43794490180945267,2.953969759000403,-21.68056211868126,7.576697909907926,-36.1875
1772909827.93647,57.13727098227194,15.05913697161934,-13.542810615737986,-1.3496699377212955,-2.5425547771697636,9.409629784428125,-0.35587554012832123,0.4429293164949556,2.796890126320913,-21.68056211868126,7.576697909907926,-36.1875
1772909827.9496284,60.081000479337604,16.128884131298175,-13.135281128494315,-0.7719309484350291,-2.144824121731884,9.433169407623732,-0.34836507888404306,0.3119542150830948,2.682352894158785,-21.013398004225667,25.57127742831798,-58.6875
1772909827.9622164,60.081000479337604,16.128884131298175,-13.135281128494315,-0.7719309484350291,-2.144824121731884,9.433169407623732,-0.34836507888404306,0.3119542150830948,2.682352894158785,-21.013398004225667,25.57127742831798,-58.6875
1772909827.9770765,62.95978270326651,16.97639677306203,-12.778257360933766,-0.3874521048323982,-1.8801388134805104,9.448834763905587,-0.4447323653714022,0.1546720355741518,2.559089015736686,-21.013398004225667,25.57127742831798,-58.6875
1772909827.9950185,65.7254376041213,17.62500747524414,-12.52814949975021,-0.282295681261743,-1.7226653651018338,9.522817005956735,-0.5354734936625104,0.015882520770650697,2.41619018322965,-21.013398004225667,25.57127742831798,-58.6875
1772909828.0108786,69.74180966637515,18.290149917185172,-12.165597761350552,-0.23573002795484344,-1.6176510563285478,9.572051361605979,-0.540930856309877,-0.10188159503167554,2.3289237206299336,-17.25465484714194,33.224195981332656,-65.25
1772909828.0238552,69.74180966637515,18.290149917185172,-12.165597761350552,-0.23573002795484344,-1.6176510563285478,9.572051361605979,-0.540930856309877,-0.10188159503167554,2.3289237206299336,-17.25465484714194,33.224195981332656,-65.25
1772909828.0377007,72.35259409642528,18.629857747590073,-11.774425096049036,-0.20474110585153243,-1.5477652069266188,9.56132982311161,-0.35389356396474514,-0.1657989265751861,2.2122048269028127,-17.25465484714194,33.224195981332656,-65.25
1772909828.0506513,74.76486572403073,18.876848837907314,-11.254726216462716,-0.28781231422639475,-1.500293793811492,9.517398530230526,-0.27005519288880847,-0.18294082635831932,2.1205750411731104,-17.25465484714194,33.224195981332656,-65.25
1772909828.0627708,74.76486572403073,18.876848837907314,-11.254726216462716,-0.28781231422639475,-1.500293793811492,9.517398530230526,-0.27005519288880847,-0.18294082635831932,2.1205750411731104,-17.25465484714194,33.224195981332656,-65.25
1772909828.077003,76.94686906482822,19.000177952149937,-10.635109387400812,-0.3642214500684383,-1.5822445725237257,9.417915399709155,-0.048214138591224524,-0.2580902108178409,1.7987799603366559,-12.813085392281277,40.37075053773596,-70.75
1772909828.096089,78.924984787766,19.041338099096254,-10.023201648830977,-0.44517558316053973,-1.6365022729153071,9.107517333012252,-0.05683909104249701,-0.24710131961971954,1.6144295580947547,-12.813085392281277,40.37075053773596,-70.75
1772909828.1118534,78.924984787766,19.041338099096254,-10.023201648830977,-0.44517558316053973,-1.6365022729153071,9.107517333012252,-0.05683909104249701,-0.24710131961971954,1.6144295580947547,-12.813085392281277,40.37075053773596,-70.75
1772909828.1249726,79.81927642504307,19.166643868251988,-10.118659524220634,-0.5062988440289147,-1.7327574404777963,8.900950886999059,-0.532366694288077,-0.11941518860509179,1.279544507868343,-12.813085392281277,40.37075053773596,-70.75
1772909828.1387005,81.65052844245584,19.285315668967897,-10.278760961739648,-0.5542870203780302,-1.86365138813012,9.074578613456378,-0.6053039158088132,0.01434938455992482,0.8333947178272924,-9.75922775491701,46.15513553362894,-73.875
1772909828.1524706,81.65052844245584,19.285315668967897,-10.278760961739648,-0.5542870203780302,-1.86365138813012,9.074578613456378,-0.6053039158088132,0.01434938455992482,0.8333947178272924,-9.75922775491701,46.15513553362894,-73.875
1772909828.1645825,82.25463863379724,19.580459984153904,-10.937661889171585,-0.586253685385449,-1.9541048155265615,9.190125925864935,-0.8531379643178718,0.22719081235677396,0.48978302134090873,-9.75922775491701,46.15513553362894,-73.875
1772909828.1777954,82.66384305315175,20.023781573039418,-11.786794749269903,-0.5974922416117752,-2.014393770158313,8.996067323231905,-0.860699084253377,0.3527119951225557,0.40033489717619936,-9.75922775491701,46.15513553362894,-73.875
1772909828.190572,82.66384305315175,20.023781573039418,-11.786794749269903,-0.5974922416117752,-2.014393770158313,8.996067323231905,-0.860699084253377,0.3527119951225557,0.40033489717619936,-9.75922775491701,46.15513553362894,-73.875
1772909828.206078,82.94380472460341,20.491279566951835,-12.575096848717367,-0.6054995603098178,-2.1113798420493617,8.866923490956255,-0.7733553320101487,0.36062772589665004,0.29888763440402893,-2.060832419597673,54.0214714348687,-80.0625
1772909828.224846,83.15543462316568,20.8021176343823,-13.130628114105258,-0.7459008961722224,-2.3118238650978733,8.857917282476288,-0.4771519251005145,0.1876994995979883,0.21380283336930536,-2.060832419597673,54.0214714348687,-80.0625
1772909828.2437422,83.30940690668905,20.85187049579115,-13.379173305226567,-0.8828209931982488,-2.444813217098433,8.96231243768035,-0.20651273566037784,-0.03626253199417242,0.11235557059713497,-2.060832419597673,54.0214714348687,-80.0625
1772909828.2599368,83.30940690668905,20.85187049579115,-13.379173305226567,-0.8828209931982488,-2.444813217098433,8.96231243768035,-0.20651273566037784,-0.03626253199417242,0.11235557059713497,-2.060832419597673,54.0214714348687,-80.0625
1772909828.2777443,83.67544171184757,20.409136499566472,-13.019427806943726,-0.997323490466384,-2.5297536898804256,9.13213959851794,0.2816819830651552,-0.44442192575269984,0.17998707911191522,-0.2124192401583158,57.87946961631914,-84.375
1772909828.2992868,84.45347664611786,19.276886164523496,-11.991013501439827,-1.0731197170898494,-2.542796049274307,9.275263682327541,0.5192158983111622,-0.94406855216559,0.33815754257390135,-0.2124192401583158,57.87946961631914,-84.375
1772909828.315956,85.2420437702723,18.092792539244165,-11.055609439027991,-0.9287764063837618,-2.4696534515706103,9.758544119351106,0.6221141111686657,-1.2581062610603326,0.48432886742842646,-0.2124192401583158,57.87946961631914,-84.375
1772909828.3391347,85.2420437702723,18.092792539244165,-11.055609439027991,-0.9287764063837618,-2.4696534515706103,9.758544119351106,0.6221141111686657,-1.2581062610603326,0.48432886742842646,-0.2124192401583158,57.87946961631914,-84.375
1772909828.3568454,86.70296102853489,16.23187941061372,-9.593805065347276,-0.5584302174975083,-2.42352558608635,10.173824979399017,0.6262138208911485,-1.2865071649729254,0.6261368691529657,0.47795363354632475,58.185570572300655,-88.5625
1772909828.3697958,87.61003856205495,15.46697543420666,-8.87093521824825,-0.18464271608992522,-2.3705938839686316,10.450189752769734,0.40276222074378054,-0.6800853139558302,0.6381360077604268,0.47795363354632475,58.185570572300655,-88.5625
1772909828.3847544,88.2225307444488,15.183642974379442,-8.24087730993152,0.06553789728312258,-2.181499926404145,10.366498485665597,0.39708904812320783,-0.2338635830623539,0.4406956361285682,0.47795363354632475,58.185570572300655,-88.5625
1772909828.4055746,88.2225307444488,15.183642974379442,-8.24087730993152,0.06553789728312258,-2.181499926404145,10.366498485665597,0.39708904812320783,-0.2338635830623539,0.4406956361285682,0.47795363354632475,58.185570572300655,-88.5625
1772909828.4235709,88.79293658991769,15.167361158694376,-7.649302866510079,-0.053379369349309584,-2.1700929441270445,10.090025509617425,0.2516062988720184,-0.04160864578645723,0.31306843457648287,-2.5283025248893294,57.52596450814743,-91.0
1772909828.4362445,89.13434495372277,15.17783085696119,-7.333726210775001,-0.42352964700717627,-2.1597986600640957,9.72874491197494,0.19924867986965936,-0.04112232235067791,0.3076142806640006,-2.5283025248893294,57.52596450814743,-91.0
1772909828.4487095,89.53278096041895,15.16527678694992,-6.975650767578312,-0.7108700828030422,-2.2462341801138614,9.481626486597941,0.2111358517703339,-0.053232392492751295,0.33161255787892263,-2.5283025248893294,57.52596450814743,-91.0
1772909828.4657125,89.53278096041895,15.16527678694992,-6.975650767578312,-0.7108700828030422,-2.2462341801138614,9.481626486597941,0.2111358517703339,-0.053232392492751295,0.33161255787892263,-2.5283025248893294,57.52596450814743,-91.0
1772909828.4851384,90.04222313825117,15.181436539632774,-6.558221080322757,-0.9899310376965964,-2.3966073283160143,9.317171935003234,0.25939376105021017,-0.025317812015937847,0.4734205596034619,-2.5312050540922937,57.2134779879194,-91.6875
1772909828.4995239,90.69322289204233,14.962041604888183,-5.877764121056154,-1.2425423341635697,-2.4960575844636868,9.284666837263014,0.5867907873612631,-0.3632583335735495,0.5748678223756323,-2.5312050540922937,57.2134779879194,-91.6875
1772909828.5120208,90.69322289204233,14.962041604888183,-5.877764121056154,-1.2425423341635697,-2.4960575844636868,9.284666837263014,0.5867907873612631,-0.3632583335735495,0.5748678223756323,-2.5312050540922937,57.2134779879194,-91.6875
1772909828.5246105,91.42550634050716,14.52610606484435,-5.432206914269049,-1.4424553096222439,-2.384646648900292,9.346662850505616,0.11761862719998543,-0.4908966491013853,0.5846852994181004,-2.5312050540922937,57.2134779879194,-91.6875
1772909828.5368896,92.01600353153728,14.104380050265283,-5.005043034863321,-1.5732581424858996,-2.069666261942984,9.685635446729147,0.24390982207241776,-0.40043596574547824,0.4243331743911214,-4.730801318340986,55.9213523073824,-92.0625
1772909828.5493102,92.01600353153728,14.104380050265283,-5.005043034863321,-1.5732581424858996,-2.069666261942984,9.685635446729147,0.24390982207241776,-0.40043596574547824,0.4243331743911214,-4.730801318340986,55.9213523073824,-92.0625
1772909828.5621278,92.48280177991822,13.816453494253276,-4.664601502810305,-1.5800267486327582,-1.8607960060276412,9.75399767269989,0.17184048603949853,-0.29067876636145495,0.3916082509162277,-4.730801318340986,55.9213523073824,-92.0625
1772909828.5739934,92.99195051255793,13.50440990641204,-4.37712182946595,-1.5839408559206132,-1.6582408030642062,9.799491970427319,0.11913838793679579,-0.3272790897190133,0.4166973589136462,-4.730801318340986,55.9213523073824,-92.0625
1772909828.5857587,92.99195051255793,13.50440990641204,-4.37712182946595,-1.5839408559206132,-1.6582408030642062,9.799491970427319,0.11913838793679579,-0.3272790897190133,0.4166973589136462,-4.730801318340986,55.9213523073824,-92.0625
1772909828.5978663,93.4922173720416,13.106832054394692,-4.1312519336540525,-1.6362851858806517,-1.4761469887195626,9.829767917360318,0.10452253471243791,-0.374051077478103,0.41233403578366035,-6.9836067931858,55.62976399741571,-92.875
1772909828.6101465,93.90889364354992,12.72829028191983,-3.8529664205609206,-1.7647788403651878,-1.3540956375105666,9.642519295985938,0.14686046538694658,-0.39626188985399,0.3741549583962844,-6.9836067931858,55.62976399741571,-92.875
1772909828.6242836,93.90889364354992,12.72829028191983,-3.8529664205609206,-1.7647788403651878,-1.3540956375105666,9.642519295985938,0.14686046538694658,-0.39626188985399,0.3741549583962844,-6.9836067931858,55.62976399741571,-92.875
1772909828.6363142,94.12493073227301,12.587301299658936,-3.510614393059751,-1.8766146954347387,-1.22579372519251,9.6483667867509,0.2696497230933748,-0.21304406256175717,0.22471114119426994,-6.9836067931858,55.62976399741571,-92.875
1772909828.6481042,94.12493073227301,12.587301299658936,-3.510614393059751,-1.8766146954347387,-1.22579372519251,9.6483667867509,0.2696497230933748,-0.21304406256175717,0.22471114119426994,-6.9836067931858,55.62976399741571,-92.875
1772909828.662008,94.16728983140165,12.625484529680534,-3.3399405097050394,-2.054734197560841,-1.13944707475688,9.60208155092444,0.2896048021074423,0.0562174107426223,0.08508480103472356,-9.858482779283719,55.65646726608298,-92.0
1772909828.677485,94.20932528332945,12.830912741507005,-2.874149099744946,-2.174544594616149,-1.2191280074631454,9.621455919131684,0.2903444189993567,0.1358446229753767,0.02945243112740431,-9.858482779283719,55.65646726608298,-92.0
1772909828.6922662,94.21057899487688,12.853828371482987,-2.723532004445503,-1.8747217636519324,-1.4663598676966312,9.701251578894118,0.2687684621316424,0.044411292747911,0.0,-9.858482779283719,55.65646726608298,-92.0
1772909828.706136,94.21057899487688,12.853828371482987,-2.723532004445503,-1.8747217636519324,-1.4663598676966312,9.701251578894118,0.2687684621316424,0.044411292747911,0.0,-9.858482779283719,55.65646726608298,-92.0
1772909828.7204566,94.25662694335632,12.722384050889525,-2.195460024254127,-1.6751930188857203,-1.6308899089211786,9.754354699090094,0.33618084283858174,-0.0969381078303893,0.031634092692397225,-11.372350216552514,54.170464109162644,-93.1875
1772909828.7328618,94.25068900223846,12.650081810157765,-1.8053864891222335,-1.6588924031590941,-1.6757409926949363,9.92349870067257,0.36274465839308656,-0.055731487838078034,-0.032724923474893676,-11.372350216552514,54.170464109162644,-93.1875
1772909828.7464628,94.25068900223846,12.650081810157765,-1.8053864891222335,-1.6588924031590941,-1.6757409926949363,9.92349870067257,0.36274465839308656,-0.055731487838078034,-0.032724923474893676,-11.372350216552514,54.170464109162644,-93.1875
1772909828.7600653,94.14135467816533,12.55094509600744,-1.402931191791737,-1.647298852439556,-1.6253096699664162,9.995920803775574,0.37360183699401767,-0.06128672386661112,-0.08726646259971647,-11.372350216552514,54.170464109162644,-93.1875
1772909828.7745783,94.00307121118529,12.308324586100058,-0.9942612913718915,-1.519164647003368,-1.5928666976102894,10.044116904382724,0.40836162799220044,-0.19469668619303865,-0.11999138607461016,-11.257224207751378,53.106848928706135,-93.5625
1772909828.792828,94.00307121118529,12.308324586100058,-0.9942612913718915,-1.519164647003368,-1.5928666976102894,10.044116904382724,0.40836162799220044,-0.19469668619303865,-0.11999138607461016,-11.257224207751378,53.106848928706135,-93.5625
1772909828.8125,93.69393874320286,11.89193686073802,-0.49009399902521444,-1.3502685792629023,-1.5720530046724484,9.915625508999732,0.34773022337587034,-0.26285881553013773,-0.16580627893946132,-11.257224207751378,53.106848928706135,-93.5625
1772909828.8296301,93.25471846688875,11.733616519393664,-0.31212882879671966,-1.2376215751932282,-1.5314419852063257,9.830115920715285,0.1996201101834516,-0.11857809886324606,-0.4428772976935611,-11.257224207751378,53.106848928706135,-93.5625
1772909828.843348,93.25471846688875,11.733616519393664,-0.31212882879671966,-1.2376215751932282,-1.5314419852063257,9.830115920715285,0.1996201101834516,-0.11857809886324606,-0.4428772976935611,-11.257224207751378,53.106848928706135,-93.5625
1772909828.857891,92.60763458315866,11.625630208182475,-0.31683890213562865,-1.1780761615837199,-1.363771825424837,10.010713176136349,0.08630018320395186,-0.10443499333513447,-0.6086835766330224,-13.907653234652955,50.38134879600433,-93.5625
1772909828.8704789,91.42771319231841,11.170497017714068,-0.4892233210474005,-1.1378279597897145,-1.1852898587882308,10.130898632215539,0.046805626709496076,-0.24588226729460114,-0.6926775468852495,-13.907653234652955,50.38134879600433,-93.5625
1772909828.8863816,91.42771319231841,11.170497017714068,-0.4892233210474005,-1.1378279597897145,-1.1852898587882308,10.130898632215539,0.046805626709496076,-0.24588226729460114,-0.6926775468852495,-13.907653234652955,50.38134879600433,-93.5625
1772909828.90284,90.53847237563996,10.396873610589907,-0.6773152558446663,-0.9761881643521649,-0.9540260000604971,10.19415515214013,-0.026165634292881525,-0.5855583595622291,-0.7853981633974483,-13.907653234652955,50.38134879600433,-93.5625
1772909828.9224806,89.65114672749094,9.290002480330987,-0.8584315332019746,-0.8619287512932576,-0.8001846248840363,10.11917274977214,-0.0390560485454684,-1.0337894183639653,-0.7897614865274342,-15.734007192149784,48.898248168286955,-93.1875
1772909828.9348922,89.65114672749094,9.290002480330987,-0.8584315332019746,-0.8619287512932576,-0.8001846248840363,10.11917274977214,-0.0390560485454684,-1.0337894183639653,-0.7897614865274342,-15.734007192149784,48.898248168286955,-93.1875
1772909828.9486012,88.90153285423702,8.088129819221646,-0.9969275750955843,-0.7893907042295341,-0.7144986755898369,9.771557856653134,-0.02077615034318004,-1.0623220348737483,-0.6414085001079161,-15.734007192149784,48.898248168286955,-93.1875
1772909828.9631934,88.90153285423702,8.088129819221646,-0.9969275750955843,-0.7893907042295341,-0.7144986755898369,9.771557856653134,-0.02077615034318004,-1.0623220348737483,-0.6414085001079161,-15.734007192149784,48.898248168286955,-93.1875
1772909828.9787457,88.10964623292548,6.780192375055399,-1.2646334517807016,-0.7243926071365964,-0.6576309820600005,9.540224028395224,-0.11526217725256442,-0.7821796754906593,-0.4821472058634335,-15.734007192149784,48.898248168286955,-93.1875
1772909828.9916413,87.70560645233783,6.500642740286578,-1.4575405391393361,-0.6976444487017183,-0.5962160468138198,9.386273949857769,-0.10934524211724944,-0.14516197762862418,-0.36324665057131983,-18.306265257309747,47.85959473897594,-91.1875
1772909829.00687,87.34326732181941,6.607620926251352,-1.6140567252207747,-0.8298081269533353,-0.49373754303072903,9.307237674277387,-0.10529599082037613,0.17333673956414794,-0.3043417883165112,-18.306265257309747,47.85959473897594,-91.1875
1772909829.0257454,87.34326732181941,6.607620926251352,-1.6140567252207747,-0.8298081269533353,-0.49373754303072903,9.307237674277387,-0.10529599082037613,0.17333673956414794,-0.3043417883165112,-18.306265257309747,47.85959473897594,-91.1875
1772909829.0411866,87.01090357428384,7.113015081162556,-1.8924343469189846,-0.9177615784647646,-0.42553924352297734,9.25463991577169,-0.14410483284981468,0.3406015244492473,-0.11126473981463851,-18.306265257309747,47.85959473897594,-91.1875
1772909829.0551767,87.04618939579647,7.476478683642617,-2.08668113584676,-0.8846540614794578,-0.5984468708857276,9.343405828212427,-0.15837620697382887,0.3309161834834952,-0.00545415391248228,-24.243509141642406,47.91474279383227,-89.1875
1772909829.068231,87.04618939579647,7.476478683642617,-2.08668113584676,-0.8846540614794578,-0.5984468708857276,9.343405828212427,-0.15837620697382887,0.3309161834834952,-0.00545415391248228,-24.243509141642406,47.91474279383227,-89.1875
1772909829.0825424,87.30297210446518,7.799332415549916,-2.2994304639896375,-0.8628077970217529,-0.7335847698810131,9.496141679166469,-0.22874361124713807,0.27157150962433124,0.2792526803190927,-24.243509141642406,47.91474279383227,-89.1875
1772909829.1026402,87.70464500955173,8.095930920596624,-2.559583779067607,-0.8919714164301529,-0.8465283977465081,9.597785681805135,-0.25941726826237105,0.2576750098153969,0.3490658503988659,-24.243509141642406,47.91474279383227,-89.1875
1772909829.116377,87.70464500955173,8.095930920596624,-2.559583779067607,-0.8919714164301529,-0.8465283977465081,9.597785681805135,-0.25941726826237105,0.2576750098153969,0.3490658503988659,-24.243509141642406,47.91474279383227,-89.1875
1772909829.1303217,88.31467924135042,8.122236741553518,-2.759571207070152,-0.9113794793674681,-0.9216911204280042,9.561730167196359,-0.17598092298058046,-0.0376370043942595,0.3687008044838021,-25.052491059191738,48.297273194033615,-88.75
1772909829.1436858,88.4617392115896,7.946625656173197,-2.8464753021427662,-0.9579624905711563,-0.9948151475536997,9.537735624990708,-0.20155202845265335,-0.324300358674865,0.24107360293171676,-25.052491059191738,48.297273194033615,-88.75
1772909829.158083,88.4617392115896,7.946625656173197,-2.8464753021427662,-0.9579624905711563,-0.9948151475536997,9.537735624990708,-0.20155202845265335,-0.324300358674865,0.24107360293171676,-25.052491059191738,48.297273194033615,-88.75
1772909829.179781,88.68383449064955,7.6185752936496485,-3.0612048569188475,-1.1670540496205823,-1.1288008289102727,9.501696854945529,-0.140825994190827,-0.1285064012812703,-0.02945243112740431,-25.052491059191738,48.297273194033615,-88.75
1772909829.1991987,88.61535753246372,7.263667182010774,-3.275744871445206,-1.3073206560271344,-1.3383856300757249,9.76539306288937,-0.1507275456610202,-0.2549562599643414,-0.030543261909900768,-22.729641704373613,49.4007459507526,-89.5625
1772909829.216609,88.61535753246372,7.263667182010774,-3.275744871445206,-1.3073206560271344,-1.3383856300757249,9.76539306288937,-0.1507275456610202,-0.2549562599643414,-0.030543261909900768,-22.729641704373613,49.4007459507526,-89.5625
1772909829.233614,88.54199051843601,7.047286817699461,-3.4418212550211797,-0.9849584649432422,-1.381365595641981,9.68330634213275,-0.12601095020284872,-0.17773351343141752,-0.04581489286485115,-22.729641704373613,49.4007459507526,-89.5625
1772909829.2489562,88.52574464478494,6.8776889264235574,-3.550232220766539,-0.7336353862332966,-1.4103100494201524,9.695580780584361,-0.08634759815950874,-0.1355576905688353,-0.037088246604879506,-22.729641704373613,49.4007459507526,-89.5625
1772909829.262081,88.43597467096409,6.6161167879747875,-3.701515176662812,-0.6022452350757126,-1.3288814708166368,9.703749282259446,-0.070249267415652,-0.16407004360212749,-0.05235987755982989,-25.716741170069703,50.80355092010441,-88.75
1772909829.2771473,88.43597467096409,6.6161167879747875,-3.701515176662812,-0.6022452350757126,-1.3288814708166368,9.703749282259446,-0.070249267415652,-0.16407004360212749,-0.05235987755982989,-25.716741170069703,50.80355092010441,-88.75
1772909829.2919695,88.33093255119475,6.458234696824097,-3.809834185413069,-0.6080617385933319,-1.2303371330937152,9.739291334241948,-0.0984171413486005,-0.14308172755264656,-0.10581058590215622,-25.716741170069703,50.80355092010441,-88.75
1772909829.303882,88.26770967767126,6.361602050896012,-3.846880143957122,-0.662107067935032,-1.1642909314994432,9.772979507927525,-0.056079210674091835,-0.16529253992853354,-0.11235557059713497,-25.716741170069703,50.80355092010441,-88.75
1772909829.3158727,88.26770967767126,6.361602050896012,-3.846880143957122,-0.662107067935032,-1.1642909314994432,9.772979507927525,-0.056079210674091835,-0.16529253992853354,-0.11235557059713497,-25.716741170069703,50.80355092010441,-88.75
1772909829.328304,88.05721207204297,5.92995805496558,-4.174665778084138,-0.7315233050362645,-1.1200272250215033,9.785363276071761,-0.11852744017201906,-0.19416619153737255,-0.13853550937704992,-26.029227690297738,50.80645344930738,-88.75
1772909829.3475785,87.98392312776517,5.777586624096083,-4.265389485860494,-0.7784647084402351,-1.1708494407789558,9.750118083240844,-0.16173670033563234,-0.26576277987404556,-0.1407171709420428,-26.029227690297738,50.80645344930738,-88.75
1772909829.3639984,87.98392312776517,5.777586624096083,-4.265389485860494,-0.7784647084402351,-1.1708494407789558,9.750118083240844,-0.16173670033563234,-0.26576277987404556,-0.1407171709420428,-26.029227690297738,50.80645344930738,-88.75
1772909829.3829045,87.89746443947737,5.0456565766577794,-4.714328039477697,-0.602533196275351,-1.23001215157781,9.72666280112647,-0.3167767222222888,-0.5152245942393263,-0.055632369907319255,-26.029227690297738,50.80645344930738,-88.75
1772909829.400178,87.83043367411886,4.719041478383697,-4.865739660994823,-0.39492113203683965,-1.246808384992199,10.092396307526432,-0.19504420876343492,0.14144403022379654,-0.1341721862470641,-29.018068673515607,52.02176650652236,-87.5625
1772909829.420503,87.7111540450935,4.8613273611180405,-4.962287807614445,-0.04999103693621024,-1.3268117610321546,10.335787870524646,0.08804952991911881,-0.03354418267435199,-0.0545415391248228,-29.018068673515607,52.02176650652236,-87.5625
1772909829.4338524,87.7111540450935,4.8613273611180405,-4.962287807614445,-0.04999103693621024,-1.3268117610321546,10.335787870524646,0.08804952991911881,-0.03354418267435199,-0.0545415391248228,-29.018068673515607,52.02176650652236,-87.5625
1772909829.4514775,87.84170818729595,4.659757554350653,-4.894107858796908,0.1795560882316288,-1.3800531140904773,10.644947151960105,0.06783791371324624,-0.09553648395123611,0.07963064712224129,-29.018068673515607,52.02176650652236,-87.5625
1772909829.467674,87.80959176015887,4.811672580174694,-4.912663779486173,0.2314088585883131,-1.474761961972203,10.452620907048937,-0.08584425498290875,0.15352026114984607,-0.04908738521234052,-27.205646856193006,52.00493183714517,-88.75
1772909829.483744,87.89650274176374,4.7272270611885485,-4.81840932263108,0.2224317216320059,-1.5373857360385643,10.996997392656677,0.03387508603516263,0.006230618489687408,0.020725784867432664,-27.205646856193006,52.00493183714517,-88.75
1772909829.5025895,87.89650274176374,4.7272270611885485,-4.81840932263108,0.2224317216320059,-1.5373857360385643,10.996997392656677,0.03387508603516263,0.006230618489687408,0.020725784867432664,-27.205646856193006,52.00493183714517,-88.75
1772909829.5175648,87.78973886502705,4.830882216977217,-4.893995597293968,0.21435535825921426,-1.4452313918153283,10.603278616890654,-0.03334823564640171,0.05049013542953489,-0.0719948316447661,-27.205646856193006,52.00493183714517,-88.75
1772909829.5295756,87.78973886502705,4.830882216977217,-4.893995597293968,0.21435535825921426,-1.4452313918153283,10.603278616890654,-0.03334823564640171,0.05049013542953489,-0.0719948316447661,-27.205646856193006,52.00493183714517,-88.75
1772909829.546324,87.79991112199637,4.717443321124942,-4.886758091994266,-0.08537650386840158,-1.3811695706742249,10.454996967794127,-0.01939438940928263,-0.09145359370395649,0.00545415391248228,-27.521616411464596,51.63285054207449,-87.5625
1772909829.5696495,87.81005730895453,4.786751390212426,-4.927121059159226,0.007772518864221761,-1.5285894540554859,10.242583388686082,-0.039619381089070725,0.08000208654783426,0.008726646259971648,-27.521616411464596,51.63285054207449,-87.5625
1772909829.5893898,87.8279648198618,4.738152133455146,-4.905682689861275,-0.22459497957189395,-1.6239616051656989,10.21495832265369,0.003110243375721003,-0.017482934882189223,0.009817477042468103,-27.521616411464596,51.63285054207449,-87.5625
1772909829.6116498,87.79235138157016,4.756597224338576,-4.907635498250788,-0.1072031535945524,-1.5728734933481108,9.995867447362178,0.026823796747597634,-0.04824777754163085,0.001090830782496456,-28.573621475109242,52.7676706141855,-87.5625
1772909829.6291218,87.79235138157016,4.756597224338576,-4.907635498250788,-0.1072031535945524,-1.5728734933481108,9.995867447362178,0.026823796747597634,-0.04824777754163085,0.001090830782496456,-28.573621475109242,52.7676706141855,-87.5625
1772909829.6443644,87.78201418132288,4.766040508198753,-4.908204100013745,-0.029080204759251348,-1.5388749256251082,9.890206257748947,-0.007453114816093451,0.019705029293602457,-0.019634954084936207,-28.573621475109242,52.7676706141855,-87.5625
1772909829.6581929,87.80903694304052,4.607030330115464,-5.023259541161066,0.022940814710258384,-1.5129042911793147,9.819889916374168,0.005362733001870446,-0.009867712254169332,0.02945243112740431,-28.573621475109242,52.7676706141855,-87.5625
1772909829.67786,87.80903694304052,4.607030330115464,-5.023259541161066,0.022940814710258384,-1.5129042911793147,9.819889916374168,0.005362733001870446,-0.009867712254169332,0.02945243112740431,-28.573621475109242,52.7676706141855,-87.5625
1772909829.6913524,87.80314699507555,4.621734811054168,-5.028870150416296,-0.04316163691793741,-1.534828641742799,9.773095176674252,-0.017229641426054165,0.02415934985467433,-0.014180800172453928,-27.893117200694682,52.01131740139169,-88.0625
1772909829.7053318,87.80906120531321,4.602014031591301,-5.028131224223918,-0.08746277716509958,-1.5828687262819723,9.741953800135452,0.006291408919159822,-0.02733038365986775,0.011999138607461015,-27.893117200694682,52.01131740139169,-88.0625
1772909829.7177658,87.78404465284254,4.3594617110633305,-5.312594207431742,-0.10694085858849509,-1.6182770424453168,9.764716014116,0.0012630232793876537,0.018533191658423428,0.002181661564992912,-27.893117200694682,52.01131740139169,-88.0625
1772909829.7360115,87.78404465284254,4.3594617110633305,-5.312594207431742,-0.10694085858849509,-1.6182770424453168,9.764716014116,0.0012630232793876537,0.018533191658423428,0.002181661564992912,-27.893117200694682,52.01131740139169,-88.0625
1772909829.7537663,87.79886666482537,4.163723341639092,-5.561555871210381,-0.11987223448120199,-1.6384959139001924,9.799934683493383,0.004282081010900035,-0.008766796786708117,0.039269908169872414,-27.205646856193006,52.00493183714517,-88.0
1772909829.7734013,87.84481576138872,3.954682331192588,-5.814212705334488,-0.15167520461906112,-1.6283190871177113,9.803301644301799,0.005453918646079067,-5.065869122701182e-05,0.039269908169872414,-27.205646856193006,52.00493183714517,-88.0
1772909829.7995868,87.86959959507035,3.8246863026643196,-6.009493704227304,-0.19290953047348253,-1.6213601043157546,9.802197207401063,0.006473780207577065,-0.007696276533983109,0.032724923474893676,-27.205646856193006,52.00493183714517,-88.0
1772909829.8152325,87.86959959507035,3.8246863026643196,-6.009493704227304,-0.19290953047348253,-1.6213601043157546,9.802197207401063,0.006473780207577065,-0.007696276533983109,0.032724923474893676,-27.205646856193006,52.00493183714517,-88.0
1772909829.8364084,88.02798954363168,3.8280368587449294,-6.009188566419328,-0.20040498806241494,-1.6302952669188904,9.751285541371201,-0.010948364245139744,-0.00426181753440923,0.0818123086872342,-29.702636488814317,52.34063859099692,-89.25
1772909829.8531382,88.24043741636271,3.8389674202932675,-6.011831630820144,-0.227358188166562,-1.8400981118744777,9.690643502690348,-0.030633130062251396,-0.009533364892071055,0.21162117180431245,-29.702636488814317,52.34063859099692,-89.25
1772909829.867804,88.54638757636899,3.8599101962823754,-6.016571262051106,-0.21550123211506847,-2.0134488630825267,9.650286903364197,-0.0296234002389988,-0.018269766464042967,0.28688849579656794,-29.702636488814317,52.34063859099692,-89.25
1772909829.884097,88.54638757636899,3.8599101962823754,-6.016571262051106,-0.21550123211506847,-2.0134488630825267,9.650286903364197,-0.0296234002389988,-0.018269766464042967,0.28688849579656794,-29.702636488814317,52.34063859099692,-89.25
1772909829.9035218,88.78616086397892,3.7468751550595147,-6.438776217144542,-0.27450990861411195,-2.128190457353979,9.686987159764465,-0.02114029212316195,-0.04452962987118571,0.22143864884678055,-28.279130635939588,50.82735165956872,-89.25
1772909829.9233277,88.93005812257454,3.7498842367919534,-6.428866069542471,-0.2461966417306793,-2.1315818176662917,9.711410770430117,0.010816651647949514,-0.009918370945396344,0.06544984694978735,-28.279130635939588,50.82735165956872,-89.25
1772909829.937472,88.9318703992666,3.755237380355231,-6.364603865001638,-0.217557573055971,-1.7994041279882576,9.727664410498502,0.05450879124605446,-0.003778938099917559,0.019634954084936207,-28.279130635939588,50.82735165956872,-89.25
1772909829.9553144,88.9318703992666,3.755237380355231,-6.364603865001638,-0.217557573055971,-1.7994041279882576,9.727664410498502,0.05450879124605446,-0.003778938099917559,0.019634954084936207,-28.279130635939588,50.82735165956872,-89.25
1772909829.9784577,88.78443571837137,3.7622050665156954,-6.315129018645478,-0.1293622253420453,-1.338127326496619,9.802038148838024,0.03502666019385086,0.012765189126736886,-0.0818123086872342,-28.254168884794094,53.51473573352982,-88.75
1772909829.9994667,88.67500867637928,3.7409970282460807,-6.363044478154312,-0.0706692066450153,-1.031152767903432,9.884984157967075,-0.037218359390527894,-0.013835709379461894,-0.06981317007977318,-28.254168884794094,53.51473573352982,-88.75
1772909830.0148478,88.67500867637928,3.7409970282460807,-6.363044478154312,-0.0706692066450153,-1.031152767903432,9.884984157967075,-0.037218359390527894,-0.013835709379461894,-0.06981317007977318,-28.254168884794094,53.51473573352982,-88.75
1772909830.0331953,88.68768748220377,3.736408994422955,-6.4369853576168,-0.051969651507205415,-1.2180704672970333,9.906732683401632,-0.040267812336776475,0.010191927878022209,0.014180800172453928,-28.254168884794094,53.51473573352982,-88.75
1772909830.047066,88.71740378674215,3.7230684107375738,-6.4606316194691225,-0.044827665604335154,-1.5531639856721935,9.840923403155717,-0.008807323739689727,-0.00864521592776329,0.014180800172453928,-27.515230847218074,52.32032088657617,-88.0625
1772909830.059735,88.71740378674215,3.7230684107375738,-6.4606316194691225,-0.044827665604335154,-1.5531639856721935,9.840923403155717,-0.008807323739689727,-0.00864521592776329,0.014180800172453928,-27.515230847218074,52.32032088657617,-88.0625
1772909830.0742395,88.70268620713391,3.732108752675234,-6.4411310957622385,-0.11366403689766333,-1.7754814452879906,9.79712806228989,-0.00098946634676179,0.010917969030403537,-0.001090830782496456,-27.515230847218074,52.32032088657617,-88.0625
1772909830.0869622,88.64441580928998,3.7240503434344956,-6.4182692277192315,-0.16197995828205677,-1.8330860412978331,9.691045182901348,0.029420765474090754,-0.0035459081202733043,-0.05345070834232634,-27.515230847218074,52.32032088657617,-88.0625
1772909830.0993114,88.64441580928998,3.7240503434344956,-6.4182692277192315,-0.16197995828205677,-1.8330860412978331,9.691045182901348,0.029420765474090754,-0.0035459081202733043,-0.05345070834232634,-27.515230847218074,52.32032088657617,-88.0625
1772909830.1130433,88.63591326794746,3.7188733376493595,-6.383923591843626,-0.18892451421594977,-1.6707542812657152,9.801084243886928,0.03927834599001469,0.0007260411523813283,-0.017453292519943295,-28.265198495765357,52.327286956663286,-90.0
1772909830.1253273,88.6452504581967,3.729296324290663,-6.38369534682505,-0.12833700943707987,-1.3928455734959488,9.87431400975598,1.0131738245402366e-05,0.0010907837292158135,0.01090830782496456,-28.265198495765357,52.327286956663286,-90.0
1772909830.1426146,88.6452504581967,3.729296324290663,-6.38369534682505,-0.12833700943707987,-1.3928455734959488,9.87431400975598,1.0131738245402366e-05,0.0010907837292158135,0.01090830782496456,-28.265198495765357,52.327286956663286,-90.0
1772909830.1735024,88.65952584673265,3.725129988283713,-6.408179889032515,-0.08801670181351666,-1.207900432918847,9.923047600911747,-0.030552076156288178,-0.0008070950583445472,0.00545415391248228,-28.265198495765357,52.327286956663286,-90.0
1772909830.2022436,88.64378071039518,3.723872407373093,-6.438050610754069,-0.07451227901692302,-1.4392948446992695,9.855125910216447,-0.009847448777678527,-0.0031811655434388192,-0.013089969389957472,-26.768165727873757,52.000868296261025,-88.5
1772909830.226627,88.64473338644628,3.724139230693313,-6.408378391189055,-0.10900981289535965,-1.5928813346624195,9.809924783793726,0.017493066620434625,0.004201027104936816,-0.004363323129985824,-26.768165727873757,52.000868296261025,-88.5
1772909830.2440367,88.6450509820569,3.7242280640968173,-6.3984874581788755,-0.13010335372056273,-1.4943933831580827,9.803259721040305,0.014119398050333161,-0.006676414972485112,0.006544984694978736,-26.768165727873757,52.000868296261025,-88.5
1772909830.2569516,88.6450509820569,3.7242280640968173,-6.3984874581788755,-0.13010335372056273,-1.4943933831580827,9.803259721040305,0.014119398050333161,-0.006676414972485112,0.006544984694978736,-26.768165727873757,52.000868296261025,-88.5
1772909830.2761056,88.6450509820569,3.7242280640968173,-6.3984874581788755,-0.14414086950944519,-1.428850751614452,9.825585089890088,-0.006554834113540284,-0.0010299932997433993,-0.003272492347489368,-27.521616411464596,51.63285054207449,-90.0
1772909830.2892723,88.6450509820569,3.7242280640968173,-6.3984874581788755,-0.1468548840478501,-1.3919849367316497,9.840442373468909,-0.014210583694541782,-0.00314063859045721,0.004363323129985824,-27.521616411464596,51.63285054207449,-90.0
1772909830.3021445,88.64473338644628,3.724139230693313,-6.408378391189055,-0.14953098228945313,-1.4611102363658894,9.776737272162855,-0.008716138095481106,0.0011718376351790324,0.001090830782496456,-27.521616411464596,51.63285054207449,-90.0
1772909830.314411,88.64473338644628,3.724139230693313,-6.408378391189055,-0.14953098228945313,-1.4611102363658894,9.776737272162855,-0.008716138095481106,0.0011718376351790324,0.001090830782496456,-27.521616411464596,51.63285054207449,-90.0
1772909830.3305871,88.64473338644628,3.724139230693313,-6.408378391189055,-0.16478497456576044,-1.5170229744968027,9.734342238876286,0.006554834113540284,0.0010299932997433993,-0.002181661564992912,-26.76526319867079,52.31335481648906,-90.0
1772909830.3558855,88.63484251090327,3.723584348980724,-6.408695929332506,-0.17493633602738423,-1.5542322771367156,9.719509264636905,0.008766796786708117,0.004282081010900034,-0.013089969389957472,-26.76526319867079,52.31335481648906,-90.0
1772909830.3688452,88.63484251090327,3.723584348980724,-6.408695929332506,-0.17493633602738423,-1.5542322771367156,9.719509264636905,0.008766796786708117,0.004282081010900034,-0.013089969389957472,-26.76526319867079,52.31335481648906,-90.0
1772909830.3944986,88.63484251090327,3.723584348980724,-6.408695929332506,-0.15778006641462017,-1.5256926617190403,9.759814761585567,0.0011009154674612158,0.0010806519909704112,0.003272492347489368,-27.51813337642104,52.007834366348135,-89.5625
1772909830.409725,88.62461572532922,3.518539237325129,-6.630105672740813,-0.14636276063541462,-1.506699866466971,9.786637619562999,-0.0065447023752948814,6.0790429472414194e-05,0.003272492347489368,-27.51813337642104,52.007834366348135,-89.5625
1772909830.4220243,88.62461572532922,3.518539237325129,-6.630105672740813,-0.14636276063541462,-1.506699866466971,9.786637619562999,-0.0065447023752948814,6.0790429472414194e-05,0.003272492347489368,-27.51813337642104,52.007834366348135,-89.5625
1772909830.4379513,88.61216381734522,3.3929561829054244,-6.792838974663297,-0.15964228813269637,-1.5808431079198892,9.750966144598912,-0.004342871440372449,0.0022220944114132364,-0.003272492347489368,-27.51813337642104,52.007834366348135,-89.5625
1772909830.4513881,88.61216381734522,3.3929561829054244,-6.792838974663297,-0.15964228813269637,-1.5808431079198892,9.750966144598912,-0.004342871440372449,0.0022220944114132364,-0.003272492347489368,-27.51813337642104,52.007834366348135,-89.5625
1772909830.4685464,88.60591647130879,3.2731255031070288,-6.911247700741247,-0.16847966534009548,-1.630184606872531,9.727227176486798,0.0065447023752948814,-6.0790429472414194e-05,-0.003272492347489368,-27.886151130607566,52.76128504993898,-90.0
1772909830.484553,88.60132164358433,3.1383366445648337,-7.014070803164407,-0.15704567958394458,-1.5996217909101256,9.751570498877667,0.0021916991966770293,0.0010705202527250086,0.003272492347489368,-27.886151130607566,52.76128504993898,-90.0
1772909830.498058,88.60132164358433,3.1383366445648337,-7.014070803164407,-0.15704567958394458,-1.5996217909101256,9.751570498877667,0.0021916991966770293,0.0010705202527250086,0.003272492347489368,-27.886151130607566,52.76128504993898,-90.0
1772909830.5176105,88.59591724972206,3.0183025062532183,-7.121943084865492,-0.149436489789216,-1.579282578296169,9.767770707996062,-0.0021916991966770293,-0.0010705202527250086,0.001090830782496456,-27.886151130607566,52.76128504993898,-90.0
1772909830.5355406,88.5881436734949,2.9379831699362358,-7.230778288131893,-0.16128391431697164,-1.5856615154449207,9.768516431074202,-0.003282482925892843,-0.0010603885144796063,0.0,-27.890214671491716,52.32380392161973,-90.0
1772909830.5557606,88.58599202122474,2.8580223907897833,-7.319405917432236,-0.16916824299578945,-1.5899066268600182,9.765667589745112,0.002181567458431627,-2.026347649080473e-05,-0.001090830782496456,-27.890214671491716,52.32380392161973,-90.0
1772909830.5843701,88.57994585437562,2.767843896726111,-7.397852149085126,-0.17103913853266223,-1.5894178033808786,9.763771717664246,0.002181567458431627,-2.026347649080473e-05,-0.001090830782496456,-27.890214671491716,52.32380392161973,-90.0
1772909830.6515453,88.57246424018325,2.5927077334164577,-7.5697653699561815,-0.1689392311981568,-1.5891235665261636,9.762510035972708,-0.003282482925892843,-0.0010603885144796063,0.001090830782496456,-27.879185060520452,53.51125269848626,-89.5625
1772909830.6663985,88.57059198415676,2.5177080918430135,-7.65346051054219,-0.1641967989095236,-1.5889588248963284,9.761670400900899,0.0010806519909704112,-0.0011009154674612158,-0.002181661564992912,-27.879185060520452,53.51125269848626,-89.5625
1772909830.6873186,88.56808939442044,2.467782584336349,-7.692940726462509,-0.16104076319787805,-1.588849191181958,9.761111633139947,0.0011009154674612158,0.0010806519909704112,-0.001090830782496456,-27.879185060520452,53.51125269848626,-89.5625
1772909830.7354753,88.56193456984568,2.387450730669601,-7.771408653333354,-0.15894045668700685,-1.588776231169733,9.764084891144199,-0.003282482925892843,-0.0010603885144796063,-0.001090830782496456,-27.893117200694682,52.01131740139169,-88.75
1772909830.7705371,88.5590922562339,2.3424030641535554,-7.815864601605152,-0.1609187632911414,-1.5920415748014993,9.76606356113256,-2.026347649080473e-05,-0.002181567458431627,0.002181661564992912,-27.893117200694682,52.01131740139169,-88.75
1772909830.8061683,88.56156397046641,2.2875458607255394,-7.879537662069278,-0.16223530423706017,-1.5942146245121616,9.767380343906622,0.003252087711156636,-0.002211962673167834,-0.002181661564992912,-27.893117200694682,52.01131740139169,-88.75
1772909830.8500655,88.5607396134757,2.2077362376893723,-7.948351484604702,-0.16304930810957002,-1.5889708299900078,9.764911536426013,0.0,0.0,0.0,-27.19868078610589,52.754899485692455,-89.1875
1772909830.8714132,88.55296585326526,2.1621516037646367,-8.002418373310949,-0.16359101859370623,-1.5854811433125375,9.763268572626055,-0.0011009154674612158,-0.0010806519909704112,-0.001090830782496456,-27.19868078610589,52.754899485692455,-89.1875
1772909830.91362,88.55296585326526,2.1621516037646367,-8.002418373310949,-0.16359101859370623,-1.5854811433125375,9.763268572626055,-0.0011009154674612158,-0.0010806519909704112,-0.001090830782496456,-27.19868078610589,52.754899485692455,-89.1875
1772909830.958167,88.54820078734537,2.0620683875097017,-8.101085965594756,-0.16392045115945977,-1.5798138283960137,9.762175198570292,0.0011009154674612158,0.0010806519909704112,0.001090830782496456,-27.515230847218074,52.32032088657617,-89.25
1772909830.9755595,88.55032789074377,2.022244484753425,-8.140202268755646,-0.16764000081767033,-1.5927360609920949,9.75810245864265,-0.0010806519909704112,0.0011009154674612158,0.0,-27.515230847218074,52.32032088657617,-89.25
1772909830.9926727,88.55032789074377,2.022244484753425,-8.140202268755646,-0.16764000081767033,-1.5927360609920949,9.75810245864265,-0.0010806519909704112,0.0011009154674612158,0.0,-27.515230847218074,52.32032088657617,-89.25
1772909831.031031,88.5477726707338,1.9771748166070076,-8.184643132943066,-0.16664607330954936,-1.58798686248404,9.758737207423609,0.0010907837292158135,-1.0131738245402366e-05,-0.001090830782496456,-27.890214671491716,52.32380392161973,-89.5625
1772909831.072359,88.54608023795797,1.9171679375110109,-8.24375034442533,-0.16942280220122402,-1.5948301564638818,9.75246940223209,0.0010705202527250088,-0.0021916991966770293,0.001090830782496456,-27.890214671491716,52.32380392161973,-89.5625
1772909831.0982115,88.54718995874062,1.8972575809709484,-8.263306955954516,-0.15779760547004273,-1.5894736687583448,9.748298247893107,0.0,0.0,0.0,-27.890214671491716,52.32380392161973,-89.5625
1772909831.1289625,88.54718995874062,1.8972575809709484,-8.263306955954516,-0.15779760547004273,-1.5894736687583448,9.748298247893107,0.0,0.0,0.0,-27.890214671491716,52.32380392161973,-89.5625
1772909831.1530297,88.54012526253008,1.8467669858399853,-8.312350893552837,-0.16009606915246327,-1.5858157768957886,9.74552239127536,-0.0011110472057066182,-0.0021714357201862247,0.0,-27.20274432699004,52.31741835737321,-90.5
1772909831.2031195,88.54012526253008,1.8467669858399853,-8.312350893552837,-0.16009606915246327,-1.5858157768957886,9.74552239127536,-0.0011110472057066182,-0.0021714357201862247,0.0,-27.20274432699004,52.31741835737321,-90.5
1772909831.2313743,88.542399418547,1.8069490562476072,-8.351459028167362,-0.16162567105759243,-1.5833814907225867,9.743675089704599,0.0010806519909704112,-0.0011009154674612158,0.001090830782496456,-27.20274432699004,52.31741835737321,-90.5
1772909831.2462494,88.53856715547035,1.786753713253008,-8.371448530069426,-0.16264360403868308,-1.5817615004670795,9.749135954559607,0.0,0.0,0.0,-26.018198079326474,51.99390222617391,-89.25
1772909831.260719,88.53972139019868,1.7668450019199318,-8.391002070453338,-0.16328995735640586,-1.5773384476334944,9.752770099118758,-0.0011009154674612158,-0.0010806519909704112,0.001090830782496456,-26.018198079326474,51.99390222617391,-89.25
1772909831.2801924,88.54059150395292,1.7519139846720666,-8.405667099381713,-0.16372009826911074,-1.574394955381481,9.755188581726818,2.026347649080473e-05,0.002181567458431627,-0.001090830782496456,-26.018198079326474,51.99390222617391,-89.25
1772909831.3032756,88.54059150395292,1.7519139846720666,-8.405667099381713,-0.16372009826911074,-1.574394955381481,9.755188581726818,2.026347649080473e-05,0.002181567458431627,-0.001090830782496456,-26.018198079326474,51.99390222617391,-89.25
1772909831.323649,88.54175757207899,1.7320066537459784,-8.42522030471896,-0.16400635224152701,-1.572436094168729,9.75679805488626,0.0,0.0,0.0,-27.19868078610589,52.754899485692455,-89.25
1772909831.338503,88.54234314159315,1.7220532861944,-8.43499683667195,-0.16422792077264017,-1.574477461328578,9.761214253002196,-2.026347649080473e-05,-0.002181567458431627,0.003272492347489368,-27.19868078610589,52.754899485692455,-89.25
1772909831.352872,88.54234314159315,1.7220532861944,-8.43499683667195,-0.16422792077264017,-1.574477461328578,9.761214253002196,-2.026347649080473e-05,-0.002181567458431627,0.003272492347489368,-27.19868078610589,52.754899485692455,-89.25
1772909831.3684685,88.53824575986017,1.7068292331750199,-8.450097150655814,-0.16440644186514985,-1.5791809357849136,9.764153183516186,1.0131738245402366e-05,0.0010907837292158135,0.001090830782496456,-27.19868078610589,52.754899485692455,-89.25
1772909831.3820639,-0.18980933328953276,-6.621298941777009,-10.149265304897419,-0.16455631536814036,-1.5856560129093746,9.762763897235923,2.026347649080473e-05,0.002181567458431627,0.001090830782496456,-27.20274432699004,52.31741835737321,-90.0
1772909831.396975,88.53942729179927,1.6869220056355283,-8.469649901165146,-0.16800102192520558,-1.5899340346942161,9.761839342735751,-0.0011110472057066182,-0.0021714357201862247,0.001090830782496456,-27.20274432699004,52.31741835737321,-90.0
1772909831.409516,88.53942729179927,1.6869220056355283,-8.469649901165146,-0.16800102192520558,-1.5899340346942161,9.761839342735751,-0.0011110472057066182,-0.0021714357201862247,0.001090830782496456,-27.20274432699004,52.31741835737321,-90.0
1772909831.4224515,88.54002059291294,1.6769686937628787,-8.479426207754788,-0.1702312962387658,-1.58609107557335,9.757878950336519,0.0,0.0,0.002181661564992912,-27.20274432699004,52.31741835737321,-90.0
1772909831.435114,88.54002059291294,1.6769686937628787,-8.479426207754788,-0.1702312962387658,-1.58609107557335,9.757878950336519,0.0,0.0,0.002181661564992912,-27.20274432699004,52.31741835737321,-90.0
1772909831.4563036,88.54061558402093,1.6670155839307998,-8.489202468964725,-0.1717155188806436,-1.5835336292070799,9.75858846514263,-0.0010907837292158135,1.0131738245402366e-05,0.001090830782496456,-27.511167306333924,52.75780201489542,-89.5625
1772909831.4728334,88.53653260657416,1.6517872065178076,-8.504302295734442,-0.16601331763891655,-1.5818938166391479,9.755715527612978,-0.0010502567762342041,0.004373266655108656,0.002181661564992912,-27.511167306333924,52.75780201489542,-89.5625
1772909831.4974754,88.5377329815824,1.631880514134265,-8.523854514894147,-0.16224963612044527,-1.5841475071081175,9.75714873148713,-1.0131738245402366e-05,-0.0010907837292158135,0.0,-27.511167306333924,52.75780201489542,-89.5625
1772909831.5192072,88.53833570380934,1.6219274746976822,-8.533630558305639,-0.15974494811297996,-1.5856473129398447,9.754757400948122,-5.065869122701182e-05,-0.005453918646079067,0.001090830782496456,-28.268101024968324,52.01480043643525,-89.5625
1772909831.5361865,88.53833570380934,1.6219274746976822,-8.533630558305639,-0.15974494811297996,-1.5856473129398447,9.754757400948122,-5.065869122701182e-05,-0.005453918646079067,0.001090830782496456,-28.268101024968324,52.01480043643525,-89.5625
1772909831.558944,88.53894011574972,1.6119746405402005,-8.543406558001637,-0.16142307363823188,-1.5866143472567935,9.756511108894644,-0.0011009154674612158,-0.0010806519909704112,0.0,-28.268101024968324,52.01480043643525,-89.5625
1772909831.659827,88.53565514520312,1.581721861407647,-8.583035934702666,-0.1632830479122361,-1.5876861734846524,9.758454856019375,-3.0395214736207097e-05,-0.0032723511876474407,-0.001090830782496456,-27.896600235738237,51.63633357711805,-89.5625
1772909831.6878514,88.53718871236627,1.556840385446637,-8.607475009544762,-0.16043267211645068,-1.5880022558839353,9.758971723941283,0.0,0.0,-0.002181661564992912,-27.515230847218074,52.32032088657617,-90.75
1772909831.709882,88.53291753877703,1.5464525837202845,-8.616941947083745,-0.15850470915500287,-1.5848676377747644,9.75931569376952,-1.0131738245402366e-05,-0.0010907837292158135,-0.001090830782496456,-27.515230847218074,52.32032088657617,-90.75
1772909831.7392564,88.53428077870147,1.526639057073357,-8.626626270115501,-0.15387670392589503,-1.5828126541492265,9.756199490140498,0.0010806519909704112,-0.0011009154674612158,-0.001090830782496456,-27.205646856193006,52.00493183714517,-90.0
1772909831.7768667,88.53428077870147,1.526639057073357,-8.626626270115501,-0.15387670392589503,-1.5828126541492265,9.756199490140498,0.0010806519909704112,-0.0011009154674612158,-0.001090830782496456,-27.205646856193006,52.00493183714517,-90.0
1772909831.8073645,88.52992364311307,1.516376721335442,-8.63683625154891,-0.1543181944249275,-1.5804832375890225,9.752745601563438,-0.0011110472057066182,-0.0021714357201862247,0.003272492347489368,-27.205646856193006,52.00493183714517,-90.0
1772909831.833017,88.53011062731478,1.51131000470663,-8.651588763871056,-0.1543181944249275,-1.5804832375890225,9.752745601563438,-0.0011110472057066182,-0.0021714357201862247,0.003272492347489368,-27.205646856193006,52.00493183714517,-90.0
1772909831.891353,88.53148287725686,1.4914963197721594,-8.661272876190045,-0.15778055996950716,-1.5798327453823013,9.75182716717009,1.0131738245402366e-05,0.0010907837292158135,0.0,-27.521616411464596,51.63285054207449,-90.0
1772909831.9178946,88.532302481753,1.4764785670279488,-8.685799377380427,-0.1567397581472458,-1.579430919795339,9.754561071048219,-0.0010806519909704112,0.0011009154674612158,-0.001090830782496456,-27.521616411464596,51.63285054207449,-90.0
1772909831.939279,88.532302481753,1.4764785670279488,-8.685799377380427,-0.1567397581472458,-1.579430919795339,9.754561071048219,-0.0010806519909704112,0.0011009154674612158,-0.001090830782496456,-27.521616411464596,51.63285054207449,-90.0
1772909831.9733727,88.5336835377304,1.4566659950939294,-8.695483734285203,-0.15942315328620735,-1.5824774070607863,9.756380453539407,0.0,0.0,0.0,-27.515230847218074,52.32032088657617,-89.5625
1772909831.9956264,88.52902227851284,1.4513742380936503,-8.70080610302552,-0.1611778530655619,-1.5811598428894276,9.757591232263458,0.0010907837292158135,-1.0131738245402366e-05,-0.002181661564992912,-27.515230847218074,52.32032088657617,-89.5625
1772909832.017883,88.52902227851284,1.4513742380936503,-8.70080610302552,-0.1611778530655619,-1.5811598428894276,9.757591232263458,0.0010907837292158135,-1.0131738245402366e-05,-0.002181661564992912,-27.515230847218074,52.32032088657617,-89.5625
1772909832.0427406,88.52997321198217,1.436446654188586,-8.715467699029695,-0.1623455861674415,-1.5802830186515444,9.75839699197903,-0.0010806519909704112,0.0011009154674612158,0.0,-27.886151130607566,52.76128504993898,-88.875
1772909832.0671704,88.52997321198217,1.436446654188586,-8.715467699029695,-0.1623455861674415,-1.5802830186515444,9.75839699197903,-0.0010806519909704112,0.0011009154674612158,0.0,-27.886151130607566,52.76128504993898,-88.875
1772909832.0920253,88.53029103410356,1.4314709008595798,-8.720354878601164,-0.1631226995023089,-1.5796995019160016,9.758933216068817,0.0010705202527250088,-0.0021916991966770293,0.0,-27.886151130607566,52.76128504993898,-88.875
1772909832.109588,88.52062839627462,1.4256509910087496,-8.73522293076979,-0.16363985974573841,-1.579311178046807,9.759290067210555,-0.01645294158244582,-0.009665077489261285,-0.017453292519943295,-28.594519685370585,50.51776766854365,-90.5
1772909832.1220315,88.43048476591485,1.4178932187642026,-8.845527014632667,-0.18114383712770268,-1.6257269481093413,9.813049334976204,-0.09167649194535535,-0.004602852633465268,-0.08399397025222712,-28.594519685370585,50.51776766854365,-90.5
1772909832.1370287,88.43048476591485,1.4178932187642026,-8.845527014632667,-0.18114383712770268,-1.6257269481093413,9.813049334976204,-0.09167649194535535,-0.004602852633465268,-0.08399397025222712,-28.594519685370585,50.51776766854365,-90.5
1772909832.151228,88.43923597149684,1.4282233885607742,-8.875099703952388,-0.19732871622309708,-2.1449813671810074,9.848825527143873,-0.013170458656552982,-0.00860468897478168,0.04145156973486533,-28.594519685370585,50.51776766854365,-90.5
1772909832.1646383,88.43923597149684,1.4282233885607742,-8.875099703952388,-0.19732871622309708,-2.1449813671810074,9.848825527143873,-0.013170458656552982,-0.00860468897478168,0.04145156973486533,-28.594519685370585,50.51776766854365,-90.5
1772909832.2117379,88.53244012638254,1.4611308568811523,-8.760401295123776,-0.1278203545036144,-2.4912850556645547,9.765590608750985,0.06892200970550429,0.02117737507485592,0.037088246604879506,-28.288418729389072,49.82739479483901,-90.75
1772909832.2375805,88.51840601540462,1.460484539211617,-8.701016075879698,-0.056936825638097266,-2.5915100506697906,9.710198700355479,0.017229641426054165,-0.02415934985467433,0.00545415391248228,-28.288418729389072,49.82739479483901,-90.75
1772909832.2563498,88.51840601540462,1.460484539211617,-8.701016075879698,-0.056936825638097266,-2.5915100506697906,9.710198700355479,0.017229641426054165,-0.02415934985467433,0.00545415391248228,-28.288418729389072,49.82739479483901,-90.75
1772909832.2752347,88.61632980599872,1.4674990645151995,-8.759001606969393,-0.005166311898786005,-2.1631534878360044,9.760308908476734,-0.03270324839998359,0.0024855196057936976,0.05235987755982989,-27.205646856193006,52.00493183714517,-88.875
1772909832.2940538,88.68400877363631,1.4772651826898646,-8.832932857176901,0.029286386680194346,-1.8780869803264568,9.793656692213727,-0.027360778874603957,-0.009563760106807262,0.04799655442984406,-27.205646856193006,52.00493183714517,-88.875
1772909832.313005,88.71480573414662,1.464798447644855,-8.82752230406771,-0.07034836421755927,-1.9180626460519776,9.695425248308045,-0.007757066963455522,-0.013018482582871945,0.02945243112740431,-27.205646856193006,52.00493183714517,-88.875
1772909832.326557,88.71480573414662,1.464798447644855,-8.82752230406771,-0.07034836421755927,-1.9180626460519776,9.695425248308045,-0.007757066963455522,-0.013018482582871945,0.02945243112740431,-27.205646856193006,52.00493183714517,-88.875
1772909832.3455942,88.74592270199048,1.4473622217114115,-8.827014641139447,-0.13665417794692028,-1.9446660050348656,9.63005331970594,0.00525128388117102,-0.02186633327554328,0.016362461737446838,-25.695262453967768,53.11595116979187,-87.5625
1772909832.3626182,88.80906854044757,1.4619817048635129,-8.845646012002115,-0.045334565061232096,-1.7863297586682956,9.683557270985794,-0.02831985000662954,0.004626560111243716,0.06435901616729091,-25.695262453967768,53.11595116979187,-87.5625
1772909832.3785713,88.80906854044757,1.4619817048635129,-8.845646012002115,-0.045334565061232096,-1.7863297586682956,9.683557270985794,-0.02831985000662954,0.004626560111243716,0.06435901616729091,-25.695262453967768,53.11595116979187,-87.5625
1772909832.3980305,89.00395715558163,1.4372839258346914,-8.882890929190484,0.0164629176417833,-1.5705748307473897,9.786065787030626,-0.037410862417190535,-0.03456060023456235,0.11562806294462433,-25.695262453967768,53.11595116979187,-87.5625
1772909832.418829,89.29327335584942,1.4150909767417312,-8.894021483246814,0.05758845205752629,-1.4269923363564914,9.78738182521692,-0.02844143086557437,-0.008462844639346045,0.16907877128695067,-27.184748645931663,54.25483478278702,-86.875
1772909832.4406323,89.29327335584942,1.4150909767417312,-8.894021483246814,0.05758845205752629,-1.4269923363564914,9.78738182521692,-0.02844143086557437,-0.008462844639346045,0.16907877128695067,-27.184748645931663,54.25483478278702,-86.875
1772909832.458863,89.71696544359693,1.452991011873237,-8.893637685032022,0.04410282349548093,-1.4080012042847656,9.828398974416622,0.002009327908259787,-0.018563586873159635,0.26398104936414235,-27.184748645931663,54.25483478278702,-86.875
1772909832.4936066,90.27932401420752,1.4965877368369749,-8.876335626267505,0.03419619702768492,-1.4957118404865302,9.838969870480847,-0.003505381167291695,-0.0250576305572275,0.2596177262341565,-25.99497784570276,54.493794387998186,-86.0625
1772909832.515414,90.59127863409344,1.5058894601278543,-8.867621571793157,-0.07943550950306034,-1.5530880583624296,9.846004683726942,-0.007848252607664143,-0.022835536145814267,0.18544123302439752,-25.99497784570276,54.493794387998186,-86.0625
1772909832.5730429,90.59127863409344,1.5058894601278543,-8.867621571793157,-0.07943550950306034,-1.5530880583624296,9.846004683726942,-0.007848252607664143,-0.022835536145814267,0.18544123302439752,-25.99497784570276,54.493794387998186,-86.0625
1772909832.6390247,91.4668510869775,1.5347699595969138,-8.896212580128786,-0.15502507113980143,-1.5879263230094696,9.83396071482161,0.005200625189944008,-0.027320251921622348,0.20616701789183017,-26.3699616699764,54.497277423041744,-85.6875
1772909832.6868207,92.15531018902925,1.5490847175793443,-8.907535207446859,-0.1951698989327108,-1.5978241384334817,9.82260047634774,-0.001323813708860068,-0.025077894033718306,0.19744037163185854,-26.3699616699764,54.497277423041744,-85.6875
1772909832.7789073,92.9786402590059,1.554670853833665,-8.928140472356166,-0.20850596372169505,-1.604535302872865,9.815040364545558,-0.007777330439946327,-0.015200050041303571,0.20943951023931956,-25.9833677288909,55.743740468910325,-84.5
1772909832.8019385,93.75642209640012,1.5756560182923336,-8.918725920764063,-0.21738096586515918,-1.609001507838656,9.796628747763911,-0.007817857392927936,-0.019563184958166824,0.20180369476184434,-25.9833677288909,55.743740468910325,-84.5
1772909832.8231387,93.75642209640012,1.5756560182923336,-8.918725920764063,-0.21738096586515918,-1.609001507838656,9.796628747763911,-0.007817857392927936,-0.019563184958166824,0.20180369476184434,-25.9833677288909,55.743740468910325,-84.5
1772909832.849297,94.23226130255966,1.5838416757569516,-8.933122066322648,-0.18646146937598895,-1.6089705167490913,9.78437602246696,-0.0034243272613284762,-0.01633136072350099,0.21925698728178766,-25.227014516097096,56.424244743324884,-85.25
1772909832.8856766,94.82601224804216,1.611339695666268,-8.945687686156582,-0.16588488985585315,-1.6089498925251793,9.76953174723911,-0.004454320561071875,-0.009776526609960711,0.21598449493429828,-25.227014516097096,56.424244743324884,-85.25
1772909832.945114,94.82601224804216,1.611339695666268,-8.945687686156582,-0.16588488985585315,-1.6089498925251793,9.76953174723911,-0.004454320561071875,-0.009776526609960711,0.21598449493429828,-25.227014516097096,56.424244743324884,-85.25
1772909832.9701793,95.36598500783643,1.6290056662157475,-8.944050332399103,-0.15243996372174917,-1.6356959066547274,9.756307936189076,-0.002293016579131053,-0.011978357544883142,0.2007128639793479,-24.16456034732178,56.41437614403481,-82.875
1772909833.007571,95.97221013766908,1.6286416100356282,-8.968179331079167,-0.14349251556916878,-1.6534950802853874,9.740817414240288,-0.007757066963455522,-0.013018482582871945,0.22143864884678055,-24.16456034732178,56.41437614403481,-82.875
1772909833.0264833,96.30855997434224,1.6462843234078792,-8.983651154828882,-0.14422802360321482,-1.6652780920865211,9.73050864492384,-0.018685167732104463,-0.015098732658849548,0.19853120241435498,-24.16456034732178,56.41437614403481,-82.875
1772909833.0410585,96.30855997434224,1.6462843234078792,-8.983651154828882,-0.14422802360321482,-1.6652780920865211,9.73050864492384,-0.018685167732104463,-0.015098732658849548,0.19853120241435498,-24.16456034732178,56.41437614403481,-82.875
1772909833.0674696,96.7511544274615,1.6380144692785363,-9.004458249070046,-0.14800032397845808,-1.6663985502751293,9.750409167758795,-0.0013136819706146656,-0.02398711030450249,0.1908953869368798,-22.214372793414924,57.771321151979784,-82.0625
1772909833.090755,96.7511544274615,1.6380144692785363,-9.004458249070046,-0.14800032397845808,-1.6663985502751293,9.750409167758795,-0.0013136819706146656,-0.02398711030450249,0.1908953869368798,-22.214372793414924,57.771321151979784,-82.0625
1772909833.1229858,97.12414967233828,1.6376760212314192,-9.00109413974138,-0.15007577179691442,-1.6203146588730057,9.763652743402053,0.005220888666434813,-0.02513868446319072,0.2279836335417593,-22.214372793414924,57.771321151979784,-82.0625
1772909833.1624866,97.82468403503862,1.6532666836368533,-8.994226243188901,-0.13138715464569545,-1.5898327621965092,9.752395524808291,-0.007767198701700924,-0.014109266312087759,0.210530341021816,-23.706761514581782,58.5977182447469,-81.6875
1772909833.1804433,98.06383823978229,1.6484793299841918,-9.007526552860687,-0.11607116693411824,-1.6197529813988605,9.741558859878195,0.005231020404680215,-0.024047900733974906,0.21707532571679475,-23.706761514581782,58.5977182447469,-81.6875
1772909833.1973088,98.42699399125385,1.6473490677431994,-9.00433437433581,-0.10922351561787844,-1.6396334833371402,9.737692292128013,-0.00021276650315344968,-0.022906458313532083,0.21925698728178766,-23.706761514581782,58.5977182447469,-81.6875
1772909833.2115061,98.42699399125385,1.6473490677431994,-9.00433437433581,-0.10922351561787844,-1.6396334833371402,9.737692292128013,-0.00021276650315344968,-0.022906458313532083,0.21925698728178766,-23.706761514581782,58.5977182447469,-81.6875
1772909833.2247608,98.66558417775202,1.651702219207439,-9.007059007854625,-0.14811998684534422,-1.6491148616505107,9.751844693019256,0.0074125878631118415,-0.02406816421046571,0.21271200258680892,-22.640824310762905,58.96283346973046,-81.0
1772909833.2396255,98.8789193893071,1.6585723201395692,-9.004584083952427,-0.177350121360191,-1.6553935432939866,9.761262957719701,-0.004525242728789691,-0.017412012714471407,0.1930770485018727,-22.640824310762905,58.96283346973046,-81.0
1772909833.2533426,98.8789193893071,1.6585723201395692,-9.004584083952427,-0.177350121360191,-1.6553935432939866,9.761262957719701,-0.004525242728789691,-0.017412012714471407,0.1930770485018727,-22.640824310762905,58.96283346973046,-81.0
1772909833.2738123,99.1073980193406,1.6666788608534993,-9.002152391468293,-0.1934574819428026,-1.6596030055003865,9.744114925717703,0.000938807655534778,-0.0163718876764826,0.20180369476184434,-22.640824310762905,58.96283346973046,-81.0
1772909833.2935574,99.1073980193406,1.6666788608534993,-9.002152391468293,-0.1934574819428026,-1.6596030055003865,9.744114925717703,0.000938807655534778,-0.0163718876764826,0.20180369476184434,-22.640824310762905,58.96283346973046,-81.0
1772909833.320785,99.42599729260425,1.6683627502764962,-9.014558686904175,-0.21092882472983987,-1.6690321509857422,9.732703101976442,0.004201027104936817,-0.017493066620434625,0.19744037163185854,-21.946387896174116,59.706415554031224,-79.375
1772909833.341715,99.73166959287984,1.7122421654162534,-9.008510840967807,-0.26316146281923547,-1.7251088166794775,9.668241761730627,0.006504175422313272,-0.004423925346335668,0.09708393964218458,-21.946387896174116,59.706415554031224,-79.375
1772909833.3586814,99.82026473836873,1.7255284787008969,-9.021617528857835,-0.29817025767202215,-1.789186950601432,9.528335220365127,-0.01528110394726679,-0.0009489393937801803,0.07744898555724837,-21.946387896174116,59.706415554031224,-79.375
1772909833.373056,99.82026473836873,1.7255284787008969,-9.021617528857835,-0.29817025767202215,-1.789186950601432,9.528335220365127,-0.01528110394726679,-0.0009489393937801803,0.07744898555724837,-21.946387896174116,59.706415554031224,-79.375
1772909833.3905854,99.91371668338529,1.740915890929761,-8.999385654167844,-0.3212196618915965,-1.8050704936066613,9.435228979944856,-0.002282884840885651,-0.01088757381566733,0.05235987755982989,-21.630418340902526,60.0784968491019,-79.375
1772909833.4029896,99.96819297790594,1.7452001789984173,-8.998553796608737,-0.276349369450616,-1.8162000688282982,9.346506923351464,-0.019735424508338664,-0.01072546600374089,0.05672320068981571,-21.630418340902526,60.0784968491019,-79.375
1772909833.4158525,99.96819297790594,1.7452001789984173,-8.998553796608737,-0.276349369450616,-1.8162000688282982,9.346506923351464,-0.019735424508338664,-0.01072546600374089,0.05672320068981571,-21.630418340902526,60.0784968491019,-79.375
1772909833.433138,100.04789777686571,1.7505936303863805,-8.98772002787963,-0.2417455866939858,-1.6731142128469543,9.427958077486288,0.007513905245565866,-0.01316032691830758,0.07635815477475191,-21.630418340902526,60.0784968491019,-79.375
1772909833.455162,100.18168655037762,1.758515957615573,-9.010864880934117,-0.16470056181649695,-1.5248698107869483,9.83005452825522,-4.052695298160946e-05,-0.004363134916863254,0.0719948316447661,-21.630418340902526,60.0784968491019,-78.1875
1772909833.478418,100.18168655037762,1.758515957615573,-9.010864880934117,-0.16470056181649695,-1.5248698107869483,9.83005452825522,-4.052695298160946e-05,-0.004363134916863254,0.0719948316447661,-21.630418340902526,60.0784968491019,-78.1875
1772909833.5108755,100.50885664003097,1.776288700022236,-9.026278181603393,-0.11342795840984825,-1.426214817214491,10.097645224530279,-0.008969431551616164,-0.026097755595216304,0.14289883250703572,-21.630418340902526,60.0784968491019,-78.1875
1772909833.5290036,100.50885664003097,1.776288700022236,-9.026278181603393,-0.11342795840984825,-1.426214817214491,10.097645224530279,-0.008969431551616164,-0.026097755595216304,0.14289883250703572,-21.630418340902526,60.0784968491019,-78.1875
1772909833.5721104,100.84601776699718,1.7974011693039946,-9.016334065186257,-0.07949303185605126,-1.3806308255306388,9.971318678351329,0.012927296938663325,-0.017574120526397844,0.20943951023931956,-20.44645259907955,59.692483413857,-79.0625
1772909833.5982099,101.56237891864215,1.8264081002543344,-9.02811522752777,-0.06090714864035653,-1.420508434276907,9.843763320834071,-0.0035155129055370977,-0.02614841428644332,0.18980455615438332,-20.44645259907955,59.692483413857,-79.0625
1772909833.6185017,101.80582321764483,1.8367972813629267,-9.03498442358328,-0.03850354873316571,-1.4471397465658804,9.802363107488194,-0.01214046535680958,-0.015159523088321962,0.22362031041177347,-21.624032776656005,60.76596719360358,-77.0625
1772909833.6357791,101.80582321764483,1.8367972813629267,-9.03498442358328,-0.03850354873316571,-1.4471397465658804,9.802363107488194,-0.01214046535680958,-0.015159523088321962,0.22362031041177347,-21.624032776656005,60.76596719360358,-77.0625
1772909833.665945,102.17419154512937,1.847246138184424,-9.040970114358839,-0.08142181032914189,-1.568028392196294,9.731325275782046,-0.00029382040911666863,-0.03163272814725859,0.21162117180431245,-21.624032776656005,60.76596719360358,-77.0625
1772909833.7063735,102.77778296752147,1.862249573082037,-9.050273531697039,-0.10998343399286849,-1.64847843544868,9.747607514765248,-0.003444590737819281,-0.018512928181932623,0.17235126363444003,-21.186551648336756,60.76190365271943,-75.875
1772909833.7350872,103.17592250486854,1.8851079769944636,-9.054919719095466,-0.12858696925506172,-1.6585324641519923,9.728337157558167,-0.008807323739689727,-0.00864521592776329,0.1810779098944117,-21.186551648336756,60.76190365271943,-75.875
1772909833.7561624,103.35533084600658,1.89255207937188,-9.037731081027399,-0.13074609365106127,-1.6452467125834662,9.755654290588682,-0.004586033158262106,-0.023956715089766285,0.1559888018969932,-21.186551648336756,60.76190365271943,-75.875
1772909833.779839,103.35533084600658,1.89255207937188,-9.037731081027399,-0.13074609365106127,-1.6452467125834662,9.755654290588682,-0.004586033158262106,-0.023956715089766285,0.1559888018969932,-21.186551648336756,60.76190365271943,-75.875
1772909833.799462,103.5876884817799,1.9237773006027505,-9.017077398841863,-0.13236938507841842,-1.656474997816312,9.890912447224299,-0.009928502683641746,-0.011907435377165326,0.10253809355466686,-18.930263138448385,61.428475786959766,-75.875
1772909833.8141644,103.5876884817799,1.9237773006027505,-9.017077398841863,-0.13236938507841842,-1.656474997816312,9.890912447224299,-0.009928502683641746,-0.011907435377165326,0.10253809355466686,-18.930263138448385,61.428475786959766,-75.875
1772909833.8348205,103.66248729619886,1.9228395997524044,-9.001417089592916,-0.18427664252816492,-1.7337255662740148,9.980925239532692,0.026097755595216307,-0.008969431551616164,0.05781403147231216,-18.930263138448385,61.428475786959766,-75.875
1772909833.850794,103.72245422189066,1.9306740274712273,-8.985312661495126,-0.25933278802081206,-1.8249017290958458,9.823395486329392,0.002049854861241396,-0.01420045195629638,0.05126904677733343,-18.930263138448385,61.428475786959766,-75.875
1772909833.8634467,103.72245422189066,1.9306740274712273,-8.985312661495126,-0.25933278802081206,-1.8249017290958458,9.823395486329392,0.002049854861241396,-0.01420045195629638,0.05126904677733343,-18.930263138448385,61.428475786959766,-75.875
1772909833.881174,103.7480582836944,1.9302495755812672,-8.965453124138884,-0.30928181441408714,-1.8855784469493007,9.718561195295242,0.009776526609960711,-0.004454320561071875,0.0272707695624114,-20.117711915314917,61.43950539793103,-75.875
1772909833.9053833,103.82808010196396,1.9279157299582488,-8.975116843367157,-0.287231881393496,-1.73579209758337,9.775909390565916,-0.001192101111669837,-0.010897705553912732,0.05126904677733343,-20.117711915314917,61.43950539793103,-75.875
1772909833.9208214,103.87221779198794,1.933853862836134,-8.993890172596592,-0.2591780276220967,-1.6362352341440463,9.814073973897232,-0.019654370602375446,-0.0019991961700143845,0.04363323129985824,-20.117711915314917,61.43950539793103,-75.875
1772909833.9342892,103.87221779198794,1.933853862836134,-8.993890172596592,-0.2591780276220967,-1.6362352341440463,9.814073973897232,-0.019654370602375446,-0.0019991961700143845,0.04363323129985824,-20.117711915314917,61.43950539793103,-75.875
1772909833.9524598,103.99261949113624,1.934809479114699,-9.003250207054618,-0.2177772630371627,-1.6437880247496448,9.862887859729128,0.002080250075977603,-0.01092810076864894,0.07417649320975901,-18.180295489901102,61.42150971687265,-74.6875
1772909833.966244,104.03101928506402,1.9475860512421943,-9.000958225837083,-0.19691545151277579,-1.648752183107198,9.938859407658573,-0.002181567458431627,2.026347649080473e-05,0.02181661564992912,-18.180295489901102,61.42150971687265,-74.6875
1772909833.9801147,104.05608265553357,1.9465570539956434,-9.015970047146448,-0.18303214898500061,-1.6520557750408675,9.989417624147823,0.005433655169588263,-0.0022322261496586387,0.032724923474893676,-18.180295489901102,61.42150971687265,-74.6875
1772909833.9948826,104.05608265553357,1.9465570539956434,-9.015970047146448,-0.18303214898500061,-1.6520557750408675,9.989417624147823,0.005433655169588263,-0.0022322261496586387,0.032724923474893676,-18.180295489901102,61.42150971687265,-74.6875
1772909834.0092206,104.11679247709941,1.9415395876813308,-9.01637238124058,-0.1735444085583248,-1.6274945392490108,9.83239218513193,-0.00011144912069942601,-0.011998621021373947,0.050178215994836975,-20.436583999789473,60.754937582632316,-74.25
1772909834.02227,104.18678218636065,1.9427867879431688,-9.020782414176384,-0.12040087947907266,-1.6115842871384227,9.727893509555939,-0.012180992309791189,-0.019522658005185215,0.07635815477475191,-20.436583999789473,60.754937582632316,-74.25
1772909834.041537,104.37042989745103,1.962840484868615,-9.021980500397772,-0.08456840887689969,-1.5508216808626616,9.65835080828681,-0.021876465013788683,-0.006342067610386834,0.11562806294462433,-20.436583999789473,60.754937582632316,-74.25
1772909834.068422,104.37042989745103,1.962840484868615,-9.021980500397772,-0.08456840887689969,-1.5508216808626616,9.65835080828681,-0.021876465013788683,-0.006342067610386834,0.11562806294462433,-20.436583999789473,60.754937582632316,-74.25
1772909834.0959466,104.70486294957482,1.9751213362303643,-9.023114924155507,-0.07410216962616437,-1.510260566308383,9.602035582313121,-0.0198874005820197,-0.027087221941978094,0.13744467859455345,-18.6137130773362,61.86305438607605,-73.875
1772909834.1187785,104.91835718656523,1.9918857660399039,-9.019113653629258,-0.06716807403048962,-1.4866125650848703,9.564558428509924,-0.00010131738245402364,-0.010907837292158135,0.18980455615438332,-18.6137130773362,61.86305438607605,-73.875
1772909834.1355557,104.91835718656523,1.9918857660399039,-9.019113653629258,-0.06716807403048962,-1.4866125650848703,9.564558428509924,-0.00010131738245402364,-0.010907837292158135,0.18980455615438332,-18.6137130773362,61.86305438607605,-73.875
1772909834.1517568,105.29400141442245,2.0005270171524887,-9.005752050371347,-0.06949200338162709,-1.4975726843360058,9.539617801301135,-0.004464452299317277,-0.010867310339176525,0.24434609527920614,-18.6137130773362,61.86305438607605,-73.875
1772909834.1698186,105.69967239298384,1.9987345579430749,-9.008212110854089,-0.07103855240481725,-1.5048665212650825,9.599957661767094,-0.004555637943525899,-0.020684363902118846,0.24434609527920614,-18.932585161810756,61.17848657077734,-73.0625
1772909834.1891253,105.69967239298384,1.9987345579430749,-9.008212110854089,-0.07103855240481725,-1.5048665212650825,9.599957661767094,-0.004555637943525899,-0.020684363902118846,0.24434609527920614,-18.932585161810756,61.17848657077734,-73.0625
1772909834.2107084,105.95037648557245,2.0045209911578548,-9.011130855499404,-0.07928588340603057,-1.5665227948989822,9.640113164866783,-0.009928502683641746,-0.011907435377165326,0.21925698728178766,-18.932585161810756,61.17848657077734,-73.0625
1772909834.2284646,106.18545583737962,2.0104825188546442,-9.023841119998218,-0.10515489165011017,-1.6408176121460356,9.666836203613265,-0.012170860571545787,-0.018431874275969404,0.20725784867432664,-18.932585161810756,61.17848657077734,-73.0625
1772909834.2440872,106.52665344410924,2.0052426514774124,-9.037526740417428,-0.12221507911010579,-1.673535146021353,9.681274975675827,-0.0023639387468488695,-0.019613843649393836,0.20943951023931956,-18.193066618394145,60.046569027869296,-72.6875
1772909834.2583215,106.76229577573598,2.0083844465097247,-9.030695144463502,-0.13356844328995193,-1.695308299336576,9.694228928899129,-0.002353807008603467,-0.018523059920178025,0.21380283336930536,-18.193066618394145,60.046569027869296,-72.6875
1772909834.2826445,106.76229577573598,2.0083844465097247,-9.030695144463502,-0.13356844328995193,-1.695308299336576,9.694228928899129,-0.002353807008603467,-0.018523059920178025,0.21380283336930536,-18.193066618394145,60.046569027869296,-72.6875
1772909834.30054,106.99380539819788,2.011271622481038,-9.024367123101953,-0.14059579525393032,-1.6529336435904283,9.716230086893376,-0.005605894719760102,-0.016311097247010187,0.20725784867432664,-18.193066618394145,60.046569027869296,-72.6875
1772909834.3308122,107.34457242267841,2.0135774028276847,-9.01678162410552,-0.14192745207027122,-1.624764853257424,9.740906946891466,-0.008857982430916738,-0.014099134573842357,0.20398535632683726,-18.193066618394145,60.046569027869296,-72.25
1772909834.3531668,107.69708244928458,2.012036510235708,-9.015568847476331,-0.14312435190733022,-1.6394685121070325,9.757329121561607,-0.016432678105955015,-0.007483510030829659,0.21380283336930536,-18.193066618394145,60.046569027869296,-72.25
1772909834.3693776,107.94267898539793,2.011719847789539,-9.014050652849196,-0.13060314513883187,-1.6560678464914054,9.768257895356875,0.0009185441790439733,-0.018553455134914233,0.22252947962927702,-18.193066618394145,60.046569027869296,-72.25
1772909834.3900626,108.31074496566276,2.0048930513254906,-9.033844184544892,-0.1222082824851675,-1.6604245832674471,9.772185760527904,-0.004525242728789691,-0.017412012714471407,0.2181661564992912,-16.682682216168907,61.157588360515994,-71.0625
1772909834.4062767,108.43172008918272,2.0005829831041626,-9.039024740119647,-0.12002870200120906,-1.6699828080438714,9.774799710922094,-0.004596164896507509,-0.0250474988189821,0.2203478180642841,-16.682682216168907,61.157588360515994,-71.0625
1772909834.419276,108.43172008918272,2.0005829831041626,-9.039024740119647,-0.12002870200120906,-1.6699828080438714,9.774799710922094,-0.004596164896507509,-0.0250474988189821,0.2203478180642841,-16.682682216168907,61.157588360515994,-71.0625
1772909834.4356205,108.6739660321995,1.9903645236083929,-9.039684064223906,-0.1318959457764579,-1.6695294861896253,9.776539265709689,0.013997817191388333,-0.01976581972307487,0.21271200258680892,-16.682682216168907,61.157588360515994,-71.0625
1772909834.455557,109.0068821502832,1.9826628907157349,-9.069995850443767,-0.1400109519140428,-1.6926425774647136,9.774351808281413,-0.00022289824139885202,-0.023997242042747894,0.19853120241435498,-15.624291588277737,60.710238632906666,-70.6875
1772909834.4828672,109.21255762689941,1.993217572358382,-9.06237234420939,-0.1481660407704746,-1.6444386309225882,9.732754739310565,0.0009185441790439733,-0.018553455134914233,0.1832595714594046,-15.624291588277737,60.710238632906666,-70.6875
1772909834.5066357,109.50455434869905,1.9927624679954545,-9.066342751369229,-0.15721775611236913,-1.6424330799972282,9.705072354580171,-0.01541281654445702,-0.015129127873585755,0.1832595714594046,-15.624291588277737,60.710238632906666,-70.6875
1772909834.526921,109.50455434869905,1.9927624679954545,-9.066342751369229,-0.15721775611236913,-1.6424330799972282,9.705072354580171,-0.01541281654445702,-0.015129127873585755,0.1832595714594046,-15.624291588277737,60.710238632906666,-70.6875
1772909834.544159,109.82897473349854,1.9776997786955985,-9.058161176758697,-0.15955483733159048,-1.6043348364047703,9.726791377262426,-0.0023031483173764555,-0.013069141274098958,0.19962203319685143,-15.182746919074338,61.14365622034177,-69.0625
1772909834.5579786,110.0440475630095,1.990662981803441,-9.0598717868318,-0.16479687300259824,-1.6157444527343585,9.757970702776683,-0.004444188822826473,-0.008685742880744899,0.19525871006686563,-15.182746919074338,61.14365622034177,-69.0625
1772909834.5724592,110.24447907797462,2.0163481036045496,-9.054867508271235,-0.17150607775875415,-1.6099264855777107,9.761994637073938,-0.008756665048462715,-0.0031912972816842216,0.17998707911191522,-15.182746919074338,61.14365622034177,-69.0625
1772909834.5902483,110.24447907797462,2.0163481036045496,-9.054867508271235,-0.17150607775875415,-1.6099264855777107,9.761994637073938,-0.008756665048462715,-0.0031912972816842216,0.17998707911191522,-15.182746919074338,61.14365622034177,-69.0625
1772909834.6066072,110.42447490143094,2.0305350400798674,-9.051447396236025,-0.196351480168744,-1.639317949315311,9.781398078935066,-0.002282884840885651,-0.01088757381566733,0.1538071403320003,-14.617949159301505,61.38842088395886,-69.25
1772909834.620839,110.59687202272342,2.0342346544341305,-9.075978434540842,-0.19266066489044884,-1.642339221294232,9.78762062932836,0.0010502567762342041,-0.004373266655108656,0.15707963267948966,-14.617949159301505,61.38842088395886,-69.25
1772909834.6344292,110.59687202272342,2.0342346544341305,-9.075978434540842,-0.19266066489044884,-1.642339221294232,9.78762062932836,0.0010502567762342041,-0.004373266655108656,0.15707963267948966,-14.617949159301505,61.38842088395886,-69.25
1772909834.66074,110.85985098748053,2.025592141834784,-9.102010874515125,-0.14343706416182023,-1.6514747548183395,9.791761667104655,0.005372864740115849,-0.00877692852495352,0.16035212502697901,-14.617949159301505,61.38842088395886,-69.25
1772909834.678838,110.85985098748053,2.025592141834784,-9.102010874515125,-0.14343706416182023,-1.6514747548183395,9.791761667104655,0.005372864740115849,-0.00877692852495352,0.16035212502697901,-14.617949159301505,61.38842088395886,-69.25
1772909834.7205212,111.19827165375445,2.023098562244413,-9.126800520432642,-0.11061716832029357,-1.6508644154979937,9.794517481486357,0.0010299932997433993,-0.006554834113540284,0.15271630954950383,-13.805484206708615,61.38087430803115,-68.75
1772909834.7424872,111.5732196123928,2.0081992108220126,-9.123672826047812,-0.08846519715865078,-1.617008567348023,9.766245439807042,-0.003414195523083074,-0.01524057699428518,0.13526301702956053,-13.805484206708615,61.38087430803115,-68.75
1772909834.760638,111.74253847727928,1.9828058849416625,-9.128518931026413,-0.07372330780430925,-1.5944778785988218,9.77753671725473,-0.004484715775808082,-0.013048877797608152,0.15926129424448257,-13.805484206708615,61.38087430803115,-68.75
1772909834.781532,112.02624068627499,1.9703317971428065,-9.09993256933174,-0.06363311772546025,-1.549379250185317,9.778360712849693,-0.00012158085894482839,-0.013089404750589763,0.17016960206944712,-13.418890265623117,62.62733735389973,-68.0
1772909834.8177247,112.21755462697698,1.9894620042951092,-9.09097287012202,-0.09349536253707812,-1.4956100780441641,9.795634631250104,-9.118564420862128e-05,-0.00981705356294232,0.09708393964218458,-13.418890265623117,62.62733735389973,-68.0
1772909834.8453104,112.21755462697698,1.9894620042951092,-9.09097287012202,-0.09349536253707812,-1.4956100780441641,9.795634631250104,-9.118564420862128e-05,-0.00981705356294232,0.09708393964218458,-13.418890265623117,62.62733735389973,-68.0
1772909834.8673918,112.35886989208902,1.9949315608764477,-9.109934355787741,-0.11336835287607795,-1.4598272946252355,9.79040467244667,-0.017543725311661637,-0.009654945751015883,0.08290313946973066,-13.418890265623117,62.62733735389973,-68.0
1772909834.8897183,112.59943304908788,2.029673931626553,-9.107678890042372,-0.08057187460408037,-1.5234183807122972,9.74009262938298,-0.013059009535853556,0.003393932046592269,0.11017390903214205,-12.613971888957934,61.80732582537914,-66.0625
1772909834.9106696,112.59943304908788,2.029673931626553,-9.107678890042372,-0.08057187460408037,-1.5234183807122972,9.74009262938298,-0.013059009535853556,0.003393932046592269,0.11017390903214205,-12.613971888957934,61.80732582537914,-66.0625
1772909834.9320912,112.7815061324206,2.0403600545410683,-9.110499467513195,-0.058746184674733276,-1.5657375381442602,9.706610526746442,-0.00331287814062905,-0.004332739702127047,0.09926560120717749,-12.613971888957934,61.80732582537914,-66.0625
1772909834.9631426,112.95829186253182,2.044698464388764,-9.109252330844566,-0.06407374835485896,-1.5702992745132967,9.707744343412655,-0.00331287814062905,-0.004332739702127047,0.07963064712224129,-12.985472678188017,62.18579268469634,-67.25
1772909834.9899805,112.95829186253182,2.044698464388764,-9.109252330844566,-0.06407374835485896,-1.5702992745132967,9.707744343412655,-0.00331287814062905,-0.004332739702127047,0.07963064712224129,-12.985472678188017,62.18579268469634,-67.25
1772909835.0068517,113.17791426989173,2.023342380540232,-9.113426786215095,-0.10741702463995569,-1.5361675810220785,9.708498885738457,-8.105390596321893e-05,-0.008726269833726508,0.10035643198967395,-12.985472678188017,62.18579268469634,-67.25
1772909835.0302784,113.37025182031314,2.0233546786770713,-9.133393304404771,-0.12288162117147988,-1.5135775991202176,9.709001025227488,0.00968534096575209,-0.014271374124014196,0.11344640137963143,-12.618035429842083,61.36984469705989,-66.0625
1772909835.044388,113.53957405856903,1.9980552823816489,-9.138614652822682,-0.14695691330420896,-1.541904516065898,9.766202092472602,-0.0012326280646514467,-0.015260840470775985,0.10362892433716332,-12.618035429842083,61.36984469705989,-66.0625
1772909835.0684266,113.53957405856903,1.9980552823816489,-9.138614652822682,-0.14695691330420896,-1.541904516065898,9.766202092472602,-0.0012326280646514467,-0.015260840470775985,0.10362892433716332,-12.618035429842083,61.36984469705989,-66.0625
1772909835.08511,113.64089720003956,1.996422853219363,-9.13880366284241,-0.1830796254801724,-1.5639143120150547,9.804268763746437,-0.003414195523083074,-0.01524057699428518,0.09053895494720585,-12.618035429842083,61.36984469705989,-66.0625
1772909835.104286,113.80968055624241,1.9769966814729563,-9.147913724666322,-0.2071188869161415,-1.578561585353688,9.78946036775876,-0.007777330439946327,-0.015200050041303571,0.10253809355466686,-12.624420994088604,60.68237435255821,-65.6875
1772909835.1209598,113.80968055624241,1.9769966814729563,-9.147913724666322,-0.2071188869161415,-1.578561585353688,9.78946036775876,-0.007777330439946327,-0.015200050041303571,0.10253809355466686,-12.624420994088604,60.68237435255821,-65.6875
1772909835.1397293,113.92291670130729,1.9726597390388712,-9.154386612607174,-0.22293032860481413,-1.568239377649654,9.756189763698348,-0.003363536831856062,-0.009786658348206113,0.09599310885968812,-12.624420994088604,60.68237435255821,-65.6875
1772909835.1596284,114.06435137726575,1.9801768960037542,-9.157779185624928,-0.23010769900822733,-1.5614011334393711,9.734048548353144,-0.005504577337306079,-0.005403259954852055,0.08726646259971647,-12.624420994088604,60.68237435255821,-65.6875
1772909835.1733656,114.16566775642568,1.978562568985134,-9.157991153802165,-0.23488415883521804,-1.556850358305621,9.72600404028913,-0.0034040637848376716,-0.014149793265069368,0.09272061651219876,-12.630806558335125,59.99490400805654,-66.5
1772909835.2041426,114.25807903325187,1.9665827858638634,-9.160645781210482,-0.23818711833407422,-1.5672017379496863,9.723995621742892,-0.008827587216180531,-0.010826783386194916,0.07417649320975901,-12.630806558335125,59.99490400805654,-66.5
1772909835.2240703,114.25807903325187,1.9665827858638634,-9.160645781210482,-0.23818711833407422,-1.5672017379496863,9.723995621742892,-0.008827587216180531,-0.010826783386194916,0.07417649320975901,-12.630806558335125,59.99490400805654,-66.5
1772909835.2578876,114.41595137065981,1.9620032982771567,-9.171879125067507,-0.23069206555052466,-1.6109783161659732,9.722659041635875,-0.0033230098788744524,-0.00542352343134286,0.0719948316447661,-12.630806558335125,59.99490400805654,-66.5
