timestamp,yaw,pitch,roll,ax,ay,az,gx,gy,gz,mx,my,mz
1772912547.2026372,0.0,0.0,0.0,-0.07063863337323989,-1.503971564769245,9.652670979689194,0.0,0.0,0.0,-5.6875,59.1875,-28.75
1772912547.2176464,0.0,0.0,0.0,-0.06707989166856954,-1.509333255403286,9.675193289097596,-0.001090830782496456,0.003272492347489368,0.0,-5.6875,59.1875,-28.75
1772912547.228514,0.0,0.0,0.0,-0.06471158881786104,-1.5129014006262314,9.690181634418206,0.001090830782496456,0.001090830782496456,-0.001090830782496456,-5.6875,59.1875,-28.75
1772912547.23985,0.0,0.0,0.0,-0.06471158881786104,-1.5129014006262314,9.690181634418206,0.001090830782496456,0.001090830782496456,-0.001090830782496456,-5.6875,59.1875,-28.75
1772912547.25085,0.0,0.0,0.0,-0.06471158881786104,-1.5129014006262314,9.690181634418206,0.001090830782496456,0.001090830782496456,-0.001090830782496456,-5.6875,59.1875,-28.75
1772912547.2623734,-0.03529610914699535,0.45323473582942453,-8.905459200789608,-0.06648062143371022,-1.5152759614133078,9.720226881042201,0.0,-0.001090830782496456,0.001090830782496456,-5.6875,59.1875,-28.75
1772912547.2765353,-0.03529610914699535,0.45323473582942453,-8.905459200789608,-0.06648062143371022,-1.5152759614133078,9.720226881042201,0.0,-0.001090830782496456,0.001090830782496456,-5.6875,59.1875,-28.75
1772912547.2887077,-0.03529610914699535,0.45323473582942453,-8.905459200789608,-0.0710030045854881,-1.516856205091525,9.740221657043074,-0.001090830782496456,0.001090830782496456,-0.001090830782496456,-5.6875,59.1875,-28.75
1772912547.3052025,-0.03529610914699535,0.45323473582942453,-8.905459200789608,-0.0710030045854881,-1.516856205091525,9.740221657043074,-0.001090830782496456,0.001090830782496456,-0.001090830782496456,-5.6875,59.1875,-28.75
1772912547.3185089,-0.03529610914699535,0.45323473582942453,-8.905459200789608,-0.0710030045854881,-1.516856205091525,9.740221657043074,-0.001090830782496456,0.001090830782496456,-0.001090830782496456,-5.6875,59.1875,-28.75
1772912547.3438518,-0.03529610914699535,0.45323473582942453,-8.905459200789608,-0.07066748834734697,-1.5179078396069001,9.753527957115372,-0.001090830782496456,0.002181661564992912,-0.001090830782496456,-5.6875,59.6875,-28.75
1772912547.3571627,-0.03529610914699535,0.45323473582942453,-8.905459200789608,-0.07378931774614539,-1.5186076906293549,9.762383151172374,0.001090830782496456,0.004363323129985824,0.0,-5.6875,59.6875,-28.75
1772912547.3687444,-0.03529610914699535,0.45323473582942453,-8.905459200789608,-0.07378931774614539,-1.5186076906293549,9.762383151172374,0.001090830782496456,0.004363323129985824,0.0,-5.6875,59.6875,-28.75
1772912547.380468,-0.03529610914699535,0.45323473582942453,-8.905459200789608,-0.07586686033792636,-1.5190734336669505,9.77162129560563,0.0,0.002181661564992912,-0.001090830782496456,-5.6875,59.6875,-28.75
1772912547.3951879,-0.03529610914699535,0.45323473582942453,-8.905459200789608,-0.07586686033792636,-1.5190734336669505,9.77162129560563,0.0,0.002181661564992912,-0.001090830782496456,-5.6875,59.6875,-28.75
1772912547.4133134,-0.035268360640527054,0.45323473582942453,-8.89840220971753,-0.07724944172508522,-1.5160382687484604,9.771078954114488,0.0,0.002181661564992912,-0.001090830782496456,-5.6875,60.375,-27.5625
1772912547.4282987,-0.035268360640527054,0.45323473582942453,-8.89840220971753,-0.07724944172508522,-1.5160382687484604,9.771078954114488,0.0,0.002181661564992912,-0.001090830782496456,-5.6875,60.375,-27.5625
1772912547.4470513,-6.1626037370008575,0.45427423784165355,-8.900697847123991,-0.07816953419379338,-1.5140184004002188,9.777408255325124,0.0,0.001090830782496456,0.0,-5.6875,60.375,-27.5625
1772912547.4616206,-6.1626037370008575,0.45427423784165355,-8.900697847123991,-0.07816953419379338,-1.5140184004002188,9.777408255325124,0.0,0.001090830782496456,0.0,-5.6875,60.375,-27.5625
1772912547.4893422,-6.1626037370008575,0.45427423784165355,-8.900697847123991,-0.07209162203897357,-1.5160193122851913,9.784965446285193,0.002181661564992912,0.002181661564992912,0.0,-5.6875,60.0,-28.0
1772912547.5156105,-6.1626037370008575,0.45427423784165355,-8.900697847123991,-0.0713919511019878,-1.5206960085003096,9.789994672449765,0.0,0.0,0.0,-5.6875,60.0,-28.0
1772912547.532066,-6.1626037370008575,0.45427423784165355,-8.900697847123991,-0.0713919511019878,-1.5206960085003096,9.789994672449765,0.0,0.0,0.0,-5.6875,60.0,-28.0
1772912547.554823,-6.1626037370008575,0.45427423784165355,-8.900697847123991,-0.07092632790926025,-1.5204631858820317,9.793341566282152,0.0,-0.002181661564992912,0.002181661564992912,-5.6875,60.75,-27.5625
1772912547.577117,-6.155600834454939,0.45481469356703125,-8.900641753091342,-0.07061646087585194,-1.5203082450303667,9.79556888674035,-0.001090830782496456,0.0,0.002181661564992912,-5.6875,60.75,-27.5625
1772912547.5991888,-6.155600834454939,0.45481469356703125,-8.900641753091342,-0.07041024782656027,-1.5202051336243865,9.797051143624481,-0.001090830782496456,0.001090830782496456,-0.001090830782496456,-5.6875,60.75,-27.5625
1772912547.6214287,-6.155600834454939,0.45481469356703125,-8.900641753091342,-0.07041024782656027,-1.5202051336243865,9.797051143624481,-0.001090830782496456,0.001090830782496456,-0.001090830782496456,-5.6875,60.75,-27.5625
1772912547.6412756,-6.155600834454939,0.45481469356703125,-8.900641753091342,-0.07027301534580736,-1.5201365141355365,9.791347345608337,0.001090830782496456,0.0,-0.001090830782496456,-5.375,60.0,-27.0625
1772912547.6679795,-6.155600834454939,0.45481469356703125,-8.900641753091342,-0.07018168866285356,-1.5234359603395562,9.784206420036872,0.0,0.001090830782496456,-0.001090830782496456,-5.375,60.0,-27.0625
1772912547.7186706,-6.190616249023214,0.45211241534386715,-8.900922223082581,-0.07346602348285308,-1.5256317049311021,9.779454213838429,0.0,0.001090830782496456,0.001090830782496456,-6.0625,60.75,-26.375
1772912547.755989,-6.190616249023214,0.45211241534386715,-8.900922223082581,-0.07230659990981951,-1.5270929484287017,9.776291673698985,0.0,0.0,0.001090830782496456,-6.0625,60.75,-26.375
1772912547.7817636,-6.190616249023214,0.45211241534386715,-8.900922223082581,-0.07230659990981951,-1.5270929484287017,9.776291673698985,0.0,0.0,0.001090830782496456,-6.0625,60.75,-26.375
1772912547.8145313,-6.183612985537858,0.4526528709078513,-8.900866129118736,-0.07488012818089498,-1.5247202779458755,9.774187038564074,-0.001090830782496456,0.001090830782496456,0.001090830782496456,-5.6875,60.75,-28.0
1772912547.8455,-6.183612985537858,0.4526528709078513,-8.900866129118736,-0.07324767078978188,-1.5231412922440206,9.772786427392106,-0.002181661564992912,-0.002181661564992912,0.0,-5.6875,60.75,-28.0
1772912547.8632874,-6.183612985537858,0.4526528709078513,-8.900866129118736,-0.07324767078978188,-1.5231412922440206,9.772786427392106,-0.002181661564992912,-0.002181661564992912,0.0,-5.6875,60.75,-28.0
1772912547.8941865,-6.212176198688117,0.45745421843849166,-8.901479289256983,-0.07216128863174003,-1.5220904948978622,9.775199448010332,0.0,0.002181661564992912,0.0,-6.5,61.0625,-28.0
1772912547.9187794,-6.212176198688117,0.45745421843849166,-8.901479289256983,-0.07216128863174003,-1.5220904948978622,9.775199448010332,0.0,0.002181661564992912,0.0,-6.5,61.0625,-28.0
1772912547.9334936,-6.233187369534406,0.45583285078997554,-8.901648836146377,-0.07143831344124704,-1.5180460892948497,9.776805286276556,0.0,0.0,-0.001090830782496456,-6.5,61.0625,-28.0
1772912547.9488187,-6.233187369534406,0.45583285078997554,-8.901648836146377,-0.07095718152813602,-1.5153545825450159,9.777873953704338,0.0,0.001090830782496456,-0.001090830782496456,-6.5,60.75,-28.25
1772912547.9662979,-6.233187369534406,0.45583285078997554,-8.901648836146377,-0.06729188190723687,-1.5135634148691017,9.77858513993973,0.0,0.003272492347489368,-0.001090830782496456,-6.5,60.75,-28.25
1772912547.986915,-6.233187369534406,0.45583285078997554,-8.901648836146377,-0.06485266595360802,-1.5157165244967543,9.779058426434913,0.0,0.001090830782496456,0.001090830782496456,-6.5,60.75,-28.25
1772912548.0221107,-6.205172656783485,0.4579946744026732,-8.901422773592262,-0.06322939498429558,-1.5171493949021466,9.7793733933105,0.0,0.0,-0.001090830782496456,-6.0625,60.0,-28.0
1772912548.0357323,-6.205172656783485,0.4579946744026732,-8.901422773592262,-0.06322939498429558,-1.5171493949021466,9.7793733933105,0.0,0.0,-0.001090830782496456,-6.0625,60.0,-28.0
1772912548.0557466,-6.205172656783485,0.4579946744026732,-8.901422773592262,-0.0654942379946624,-1.518102954150724,9.782928111955114,0.0,0.001090830782496456,0.0,-6.0625,60.0,-28.0
1772912548.0710292,-6.205172656783485,0.4579946744026732,-8.901422773592262,-0.07034657742542676,-1.5187375371786975,9.775258402382336,0.0,-0.001090830782496456,0.001090830782496456,-6.0625,60.0,-28.0
1772912548.0910313,-6.205172656783485,0.4579946744026732,-8.901422773592262,-0.07034657742542676,-1.5187375371786975,9.775258402382336,0.0,-0.001090830782496456,0.001090830782496456,-6.0625,60.0,-28.0
1772912548.104788,-6.205172656783485,0.4579946744026732,-8.901422773592262,-0.07023064340509799,-1.519159845095057,9.770154296337921,-0.001090830782496456,-0.001090830782496456,-0.001090830782496456,-5.6875,60.75,-26.75
1772912548.1204882,-6.205172656783485,0.4579946744026732,-8.901422773592262,-0.07023064340509799,-1.519159845095057,9.770154296337921,-0.001090830782496456,-0.001090830782496456,-0.001090830782496456,-5.6875,60.75,-26.75
1772912548.1346936,-6.1626037370008575,0.45427423784165355,-8.900697847123991,-0.07015349060963706,-1.5194408862959057,9.766757570781964,-0.001090830782496456,-0.002181661564992912,0.0,-5.6875,60.75,-26.75
1772912548.1479611,-6.1626037370008575,0.45427423784165355,-8.900697847123991,-0.07015349060963706,-1.5194408862959057,9.766757570781964,-0.001090830782496456,-0.002181661564992912,0.0,-5.6875,60.75,-26.75
1772912548.164492,-6.1626037370008575,0.45427423784165355,-8.900697847123991,-0.07010214628611101,-1.5196279160756345,9.761151976161067,0.0,-0.001090830782496456,0.0,-5.6875,60.75,-26.75
1772912548.1803052,-6.1626037370008575,0.45427423784165355,-8.900697847123991,-0.0700679772123581,-1.523097494012104,9.757421515559454,0.001090830782496456,-0.002181661564992912,-0.001090830782496456,-5.375,60.0,-27.5625
1772912548.1978006,-6.1626037370008575,0.45427423784165355,-8.900697847123991,-0.0700679772123581,-1.523097494012104,9.757421515559454,0.001090830782496456,-0.002181661564992912,-0.001090830782496456,-5.375,60.0,-27.5625
1772912548.2102842,-6.1626037370008575,0.45427423784165355,-8.900697847123991,-0.0700452380754691,-1.5254064593710994,9.751593823993737,0.0,-0.001090830782496456,0.0,-5.375,60.0,-27.5625
1772912548.2228868,-6.1626037370008575,0.45427423784165355,-8.900697847123991,-0.0700452380754691,-1.5254064593710994,9.751593823993737,0.0,-0.001090830782496456,0.0,-5.375,60.0,-27.5625
1772912548.2352657,-6.183612985537858,0.4526528709078513,-8.900866129118736,-0.06668499372656289,-1.5269430500246777,9.75440578377097,0.001090830782496456,0.0,0.0,-5.375,60.0,-27.5625
1772912548.2483997,-6.183612985537858,0.4526528709078513,-8.900866129118736,-0.06444878864875467,-1.5246205222324722,9.75627711159107,0.0,0.0,-0.001090830782496456,-6.5,60.75,-28.25
1772912548.2625833,-6.183612985537858,0.4526528709078513,-8.900866129118736,-0.06444878864875467,-1.5246205222324722,9.75627711159107,0.0,0.0,-0.001090830782496456,-6.5,60.75,-28.25
1772912548.2765737,-6.183612985537858,0.4526528709078513,-8.900866129118736,-0.06965084256415956,-1.523074905931095,9.764212682765883,-0.002181661564992912,0.0,0.0,-6.5,60.75,-28.25
1772912548.3036954,-6.183612985537858,0.4526528709078513,-8.900866129118736,-0.07311275133411169,-1.5220463155481938,9.762803493321945,0.0,0.0,0.0,-6.5,60.75,-28.25
1772912548.321687,-4.328102084277265,12.812861446430837,149.09484397265416,-0.0687263895338212,-1.5213618001384805,9.761865693488682,0.0,0.0,0.0,-5.375,60.375,-27.0625
1772912548.3494039,-4.328102084277265,12.812861446430837,149.09484397265416,-0.0687263895338212,-1.5213618001384805,9.761865693488682,0.0,0.0,0.0,-5.375,60.375,-27.0625
1772912548.3651667,-6.183612985537858,0.4526528709078513,-8.900866129118736,-0.06580731475459974,-1.524251374487174,9.757896486468237,0.0,0.001090830782496456,0.001090830782496456,-5.375,60.375,-27.0625
1772912548.3915906,-6.183612985537858,0.4526528709078513,-8.900866129118736,-0.06580731475459974,-1.524251374487174,9.757896486468237,0.0,0.001090830782496456,0.001090830782496456,-5.375,60.375,-27.0625
1772912548.410589,-6.183612985537858,0.4526528709078513,-8.900866129118736,-0.0672098148045491,-1.526174353937569,9.758600135242398,-0.001090830782496456,-0.001090830782496456,0.0,-6.5,59.6875,-27.0625
1772912548.430014,-6.183612985537858,0.4526528709078513,-8.900866129118736,-0.07148827462815768,-1.5274540752807189,9.75906840564133,0.001090830782496456,0.002181661564992912,-0.002181661564992912,-6.5,59.6875,-27.0625
1772912548.4473083,-6.183612985537858,0.4526528709078513,-8.900866129118736,-0.07099043013992201,-1.528305715539161,9.762725146068215,-0.002181661564992912,0.001090830782496456,0.0,-6.5,59.6875,-27.0625
1772912548.4636698,-6.183612985537858,0.4526528709078513,-8.900866129118736,-0.07099043013992201,-1.528305715539161,9.762725146068215,-0.002181661564992912,0.001090830782496456,0.0,-6.5,59.6875,-27.0625
1772912548.4820805,-6.183612985537858,0.4526528709078513,-8.900866129118736,-0.07065912019428851,-1.5288724726177092,9.76515866597384,0.001090830782496456,0.0,-0.001090830782496456,-5.6875,61.1875,-28.0
1772912548.4948006,-6.183612985537858,0.4526528709078513,-8.900866129118736,-0.07043863712644399,-1.5259045314150723,9.766778146286834,-0.001090830782496456,-0.002181661564992912,-0.001090830782496456,-5.6875,61.1875,-28.0
1772912548.5178914,-6.183612985537858,0.4526528709078513,-8.900866129118736,-0.07043863712644399,-1.5259045314150723,9.766778146286834,-0.001090830782496456,-0.002181661564992912,-0.001090830782496456,-5.6875,61.1875,-28.0
1772912548.534441,-6.183612985537858,0.4526528709078513,-8.900866129118736,-0.07029190810775073,-1.5272745114061124,9.767855892344352,-0.001090830782496456,-0.003272492347489368,0.003272492347489368,-5.6875,61.1875,-28.0
1772912548.553329,-6.183612985537858,0.4526528709078513,-8.900866129118736,-0.07019426158488089,-1.5281862177864702,9.761882896891779,-0.002181661564992912,-0.001090830782496456,-0.002181661564992912,-6.0625,61.1875,-28.75
1772912548.5751421,-6.183612985537858,0.4526528709078513,-8.900866129118736,-0.07347439062201352,-1.5287929481981708,9.757907935140823,0.001090830782496456,0.001090830782496456,-0.003272492347489368,-6.0625,61.1875,-28.75
1772912548.5930853,-6.183612985537858,0.4526528709078513,-8.900866129118736,-0.07347439062201352,-1.5287929481981708,9.757907935140823,0.001090830782496456,0.001090830782496456,-0.003272492347489368,-6.0625,61.1875,-28.75
1772912548.6395924,-6.183612985537858,0.4526528709078513,-8.900866129118736,-0.0756572798547831,-1.5291967205095347,9.765297977620753,0.0,-0.003272492347489368,0.0,-6.0625,61.1875,-28.75
1772912548.6626952,-6.183612985537858,0.4526528709078513,-8.900866129118736,-0.07710996825472077,-1.5261203147649958,9.770215968338961,-0.001090830782496456,0.002181661564992912,-0.001090830782496456,-5.6875,60.0,-27.5625
1772912548.6901705,-6.183612985537858,0.4526528709078513,-8.900866129118736,-0.07473160444996721,-1.524073001107709,9.766798612809735,0.0,-0.001090830782496456,0.0,-5.6875,60.0,-27.5625
1772912548.706709,-6.183612985537858,0.4526528709078513,-8.900866129118736,-0.07473160444996721,-1.524073001107709,9.766798612809735,0.0,-0.001090830782496456,0.0,-5.6875,60.0,-27.5625
1772912548.7351828,-6.183612985537858,0.4526528709078513,-8.900866129118736,-0.07314882990596823,-1.5227105367387768,9.764524400879397,0.0,-0.001090830782496456,0.0,-6.875,61.1875,-28.25
1772912548.7770572,-6.183612985537858,0.4526528709078513,-8.900866129118736,-0.07209551112768706,-1.5251489436282961,9.763010938244369,-0.001090830782496456,0.0,0.001090830782496456,-6.875,61.1875,-28.25
1772912548.7894728,-6.183612985537858,0.4526528709078513,-8.900866129118736,-0.07209551112768706,-1.5251489436282961,9.763010938244369,-0.001090830782496456,0.0,0.001090830782496456,-6.875,61.1875,-28.25
1772912548.8105688,-6.183612985537858,0.4526528709078513,-8.900866129118736,-0.07473965095440203,-1.5267716761744814,9.762003745767244,0.0,0.001090830782496456,-0.001090830782496456,-5.6875,60.75,-28.75
1772912548.8410676,-6.183612985537858,0.4526528709078513,-8.900866129118736,-0.07315418476478426,-1.5278515865568574,9.768023693839432,0.0,-0.002181661564992912,0.001090830782496456,-5.6875,60.75,-28.75
1772912548.8537447,-6.183612985537858,0.4526528709078513,-8.900866129118736,-0.07315418476478426,-1.5278515865568574,9.768023693839432,0.0,-0.002181661564992912,0.001090830782496456,-5.6875,60.75,-28.75
1772912548.8788328,-6.183612985537858,0.4526528709078513,-8.900866129118736,-0.07544418643373083,-1.5218800314383005,9.772029902034248,0.0,-0.002181661564992912,0.001090830782496456,-5.6875,60.75,-28.75
1772912548.901802,-6.183612985537858,0.4526528709078513,-8.900866129118736,-0.0736230452561006,-1.5179060282135424,9.76800576542098,0.0,-0.001090830782496456,-0.001090830782496456,-5.0,59.6875,-28.25
1772912548.9166365,-6.183612985537858,0.4526528709078513,-8.900866129118736,-0.0736230452561006,-1.5179060282135424,9.76800576542098,0.0,-0.001090830782496456,-0.001090830782496456,-5.0,59.6875,-28.25
1772912548.9367535,-6.183612985537858,0.4526528709078513,-8.900866129118736,-0.07241109614586759,-1.5152613734599907,9.765327747457404,-0.001090830782496456,0.0,-0.002181661564992912,-5.0,59.6875,-28.25
1772912548.9581354,-6.183612985537858,0.4526528709078513,-8.900866129118736,-0.07160455755136616,-1.5135013852642312,9.763545556418064,0.001090830782496456,-0.003272492347489368,0.001090830782496456,-5.0,59.6875,-28.25
1772912548.9803653,-6.183612985537858,0.4526528709078513,-8.900866129118736,-0.0710678151263519,-1.5156752444876291,9.76570463989708,-0.002181661564992912,0.001090830782496456,-0.001090830782496456,-6.0625,60.75,-27.1875
1772912549.0048425,-6.183612985537858,0.4526528709078513,-8.900866129118736,-0.07405573074563003,-1.5171219235172018,9.767141485833823,0.0,-0.001090830782496456,0.001090830782496456,-6.0625,60.75,-27.1875
1772912549.0355031,-6.183612985537858,0.4526528709078513,-8.900866129118736,-0.07405573074563003,-1.5171219235172018,9.767141485833823,0.0,-0.001090830782496456,0.001090830782496456,-6.0625,60.75,-27.1875
1772912549.0544908,-6.183612985537858,0.4526528709078513,-8.900866129118736,-0.0760441552130552,-1.5180846722509187,9.768097690754105,-0.001090830782496456,0.001090830782496456,0.0,-6.0625,60.75,-27.5625
1772912549.0689096,-6.183612985537858,0.4526528709078513,-8.900866129118736,-0.0760441552130552,-1.5180846722509187,9.768097690754105,-0.001090830782496456,0.001090830782496456,0.0,-6.0625,60.75,-27.5625
1772912549.0877001,-6.183612985537858,0.4526528709078513,-8.900866129118736,-0.07736742948396994,-1.5187253707785993,9.768734034447045,0.0,0.001090830782496456,-0.002181661564992912,-6.0625,60.75,-27.5625
1772912549.1027546,-6.183612985537858,0.4526528709078513,-8.900866129118736,-0.07824805372932153,-1.5191517484916992,9.76915751406627,0.0,0.004363323129985824,0.001090830782496456,-6.0625,60.75,-27.5625
1772912549.1298676,-6.183612985537858,0.4526528709078513,-8.900866129118736,-0.07824805372932153,-1.5191517484916992,9.76915751406627,0.0,0.004363323129985824,0.001090830782496456,-6.0625,60.75,-27.5625
1772912549.143701,-6.183612985537858,0.4526528709078513,-8.900866129118736,-0.07883409932738564,-1.5160903863894966,9.766094223314967,-0.002181661564992912,-0.002181661564992912,0.002181661564992912,-6.5,60.75,-28.25
1772912549.1570926,-6.183612985537858,0.4526528709078513,-8.900866129118736,-0.07883409932738564,-1.5160903863894966,9.766094223314967,-0.002181661564992912,-0.002181661564992912,0.002181661564992912,-6.5,60.75,-28.25
1772912549.1723661,-6.183612985537858,0.4526528709078513,-8.900866129118736,-0.07922410612633903,-1.520743307522775,9.764055637539176,-0.001090830782496456,0.0,0.0,-6.5,60.75,-28.25
1772912549.201456,-6.183612985537858,0.4526528709078513,-8.900866129118736,-0.07948365129438109,-1.5204946628531177,9.762698981477882,0.0,-0.001090830782496456,0.0,-4.25,60.0,-28.75
1772912549.227155,-6.183612985537858,0.4526528709078513,-8.900866129118736,-0.07965637570440359,-1.5203291926030038,9.758451030316612,0.0,-0.001090830782496456,0.001090830782496456,-4.25,60.0,-28.75
1772912549.2435234,-6.183612985537858,0.4526528709078513,-8.900866129118736,-0.07977132186981549,-1.5202190739999768,9.755624066271512,-0.001090830782496456,0.002181661564992912,0.001090830782496456,-4.25,60.0,-28.75
1772912549.2567284,-6.183612985537858,0.4526528709078513,-8.900866129118736,-0.07977132186981549,-1.5202190739999768,9.755624066271512,-0.001090830782496456,0.002181661564992912,0.001090830782496456,-4.25,60.0,-28.75
1772912549.272589,-6.183612985537858,0.4526528709078513,-8.900866129118736,-0.0798478172588643,-1.5201457912997676,9.753742753278754,-0.001090830782496456,0.0,0.0,-6.5,61.0625,-28.0
1772912549.2852874,-6.183612985537858,0.4526528709078513,-8.900866129118736,-0.0798478172588643,-1.5201457912997676,9.753742753278754,-0.001090830782496456,0.0,0.0,-6.5,61.0625,-28.0
1772912549.306734,-6.183612985537858,0.4526528709078513,-8.900866129118736,-0.07655361237844742,-1.5200970224813999,9.755835872205036,0.0,-0.001090830782496456,0.002181661564992912,-6.5,61.0625,-28.0
1772912549.3465455,-6.183612985537858,0.4526528709078513,-8.900866129118736,-0.07770646753652903,-1.5200645673775595,9.757228819468807,-0.001090830782496456,0.001090830782496456,0.0,-6.0625,60.375,-28.0
1772912549.374605,-6.183612985537858,0.4526528709078513,-8.900866129118736,-0.07512856805867703,-1.5166978571611816,9.758155810312607,0.0,0.001090830782496456,0.0,-6.0625,60.375,-28.0
1772912549.4031088,-6.183612985537858,0.4526528709078513,-8.900866129118736,-0.07675811646050994,-1.5211475725354382,9.758772712363989,0.0,0.0,0.0,-6.0625,60.375,-28.0
1772912549.4481478,-6.183612985537858,0.4526528709078513,-8.900866129118736,-0.07449745101136197,-1.5174185849957895,9.759183253787935,0.0,0.0,0.0,-6.0625,61.1875,-28.75
1772912549.476523,2.4968970060936633e-05,0.4526510395951636,-8.900830262885547,0.08800813476600203,-1.5209968569238872,9.759456464519523,-0.001201982979907807,0.0009669852677758899,0.0,-6.0625,61.1875,-28.75
1772912549.8183877,2.4968970060936633e-05,0.4526510395951636,-8.900830262885547,0.0971270991974447,-1.5188545191548315,9.759839804538244,0.0,0.0,0.0,-12.198096326091461,59.783915916150846,-28.0
1772912550.1733935,2.4968970060936633e-05,0.4526510395951636,-8.900830262885547,0.09633055824144636,-1.5172857266177129,9.759986084627766,-0.0009669852677758899,-0.001201982979907807,0.0,-12.245221645942822,60.218870458866405,-26.75
1772912550.2208211,2.4968970060936633e-05,0.4526510395951636,-8.900830262885547,0.0952354992270973,-1.5144319651758464,9.756645627767904,0.001201982979907807,-0.0009669852677758899,-0.002181661564992912,-11.934539829717417,60.25253140161738,-28.0
1772912550.2557912,2.4968970060936633e-05,0.4526510395951636,-8.900830262885547,0.0948670684494209,-1.5158584680331502,9.754422591043014,-0.00023499771213191702,0.0021689682476836968,-0.002181661564992912,-11.934539829717417,60.25253140161738,-28.0
1772912550.2853854,2.4968970060936633e-05,0.4526510395951636,-8.900830262885547,0.0948670684494209,-1.5158584680331502,9.754422591043014,-0.00023499771213191702,0.0021689682476836968,-0.002181661564992912,-11.934539829717417,60.25253140161738,-28.0
1772912550.3511193,2.4968970060936633e-05,0.4526510395951636,-8.900830262885547,0.09113306374289683,-1.5177998715110494,9.755303768404396,0.00011749885606595851,-0.0010844841238418484,0.0,-12.198096326091461,59.783915916150846,-27.5625
1772912550.4292111,2.4968970060936633e-05,0.4526510395951636,-8.900830262885547,0.08512532626160657,-1.5154947603865117,9.760219822040789,-0.0009669852677758899,-0.001201982979907807,-0.001090830782496456,-12.117310063489127,59.038279557209876,-28.75
1772912550.455637,2.4968970060936633e-05,0.4526510395951636,-8.900830262885547,0.08112724407863285,-1.51396073468291,9.760146289112571,-0.001201982979907807,0.0009669852677758899,0.0,-12.117310063489127,59.038279557209876,-28.75
1772912550.4830492,2.4968970060936633e-05,0.4526510395951636,-8.900830262885547,0.08179221426563008,-1.5125795389495909,9.76009735377026,0.00011749885606595851,-0.0010844841238418484,0.0,-12.117310063489127,59.038279557209876,-28.75
1772912550.5154254,2.4968970060936633e-05,0.4526510395951636,-8.900830262885547,0.08223474449687303,-1.5116603686180343,9.756719676139275,-0.00011749885606595851,0.0010844841238418484,0.0,-13.052994368128873,60.13135200771388,-28.75
1772912550.5470412,2.4968970060936633e-05,0.4526510395951636,-8.900830262885547,0.08954086062266466,-1.5136536827209264,9.757816981114306,-0.0010844841238418484,-0.00011749885606595851,-0.001090830782496456,-13.052994368128873,60.13135200771388,-28.75
1772912550.6196525,2.4968970060936633e-05,0.4526510395951636,-8.900830262885547,0.09440299928971424,-1.5149802109896235,9.75854722531749,0.00023499771213191702,-0.0021689682476836968,0.0,-11.561721650246932,60.29292453291855,-27.0625
1772912550.6603434,2.4968970060936633e-05,0.4526510395951636,-8.900830262885547,0.09835933578651242,-1.5225142991706735,9.762378306384665,-0.0009669852677758899,-0.001201982979907807,-0.001090830782496456,-11.561721650246932,60.29292453291855,-27.0625
1772912550.6925566,2.4968970060936633e-05,0.4526510395951636,-8.900830262885547,0.09434093509343333,-1.5282487882214073,9.768272959746211,0.00035249656819787557,-0.0032534523715255456,0.001090830782496456,-12.198096326091461,59.783915916150846,-27.5625
1772912550.7127056,2.4968970060936633e-05,0.4526510395951636,-8.900830262885547,0.09434093509343333,-1.5282487882214073,9.768272959746211,0.00035249656819787557,-0.0032534523715255456,0.001090830782496456,-12.198096326091461,59.783915916150846,-27.5625
1772912550.750525,2.4968970060936633e-05,0.4526510395951636,-8.900830262885547,0.08868686982712633,-1.5235270274083057,9.768116159154635,-0.00023499771213191702,0.0021689682476836968,-0.001090830782496456,-11.725841984661386,58.326304141019875,-26.75
1772912550.7749379,2.4968970060936633e-05,0.4526510395951636,-8.900830262885547,0.08868686982712633,-1.5235270274083057,9.768116159154635,-0.00023499771213191702,0.0021689682476836968,-0.001090830782496456,-11.725841984661386,58.326304141019875,-26.75
1772912550.8118124,2.4968970060936633e-05,0.4526510395951636,-8.900830262885547,0.08890836585537325,-1.5155367253982133,9.753559111963055,-0.0013194818359737654,0.0020514693916177384,0.0,-11.725841984661386,58.326304141019875,-26.75
1772912550.8412166,2.4968970060936633e-05,0.4526510395951636,-8.900830262885547,0.09101675063301157,-1.5199193228384171,9.759058772668165,0.0010844841238418484,0.00011749885606595851,-0.001090830782496456,-12.530521374260777,59.37070460537919,-27.5625
1772912550.8643253,2.4968970060936633e-05,0.4526510395951636,-8.900830262885547,0.09101675063301157,-1.5199193228384171,9.759058772668165,0.0010844841238418484,0.00011749885606595851,-0.001090830782496456,-12.530521374260777,59.37070460537919,-27.5625
1772912550.882256,2.4968970060936633e-05,0.4526510395951636,-8.900830262885547,0.08945452669582901,-1.5265218604600757,9.759373623724862,0.00011749885606595851,-0.0010844841238418484,-0.002181661564992912,-12.530521374260777,59.37070460537919,-27.5625
1772912550.8996553,2.4968970060936633e-05,0.4526510395951636,-8.900830262885547,0.08841488411681885,-1.5309157754921117,9.762928265293297,-0.0009669852677758899,-0.001201982979907807,0.0,-12.530521374260777,59.37070460537919,-27.5625
1772912550.9195132,2.4968970060936633e-05,0.4526510395951636,-8.900830262885547,0.08841488411681885,-1.5309157754921117,9.762928265293297,-0.0009669852677758899,-0.001201982979907807,0.0,-12.530521374260777,59.37070460537919,-27.5625
1772912550.9444485,2.4968970060936633e-05,0.4526510395951636,-8.900830262885547,0.09140898157608021,-1.536805207317184,9.761948727841823,0.0,0.0,-0.001090830782496456,-12.198096326091461,59.783915916150846,-28.375
1772912550.9798589,2.4968970060936633e-05,0.4526510395951636,-8.900830262885547,0.09304120122519635,-1.5373989091892437,9.761296856610016,0.00011749885606595851,-0.0010844841238418484,0.001090830782496456,-12.198096326091461,59.783915916150846,-28.375
1772912551.013235,2.4968970060936633e-05,0.4526510395951636,-8.900830262885547,0.09340678764107062,-1.5311427127164914,9.760863043587129,-0.0008494864117099313,-0.0022864671037496555,-0.001090830782496456,-12.570914505561944,59.743522784849674,-27.5625
1772912551.027562,2.4968970060936633e-05,0.4526510395951636,-8.900830262885547,0.09365008131696706,-1.5269792838501683,9.763919457573724,0.0009669852677758899,0.001201982979907807,-0.002181661564992912,-12.570914505561944,59.743522784849674,-27.5625
1772912551.0416625,2.4968970060936633e-05,0.4526510395951636,-8.900830262885547,0.09381199054050772,-1.524208568448178,9.765953466939424,0.0008494864117099313,0.0022864671037496555,-0.001090830782496456,-12.570914505561944,59.743522784849674,-27.5625
1772912551.0535371,2.4968970060936633e-05,0.4526510395951636,-8.900830262885547,0.09381199054050772,-1.524208568448178,9.765953466939424,0.0008494864117099313,0.0022864671037496555,-0.001090830782496456,-12.570914505561944,59.743522784849674,-27.5625
1772912551.0683596,2.4968970060936633e-05,0.4526510395951636,-8.900830262885547,0.09391973932012951,-1.5223646882990727,9.760616854036284,-0.0009669852677758899,-0.001201982979907807,0.001090830782496456,-11.968200772468391,60.56321321784279,-28.375
1772912551.0887363,2.4968970060936633e-05,0.4526510395951636,-8.900830262885547,0.09399144492933505,-1.5211376066573339,9.757065397763117,0.0009669852677758899,0.001201982979907807,0.001090830782496456,-11.968200772468391,60.56321321784279,-28.375
1772912551.1243303,2.4968970060936633e-05,0.4526510395951636,-8.900830262885547,0.09399144492933505,-1.5211376066573339,9.757065397763117,0.0009669852677758899,0.001201982979907807,0.001090830782496456,-11.968200772468391,60.56321321784279,-28.375
1772912551.1448667,2.4968970060936633e-05,0.4526510395951636,-8.900830262885547,0.09071351499299529,-1.520681316295919,9.758047054993009,0.00023499771213191702,-0.0021689682476836968,0.0,-11.887414509866057,59.817576858901816,-27.5625
1772912551.1810071,2.4968970060936633e-05,0.4526510395951636,-8.900830262885547,0.08853208923723783,-1.5203776601574948,9.758700336913673,-0.0006144886995780144,-0.004455435351433352,-0.001090830782496456,-11.887414509866057,59.817576858901816,-27.5625
1772912551.2232938,2.4968970060936633e-05,0.4526510395951636,-8.900830262885547,0.09373167320142743,-1.5194549428619104,9.759135088734237,-0.00023499771213191702,0.0021689682476836968,0.0,-11.806628247263722,59.071940499960846,-26.75
1772912551.2736313,2.4968970060936633e-05,0.4526510395951636,-8.900830262885547,0.09719193824643693,-1.5188408848091264,9.759424411214326,0.0009669852677758899,0.001201982979907807,0.001090830782496456,-11.806628247263722,59.071940499960846,-26.75
1772912551.3095915,2.4968970060936633e-05,0.4526510395951636,-8.900830262885547,0.09719193824643693,-1.5188408848091264,9.759424411214326,0.0009669852677758899,0.001201982979907807,0.001090830782496456,-11.806628247263722,59.071940499960846,-26.75
1772912551.3424945,2.4968970060936633e-05,0.4526510395951636,-8.900830262885547,0.0961690567619356,-1.5187925547982388,9.7629620638002,-0.0010844841238418484,-0.00011749885606595851,0.002181661564992912,-13.00586904827751,59.69639746499831,-28.25
1772912551.367979,2.4968970060936633e-05,0.4526510395951636,-8.900830262885547,0.09584865932409702,-1.5220860409341366,9.765316332077932,0.001201982979907807,-0.0009669852677758899,0.002181661564992912,-13.00586904827751,59.69639746499831,-28.25
1772912551.3839386,2.4968970060936633e-05,0.4526510395951636,-8.900830262885547,0.09584865932409702,-1.5220860409341366,9.765316332077932,0.001201982979907807,-0.0009669852677758899,0.002181661564992912,-13.00586904827751,59.69639746499831,-28.25
1772912551.4176161,2.4968970060936633e-05,0.4526510395951636,-8.900830262885547,0.09584865932409702,-1.5220860409341366,9.765316332077932,0.001201982979907807,-0.0009669852677758899,0.002181661564992912,-13.00586904827751,59.69639746499831,-28.25
1772912551.4508424,2.4968970060936633e-05,0.4526510395951636,-8.900830262885547,0.09896108762655124,-1.5239175004031635,9.763537959610543,0.0010844841238418484,0.00011749885606595851,0.003272492347489368,-13.00586904827751,59.69639746499831,-28.25
1772912551.4836721,2.4968970060936633e-05,0.4526510395951636,-8.900830262885547,0.09896108762655124,-1.5239175004031635,9.763537959610543,0.0010844841238418484,0.00011749885606595851,0.003272492347489368,-13.00586904827751,59.69639746499831,-28.25
1772912551.5129714,2.4968970060936633e-05,0.4526510395951636,-8.900830262885547,0.1006720551299701,-1.5218106670027964,9.762354472599219,-0.001436980692039724,0.003135953515459587,-0.003272492347489368,-12.530521374260777,59.37070460537919,-27.5625
1772912551.5584726,2.4968970060936633e-05,0.4526510395951636,-8.900830262885547,0.1006720551299701,-1.5218106670027964,9.762354472599219,-0.001436980692039724,0.003135953515459587,-0.003272492347489368,-12.530521374260777,59.37070460537919,-27.5625
1772912551.5799105,2.4968970060936633e-05,0.4526510395951636,-8.900830262885547,0.10181068489073603,-1.520408592909723,9.761566875213598,0.00011749885606595851,-0.0010844841238418484,-0.001090830782496456,-12.530521374260777,59.37070460537919,-27.5625
1772912551.613373,2.4968970060936633e-05,0.4526510395951636,-8.900830262885547,0.0975338697442384,-1.5194546910396036,9.760693930458581,-0.0010844841238418484,-0.00011749885606595851,0.0,-11.561721650246932,60.29292453291855,-27.5625
1772912551.6632783,2.4968970060936633e-05,0.4526510395951636,-8.900830262885547,0.0975338697442384,-1.5194546910396036,9.760693930458581,-0.0010844841238418484,-0.00011749885606595851,0.0,-11.561721650246932,60.29292453291855,-27.5625
1772912551.7068443,2.4968970060936633e-05,0.4526510395951636,-8.900830262885547,0.09972225757235927,-1.5188407172241942,9.757116691261155,-0.0021689682476836968,-0.00023499771213191702,-0.001090830782496456,-12.49012824295961,58.9978864259087,-28.0
1772912551.7354786,2.4968970060936633e-05,0.4526510395951636,-8.900830262885547,0.1015389239898421,-1.5217577737268382,9.754736078535649,-0.001201982979907807,0.0009669852677758899,-0.002181661564992912,-12.49012824295961,58.9978864259087,-28.0
1772912551.7626371,2.4968970060936633e-05,0.4526510395951636,-8.900830262885547,0.1015389239898421,-1.5217577737268382,9.754736078535649,-0.001201982979907807,0.0009669852677758899,-0.002181661564992912,-12.49012824295961,58.9978864259087,-28.0
1772912551.828782,2.4968970060936633e-05,0.4526510395951636,-8.900830262885547,0.09942224597892145,-1.5240593610074538,9.75315180736001,-0.0021689682476836968,-0.00023499771213191702,-0.001090830782496456,-12.530521374260777,59.37070460537919,-28.75
1772912551.8795025,2.4968970060936633e-05,0.4526510395951636,-8.900830262885547,0.09432765242547228,-1.522625711177789,9.75544260429741,0.00011749885606595851,-0.0010844841238418484,-0.001090830782496456,-12.530521374260777,59.37070460537919,-28.75
1772912551.9056606,2.4968970060936633e-05,0.4526510395951636,-8.900830262885547,0.09432765242547228,-1.522625711177789,9.75544260429741,0.00011749885606595851,-0.0010844841238418484,-0.001090830782496456,-12.530521374260777,59.37070460537919,-28.75
1772912551.9533188,2.4968970060936633e-05,0.4526510395951636,-8.900830262885547,0.09093725732599083,-1.5216716332310651,9.756967104069373,-0.00011749885606595851,0.0010844841238418484,-0.001090830782496456,-11.84702137856489,59.44475867943133,-28.375
1772912551.990908,2.4968970060936633e-05,0.4526510395951636,-8.900830262885547,0.08868098726048071,-1.5210367050152693,9.757981641637835,-0.0010844841238418484,-0.00011749885606595851,-0.001090830782496456,-11.84702137856489,59.44475867943133,-28.375
1772912552.015804,2.4968970060936633e-05,0.4526510395951636,-8.900830262885547,0.08868098726048071,-1.5210367050152693,9.757981641637835,-0.0010844841238418484,-0.00011749885606595851,-0.001090830782496456,-11.84702137856489,59.44475867943133,-28.375
1772912552.0567539,2.4968970060936633e-05,0.4526510395951636,-8.900830262885547,0.08753978349983402,-1.523939816598532,9.755311693349201,0.0,0.0,0.001090830782496456,-11.163521382869,59.51881275348347,-26.375
1772912552.0777311,2.4968970060936633e-05,0.4526510395951636,-8.900830262885547,0.08753978349983402,-1.523939816598532,9.755311693349201,0.0,0.0,0.001090830782496456,-11.163521382869,59.51881275348347,-26.375
1772912552.1107225,2.4968970060936633e-05,0.4526510395951636,-8.900830262885547,0.08678032514520494,-1.5258718049273123,9.753534872588391,0.0009669852677758899,0.001201982979907807,-0.001090830782496456,-11.163521382869,59.51881275348347,-26.375
1772912552.1586103,2.4968970060936633e-05,0.4526510395951636,-8.900830262885547,0.0892402445484047,-1.5234715535963677,9.75235241822046,-0.0010844841238418484,-0.00011749885606595851,-0.002181661564992912,-12.965475916976343,59.32357928552783,-27.0625
1772912552.2205966,2.4968970060936633e-05,0.4526510395951636,-8.900830262885547,0.0942029426503958,-1.5215138943844257,9.754910619754801,0.0009669852677758899,0.001201982979907807,-0.001090830782496456,-12.965475916976343,59.32357928552783,-27.0625
1772912552.2760665,2.4968970060936633e-05,0.4526510395951636,-8.900830262885547,0.0975055628003007,-1.5202110940473648,9.749922850884284,-0.00035249656819787557,0.0032534523715255456,0.0,-12.245221645942822,60.218870458866405,-28.25
1772912552.2913558,2.4968970060936633e-05,0.4526510395951636,-8.900830262885547,0.10042405714490245,-1.525995393412808,9.753293769832622,-0.0021689682476836968,-0.00023499771213191702,0.0,-12.245221645942822,60.218870458866405,-28.25
1772912552.3147013,2.4968970060936633e-05,0.4526510395951636,-8.900830262885547,0.10042405714490245,-1.525995393412808,9.753293769832622,-0.0021689682476836968,-0.00023499771213191702,0.0,-12.245221645942822,60.218870458866405,-28.25
1772912552.3412218,2.4968970060936633e-05,0.4526510395951636,-8.900830262885547,0.09571498409299306,-1.530565417553177,9.75219196702979,-0.001201982979907807,0.0009669852677758899,-0.001090830782496456,-12.570914505561944,59.743522784849674,-28.25
1772912552.3686125,2.4968970060936633e-05,0.4526510395951636,-8.900830262885547,0.0925811485807401,-1.533606717568078,9.754803841279768,0.0010844841238418484,0.00011749885606595851,0.001090830782496456,-12.570914505561944,59.743522784849674,-28.25
1772912552.3986304,2.4968970060936633e-05,0.4526510395951636,-8.900830262885547,0.0925811485807401,-1.533606717568078,9.754803841279768,0.0010844841238418484,0.00011749885606595851,0.001090830782496456,-12.570914505561944,59.743522784849674,-28.25
1772912552.4199688,2.4968970060936633e-05,0.4526510395951636,-8.900830262885547,0.09049561605457221,-1.5356306687544476,9.756542014416581,0.0,0.0,-0.002181661564992912,-12.198096326091461,59.783915916150846,-27.0625
1772912552.4518945,2.4968970060936633e-05,0.4526510395951636,-8.900830262885547,0.08910771745533227,-1.5369775856599603,9.757698749222465,-0.0010844841238418484,-0.00011749885606595851,0.001090830782496456,-12.198096326091461,59.783915916150846,-27.0625
1772912552.4670026,2.4968970060936633e-05,0.4526510395951636,-8.900830262885547,0.09150973565964322,-1.537513625050769,9.758468543314207,0.00023499771213191702,-0.0021689682476836968,0.0,-12.198096326091461,59.783915916150846,-27.0625
1772912552.4796422,2.4968970060936633e-05,0.4526510395951636,-8.900830262885547,0.09150973565964322,-1.537513625050769,9.758468543314207,0.00023499771213191702,-0.0021689682476836968,0.0,-12.198096326091461,59.783915916150846,-27.0625
1772912552.5036247,2.4968970060936633e-05,0.4526510395951636,-8.900830262885547,0.0927479331785485,-1.5345447040591382,9.758980832683097,-0.001201982979907807,0.0009669852677758899,0.0,-12.198096326091461,59.783915916150846,-28.0
1772912552.526866,-0.8908334818464759,0.3831298558719553,-8.900063613166063,0.09357193979580739,-1.5325689203042283,9.759321755535446,-0.00011749885606595851,0.0010844841238418484,-0.002181661564992912,-12.198096326091461,59.783915916150846,-28.0
1772912552.5458188,2.4968970060936633e-05,0.4526510395951636,-8.900830262885547,0.09412030699483613,-1.5312540582862864,9.752858412470687,-0.002403965959815614,0.0019339705355517797,0.0,-12.198096326091461,59.783915916150846,-28.0
1772912552.5605583,2.4968970060936633e-05,0.4526510395951636,-8.900830262885547,0.09412030699483613,-1.5312540582862864,9.752858412470687,-0.002403965959815614,0.0019339705355517797,0.0,-12.198096326091461,59.783915916150846,-28.0
1772912552.5839584,2.4968970060936633e-05,0.4526510395951636,-8.900830262885547,0.09115959002186486,-1.5307393510650795,9.748557129861362,0.00011749885606595851,-0.0010844841238418484,0.002181661564992912,-13.052994368128873,60.13135200771388,-28.0
1772912552.6287456,2.4968970060936633e-05,0.4526510395951636,-8.900830262885547,0.08691761164989938,-1.5213043871605327,9.75827734622486,0.0013194818359737654,-0.0020514693916177384,0.001090830782496456,-12.117310063489127,59.038279557209876,-27.1875
1772912552.6455913,2.4968970060936633e-05,0.4526510395951636,-8.900830262885547,0.08691761164989938,-1.5213043871605327,9.75827734622486,0.0013194818359737654,-0.0020514693916177384,0.001090830782496456,-12.117310063489127,59.038279557209876,-27.1875
1772912552.6585312,2.4968970060936633e-05,0.4526510395951636,-8.900830262885547,0.08897128841992592,-1.5171063388757133,9.758853593155948,0.0,0.0,0.001090830782496456,-12.117310063489127,59.038279557209876,-27.1875
1772912552.672717,2.4968970060936633e-05,0.4526510395951636,-8.900830262885547,0.09069830613306809,-1.5176382338557002,9.759237079051486,0.00011749885606595851,-0.0010844841238418484,0.0,-12.117310063489127,59.038279557209876,-27.1875
1772912552.6956165,2.4968970060936633e-05,0.4526510395951636,-8.900830262885547,0.09069830613306809,-1.5176382338557002,9.759237079051486,0.00011749885606595851,-0.0010844841238418484,0.0,-12.117310063489127,59.038279557209876,-27.1875
1772912552.7185185,2.4968970060936633e-05,0.4526510395951636,-8.900830262885547,0.09184761712911228,-1.5179922040232252,9.75614717292383,-0.001201982979907807,0.0009669852677758899,-0.002181661564992912,-11.474203199094404,59.485151810732496,-27.5625
1772912552.774903,2.4968970060936633e-05,0.4526510395951636,-8.900830262885547,0.09261247075833462,-1.518227767215607,9.754090874912388,0.0010844841238418484,0.00011749885606595851,-0.001090830782496456,-11.474203199094404,59.485151810732496,-27.5625
1772912552.8011284,2.4968970060936633e-05,0.4526510395951636,-8.900830262885547,0.09312147230460724,-1.518384531888724,9.752722431556126,0.0,0.0,-0.002181661564992912,-12.198096326091461,59.783915916150846,-29.5
1772912552.8539171,2.4968970060936633e-05,0.4526510395951636,-8.900830262885547,0.09382052591149402,-1.5218145062457689,9.751811747789048,-0.00023499771213191702,0.0021689682476836968,-0.002181661564992912,-12.198096326091461,59.783915916150846,-29.5
1772912552.8724396,2.4968970060936633e-05,0.4526510395951636,-8.900830262885547,0.09392541951417453,-1.5207714666467964,9.757895921329702,0.001201982979907807,-0.0009669852677758899,-0.001090830782496456,-12.198096326091461,59.783915916150846,-27.5625
1772912552.9135513,2.4968970060936633e-05,0.4526510395951636,-8.900830262885547,0.09435554379878229,-1.523402984663458,9.761944870856334,0.00011749885606595851,-0.0010844841238418484,0.001090830782496456,-12.198096326091461,59.783915916150846,-27.5625
1772912552.935751,2.4968970060936633e-05,0.4526510395951636,-8.900830262885547,0.09435554379878229,-1.523402984663458,9.761944870856334,0.00011749885606595851,-0.0010844841238418484,0.001090830782496456,-12.198096326091461,59.783915916150846,-27.5625
1772912552.9555411,2.4968970060936633e-05,0.4526510395951636,-8.900830262885547,0.09464178670538566,-1.5251542305075638,9.764639401536579,0.00023499771213191702,-0.0021689682476836968,-0.002181661564992912,-12.198096326091461,59.783915916150846,-27.5625
1772912552.9984715,2.4968970060936633e-05,0.4526510395951636,-8.900830262885547,0.09815792738044936,-1.5259593462903562,9.763087469897082,-0.0010844841238418484,-0.00011749885606595851,-0.001090830782496456,-13.086655310879845,60.44203382393928,-28.375
1772912553.0317283,2.4968970060936633e-05,0.4526510395951636,-8.900830262885547,0.1008581984856015,-1.5298207910683337,9.762054676727209,-0.0010844841238418484,-0.00011749885606595851,-0.001090830782496456,-13.086655310879845,60.44203382393928,-28.375
1772912553.072883,2.4968970060936633e-05,0.4526510395951636,-8.900830262885547,0.09600390030555177,-1.533111176960438,9.761367364409715,-0.00011749885606595851,0.0010844841238418484,-0.001090830782496456,-12.530521374260777,59.37070460537919,-28.375
1772912553.0950885,2.4968970060936633e-05,0.4526510395951636,-8.900830262885547,0.09241310032903019,-1.5319752427973525,9.760909965740204,-0.0010844841238418484,-0.00011749885606595851,-0.001090830782496456,-12.530521374260777,59.37070460537919,-28.375
1772912553.1088839,2.4968970060936633e-05,0.4526510395951636,-8.900830262885547,0.09002346305651904,-1.531219291301035,9.760605572035123,0.0,0.0,0.003272492347489368,-12.530521374260777,59.37070460537919,-28.375
1772912553.137422,2.4968970060936633e-05,0.4526510395951636,-8.900830262885547,0.09002346305651904,-1.531219291301035,9.760605572035123,0.0,0.0,0.003272492347489368,-12.530521374260777,59.37070460537919,-28.375
1772912553.1662064,2.4968970060936633e-05,0.4526510395951636,-8.900830262885547,0.09175883536392218,-1.5303558952610052,9.760403001424692,-0.00023499771213191702,0.0021689682476836968,-0.001090830782496456,-12.157703194790294,59.41109773668036,-27.5625
1772912553.192595,2.4968970060936633e-05,0.4526510395951636,-8.900830262885547,0.09623935546738205,-1.529420996077369,9.76361330465363,0.0,0.0,0.0,-12.157703194790294,59.41109773668036,-27.5625
1772912553.2123432,2.4968970060936633e-05,0.4526510395951636,-8.900830262885547,0.09922109154554556,-1.5287988311141671,9.769094837298372,0.00023499771213191702,-0.0021689682476836968,0.0,-12.157703194790294,59.41109773668036,-27.5625
1772912553.227713,2.4968970060936633e-05,0.4526510395951636,-8.900830262885547,0.10120540359738893,-1.5283847872811942,9.769397624333397,-0.0019339705355517797,-0.002403965959815614,0.001090830782496456,-11.84702137856489,59.44475867943133,-28.0
1772912553.2450802,2.4968970060936633e-05,0.4526510395951636,-8.900830262885547,0.10216562233791049,-1.5247835965172616,9.766254014015534,0.00023499771213191702,-0.0021689682476836968,0.001090830782496456,-11.84702137856489,59.44475867943133,-28.0
1772912553.2835426,2.4968970060936633e-05,0.4526510395951636,-8.900830262885547,0.10216562233791049,-1.5247835965172616,9.766254014015534,0.00023499771213191702,-0.0021689682476836968,0.001090830782496456,-11.84702137856489,59.44475867943133,-28.0
1772912553.3172538,2.4968970060936633e-05,0.4526510395951636,-8.900830262885547,0.09947898796511952,-1.5227473630555632,9.764161976465424,-0.002286467103749655,0.0008494864117099314,-0.001090830782496456,-12.117310063489127,59.038279557209876,-28.0
1772912553.3358855,2.4968970060936633e-05,0.4526510395951636,-8.900830262885547,0.09769106280169951,-1.5213922724330213,9.766114860552735,0.0010844841238418484,0.00011749885606595851,-0.001090830782496456,-12.117310063489127,59.038279557209876,-28.0
1772912553.3612955,2.4968970060936633e-05,0.4526510395951636,-8.900830262885547,0.09686153734163844,-1.5238161239793355,9.767414483097696,-0.0010844841238418484,-0.00011749885606595851,-0.001090830782496456,-12.117310063489127,59.038279557209876,-28.0
1772912553.3895526,2.4968970060936633e-05,0.4526510395951636,-8.900830262885547,0.09594917865061214,-1.52210352088895,9.768279367383633,0.0,0.0,0.002181661564992912,-11.806628247263722,59.071940499960846,-27.5625
1772912553.4058158,2.4968970060936633e-05,0.4526510395951636,-8.900830262885547,0.09594917865061214,-1.52210352088895,9.768279367383633,0.0,0.0,0.002181661564992912,-11.806628247263722,59.071940499960846,-27.5625
1772912553.4401815,2.4968970060936633e-05,0.4526510395951636,-8.900830262885547,0.09570233289721071,-1.5242894518815902,9.765509826507214,-0.001201982979907807,0.0009669852677758899,0.001090830782496456,-11.806628247263722,59.071940499960846,-27.5625
1772912553.4628346,2.4968970060936633e-05,0.4526510395951636,-8.900830262885547,0.09553805980576976,-1.525744164538743,9.763666727991756,-0.0009669852677758899,-0.001201982979907807,0.001090830782496456,-12.083649120738153,58.72759774098447,-28.0
1772912553.478281,2.4968970060936633e-05,0.4526510395951636,-8.900830262885547,0.09542873789846652,-1.5267122595618734,9.765785278225797,-0.001201982979907807,0.0009669852677758899,-0.001090830782496456,-12.083649120738153,58.72759774098447,-28.0
1772912553.5059912,2.4968970060936633e-05,0.4526510395951636,-8.900830262885547,0.09535598539036193,-1.5273565159854363,9.767195149740795,-0.001201982979907807,0.0009669852677758899,0.002181661564992912,-12.083649120738153,58.72759774098447,-28.0
1772912553.5323565,2.4968970060936633e-05,0.4526510395951636,-8.900830262885547,0.09535598539036193,-1.5273565159854363,9.767195149740795,-0.001201982979907807,0.0009669852677758899,0.002181661564992912,-12.083649120738153,58.72759774098447,-28.0
1772912553.5486786,2.4968970060936633e-05,0.4526510395951636,-8.900830262885547,0.09530756940891705,-1.5277852614385017,9.768133403484729,-0.00011749885606595851,0.0010844841238418484,-0.001090830782496456,-11.203914514170167,59.89163093295396,-28.375
1772912553.5643218,2.4968970060936633e-05,0.4526510395951636,-8.900830262885547,0.09194969989584555,-1.5284309055118785,9.765412689163018,0.00023499771213191702,-0.0021689682476836968,0.001090830782496456,-11.203914514170167,59.89163093295396,-28.375
1772912553.5841637,2.4968970060936633e-05,0.4526510395951636,-8.900830262885547,0.09194969989584555,-1.5284309055118785,9.765412689163018,0.00023499771213191702,-0.0021689682476836968,0.001090830782496456,-11.203914514170167,59.89163093295396,-28.375
1772912553.6143596,2.4968970060936633e-05,0.4526510395951636,-8.900830262885547,0.09007539400851888,-1.5321862236486556,9.76025697246697,-0.0013194818359737654,0.0020514693916177384,-0.001090830782496456,-11.203914514170167,59.89163093295396,-28.375
1772912553.6455433,2.4968970060936633e-05,0.4526510395951636,-8.900830262885547,0.08774710808658502,-1.524708398264243,9.756825900598878,0.0,0.0,-0.002181661564992912,-11.203914514170167,59.89163093295396,-27.5625
1772912553.6630425,2.4968970060936633e-05,0.4526510395951636,-8.900830262885547,0.08774710808658502,-1.524708398264243,9.756825900598878,0.0,0.0,-0.002181661564992912,-11.203914514170167,59.89163093295396,-27.5625
1772912553.6841402,2.4968970060936633e-05,0.4526510395951636,-8.900830262885547,0.09060426532374447,-1.5293486178947229,9.754542560598248,-0.0013194818359737654,0.0020514693916177384,0.001090830782496456,-11.203914514170167,59.89163093295396,-27.5625
1772912553.699087,2.4968970060936633e-05,0.4526510395951636,-8.900830262885547,0.09060426532374447,-1.5293486178947229,9.754542560598248,-0.0013194818359737654,0.0020514693916177384,0.001090830782496456,-11.203914514170167,59.89163093295396,-27.5625
1772912553.71368,2.4968970060936633e-05,0.4526510395951636,-8.900830262885547,0.09178503402101208,-1.5257853337876337,9.753023023334407,0.00011749885606595851,-0.0010844841238418484,0.0,-12.157703194790294,59.41109773668036,-27.5625
1772912553.727721,2.4968970060936633e-05,0.4526510395951636,-8.900830262885547,0.09293114116275528,-1.5267396572371192,9.755356899966984,0.0,0.0,-0.001090830782496456,-12.157703194790294,59.41109773668036,-27.5625
1772912553.7503147,2.4968970060936633e-05,0.4526510395951636,-8.900830262885547,0.09293114116275528,-1.5267396572371192,9.755356899966984,0.0,0.0,-0.001090830782496456,-12.157703194790294,59.41109773668036,-27.5625
1772912553.7687194,2.4968970060936633e-05,0.4526510395951636,-8.900830262885547,0.09333354389896752,-1.5240490996139986,9.756910068794854,-0.0010844841238418484,-0.00011749885606595851,0.0,-12.157703194790294,59.41109773668036,-27.5625
1772912553.8012557,2.4968970060936633e-05,0.4526510395951636,-8.900830262885547,0.09324101966102147,-1.518932914353048,9.75459857359245,0.0021689682476836968,0.00023499771213191702,0.001090830782496456,-11.474203199094404,59.485151810732496,-27.5625
1772912553.8154535,2.4968970060936633e-05,0.4526510395951636,-8.900830262885547,0.09324101966102147,-1.518932914353048,9.75459857359245,0.0021689682476836968,0.00023499771213191702,0.001090830782496456,-11.474203199094404,59.485151810732496,-27.5625
1772912553.8365598,2.4968970060936633e-05,0.4526510395951636,-8.900830262885547,0.08949347783220772,-1.5125628197589194,9.753060299356342,-0.00011749885606595851,0.0010844841238418484,-0.001090830782496456,-11.474203199094404,59.485151810732496,-27.5625
1772912553.8610284,2.4968970060936633e-05,0.4526510395951636,-8.900830262885547,0.09032517982617927,-1.507963274201384,9.752036595035861,0.0,0.0,0.0,-11.474203199094404,59.485151810732496,-27.5625
1772912553.8762665,2.4968970060936633e-05,0.4526510395951636,-8.900830262885547,0.09032517982617927,-1.507963274201384,9.752036595035861,0.0,0.0,0.0,-11.474203199094404,59.485151810732496,-27.5625
1772912553.907621,2.4968970060936633e-05,0.4526510395951636,-8.900830262885547,0.09220743419042214,-1.5117297833592052,9.754247069511562,0.00011749885606595851,-0.0010844841238418484,0.1407171709420428,-12.618039825413307,60.17847732756524,-28.375
1772912553.9264636,2.4968970060936633e-05,0.4526510395951636,-8.900830262885547,0.08988659453871667,-1.5177461642015484,9.75617148902439,-0.0007319875556439728,-0.003370951227591504,-0.001090830782496456,-12.618039825413307,60.17847732756524,-28.375
1772912553.9417474,2.4968970060936633e-05,0.4526510395951636,-8.900830262885547,0.08988659453871667,-1.5177461642015484,9.75617148902439,-0.0007319875556439728,-0.003370951227591504,-0.001090830782496456,-12.618039825413307,60.17847732756524,-28.375
1772912553.9575956,2.4968970060936633e-05,0.4526510395951636,-8.900830262885547,0.08834210167598432,-1.5217499984447502,9.757452168713002,-0.00011749885606595851,0.0010844841238418484,-0.001090830782496456,-12.570914505561944,59.743522784849674,-28.0
1772912553.9992318,2.4968970060936633e-05,0.4526510395951636,-8.900830262885547,0.0873142589289517,-1.524414505407842,9.758304446739643,-0.003370951227591504,0.0007319875556439728,-0.001090830782496456,-12.570914505561944,59.743522784849674,-28.0
1772912554.060009,2.4968970060936633e-05,0.4526510395951636,-8.900830262885547,0.08626992229879507,-1.5228620558090245,9.758871628245803,0.0,0.0,0.0,-11.806628247263722,59.071940499960846,-27.1875
1772912554.0803015,2.4968970060936633e-05,0.4526510395951636,-8.900830262885547,0.0889005771556923,-1.5214685991792476,9.76259419290964,0.0008494864117099313,0.0022864671037496555,-0.003272492347489368,-11.806628247263722,59.071940499960846,-27.1875
1772912554.1091278,2.4968970060936633e-05,0.4526510395951636,-8.900830262885547,0.09065124857661719,-1.5205412693580616,9.765071518109652,-0.00011749885606595851,0.0010844841238418484,0.0,-12.319275719994963,60.902370454562295,-28.0
1772912554.125529,2.4968970060936633e-05,0.4526510395951636,-8.900830262885547,0.09181630085096155,-1.5199241417210152,9.766720150356724,0.001201982979907807,-0.0009669852677758899,-0.001090830782496456,-12.319275719994963,60.902370454562295,-28.0
1772912554.1410332,2.4968970060936633e-05,0.4526510395951636,-8.900830262885547,0.09181630085096155,-1.5199241417210152,9.766720150356724,0.001201982979907807,-0.0009669852677758899,-0.001090830782496456,-12.319275719994963,60.902370454562295,-28.0
1772912554.1672962,2.4968970060936633e-05,0.4526510395951636,-8.900830262885547,0.09259163012505107,-1.5195134501723282,9.76781729670072,-0.0009669852677758899,-0.001201982979907807,0.0,-12.319275719994963,60.902370454562295,-28.0
1772912554.2219563,2.4968970060936633e-05,0.4526510395951636,-8.900830262885547,0.0885122525972501,-1.5251971928570434,9.769033334442799,0.00023499771213191702,-0.0021689682476836968,-0.001090830782496456,-12.198096326091461,59.783915916150846,-29.1875
1772912554.2557008,2.4968970060936633e-05,0.4526510395951636,-8.900830262885547,0.09075314168460563,-1.5263482560177761,9.759321359748087,0.00035249656819787557,-0.0032534523715255456,0.0,-12.49012824295961,58.9978864259087,-28.0
1772912554.2862346,2.4968970060936633e-05,0.4526510395951636,-8.900830262885547,0.09224442833986946,-1.5271142756930256,9.752858149078621,0.0013194818359737654,-0.0020514693916177384,-0.002181661564992912,-12.49012824295961,58.9978864259087,-28.0
1772912554.3075962,2.4968970060936633e-05,0.4526510395951636,-8.900830262885547,0.09224442833986946,-1.5271142756930256,9.752858149078621,0.0013194818359737654,-0.0020514693916177384,-0.002181661564992912,-12.49012824295961,58.9978864259087,-28.0
1772912554.3394613,2.4968970060936633e-05,0.4526510395951636,-8.900830262885547,0.08658556451366023,-1.5283446907574283,9.751902066284206,0.0010844841238418484,0.00011749885606595851,0.0,-12.49012824295961,58.9978864259087,-28.0
1772912554.3571305,2.4968970060936633e-05,0.4526510395951636,-8.900830262885547,0.08281965385096886,-1.5291635182381513,9.754610915571986,0.0,0.0,-0.001090830782496456,-11.353023805190901,58.36669727232104,-26.75
1772912554.3777452,2.4968970060936633e-05,0.4526510395951636,-8.900830262885547,0.08281965385096886,-1.5291635182381513,9.754610915571986,0.0,0.0,-0.001090830782496456,-11.353023805190901,58.36669727232104,-26.75
1772912554.405105,2.4968970060936633e-05,0.4526510395951636,-8.900830262885547,0.08031348237292629,-1.5297084387796702,9.756413624513174,0.00035249656819787557,-0.0032534523715255456,0.002181661564992912,-11.353023805190901,58.36669727232104,-26.75
1772912554.4362848,2.4968970060936633e-05,0.4526510395951636,-8.900830262885547,0.08197130246832064,-1.5297107585491276,9.760958418883275,-0.003370951227591504,0.0007319875556439728,0.0,-12.117310063489127,59.038279557209876,-27.5625
1772912554.4488869,2.4968970060936633e-05,0.4526510395951636,-8.900830262885547,0.08197130246832064,-1.5297107585491276,9.760958418883275,-0.003370951227591504,0.0007319875556439728,0.0,-12.117310063489127,59.038279557209876,-27.5625
1772912554.4662604,2.4968970060936633e-05,0.4526510395951636,-8.900830262885547,0.08271424445897951,-1.5263866531115262,9.763982928767899,-0.0009669852677758899,-0.001201982979907807,-0.001090830782496456,-12.117310063489127,59.038279557209876,-27.5625
1772912554.4928987,2.4968970060936633e-05,0.4526510395951636,-8.900830262885547,0.08320866405455715,-1.5241744980754932,9.765995706310125,0.0,0.0,0.0,-12.117310063489127,59.038279557209876,-27.5625
1772912554.5204902,2.4968970060936633e-05,0.4526510395951636,-8.900830262885547,0.0835376947723853,-1.522702333610404,9.76733518728028,-0.001201982979907807,0.0009669852677758899,0.0,-13.052994368128873,60.13135200771388,-27.5625
1772912554.5553887,2.4968970060936633e-05,0.4526510395951636,-8.900830262885547,0.08375666103958598,-1.5217226246040418,9.761536373488296,0.0009669852677758899,0.001201982979907807,-0.001090830782496456,-13.052994368128873,60.13135200771388,-27.5625
1772912554.5706074,2.4968970060936633e-05,0.4526510395951636,-8.900830262885547,0.08375666103958598,-1.5217226246040418,9.761536373488296,0.0009669852677758899,0.001201982979907807,-0.001090830782496456,-13.052994368128873,60.13135200771388,-27.5625
1772912554.5948656,2.4968970060936633e-05,0.4526510395951636,-8.900830262885547,0.08390238064439456,-1.5210706392043742,9.757677327686725,-0.0009669852677758899,-0.001201982979907807,0.001090830782496456,-13.264240022394688,58.59968615853077,-28.0
1772912554.6189017,2.4968970060936633e-05,0.4526510395951636,-8.900830262885547,0.08390238064439456,-1.5210706392043742,9.757677327686725,-0.0009669852677758899,-0.001201982979907807,0.001090830782496456,-13.264240022394688,58.59968615853077,-28.0
1772912554.6361032,2.4968970060936633e-05,0.4526510395951636,-8.900830262885547,0.08399935541360003,-1.5206367502040499,9.755109175814146,0.00023499771213191702,-0.0021689682476836968,-0.001090830782496456,-13.264240022394688,58.59968615853077,-28.0
1772912554.657502,2.4968970060936633e-05,0.4526510395951636,-8.900830262885547,0.08406389103922712,-1.5203480019211917,9.7567452111384,0.0009669852677758899,0.001201982979907807,-0.001090830782496456,-11.806628247263722,59.071940499960846,-27.1875
1772912554.6715975,2.4968970060936633e-05,0.4526510395951636,-8.900830262885547,0.08406389103922712,-1.5203480019211917,9.7567452111384,0.0009669852677758899,0.001201982979907807,-0.001090830782496456,-11.806628247263722,59.071940499960846,-27.1875
1772912554.6928434,2.4968970060936633e-05,0.4526510395951636,-8.900830262885547,0.0877928067591959,-1.523121173618979,9.757833974370978,0.0,0.0,-0.001090830782496456,-11.806628247263722,59.071940499960846,-27.1875
1772912554.709059,2.4968970060936633e-05,0.4526510395951636,-8.900830262885547,0.0877928067591959,-1.523121173618979,9.757833974370978,0.0,0.0,-0.001090830782496456,-11.806628247263722,59.071940499960846,-27.1875
1772912554.7235868,2.4968970060936633e-05,0.4526510395951636,-8.900830262885547,0.09027435851611718,-1.5249666884054986,9.758558534139977,0.0010844841238418484,0.00011749885606595851,0.0,-12.198096326091461,59.783915916150846,-28.0
1772912554.742063,2.4968970060936633e-05,0.4526510395951636,-8.900830262885547,0.09027435851611718,-1.5249666884054986,9.758558534139977,0.0010844841238418484,0.00011749885606595851,0.0,-12.198096326091461,59.783915916150846,-28.0
1772912554.7605093,2.4968970060936633e-05,0.4526510395951636,-8.900830262885547,0.09192580348959882,-1.5261948578801765,9.762385832279703,-0.0009669852677758899,-0.001201982979907807,0.0,-12.198096326091461,59.783915916150846,-28.0
1772912554.7895322,2.4968970060936633e-05,0.4526510395951636,-8.900830262885547,0.08933885368957764,-1.524046860491523,9.76493285643797,0.00023499771213191702,-0.0021689682476836968,0.001090830782496456,-12.570914505561944,59.743522784849674,-28.0
1772912554.8127797,2.4968970060936633e-05,0.4526510395951636,-8.900830262885547,0.090582597950286,-1.5189314242420529,9.766627872563172,0.00011749885606595851,-0.0010844841238418484,0.001090830782496456,-12.570914505561944,59.743522784849674,-28.0
1772912554.8302014,2.4968970060936633e-05,0.4526510395951636,-8.900830262885547,0.090582597950286,-1.5189314242420529,9.766627872563172,0.00011749885606595851,-0.0010844841238418484,0.001090830782496456,-12.570914505561944,59.743522784849674,-28.0
1772912554.8601942,2.4968970060936633e-05,0.4526510395951636,-8.900830262885547,0.08808464664399178,-1.51588747732496,9.767755886859922,0.00011749885606595851,-0.0010844841238418484,-0.001090830782496456,-11.968200772468391,60.56321321784279,-28.0
1772912554.890378,2.4968970060936633e-05,0.4526510395951636,-8.900830262885547,0.08808464664399178,-1.51588747732496,9.767755886859922,0.00011749885606595851,-0.0010844841238418484,-0.001090830782496456,-11.968200772468391,60.56321321784279,-28.0
1772912554.9249022,2.4968970060936633e-05,0.4526510395951636,-8.900830262885547,0.09307358639012125,-1.5131411271272253,9.768506567773665,0.00011749885606595851,-0.0010844841238418484,0.001090830782496456,-11.968200772468391,60.56321321784279,-28.0
1772912554.95034,2.4968970060936633e-05,0.4526510395951636,-8.900830262885547,0.0934283396065621,-1.5149994297313987,9.769006137536104,-0.0020514693916177384,-0.0013194818359737654,0.002181661564992912,-12.570914505561944,59.743522784849674,-28.75
1772912554.9671826,2.4968970060936633e-05,0.4526510395951636,-8.900830262885547,0.0934283396065621,-1.5149994297313987,9.769006137536104,-0.0020514693916177384,-0.0013194818359737654,0.002181661564992912,-12.570914505561944,59.743522784849674,-28.75
1772912554.9999588,2.4968970060936633e-05,0.4526510395951636,-8.900830262885547,0.09366442390925044,-1.516236109355876,9.76599348392513,0.0010844841238418484,0.00011749885606595851,0.001090830782496456,-12.570914505561944,59.743522784849674,-28.75
1772912555.0309913,2.4968970060936633e-05,0.4526510395951636,-8.900830262885547,0.09366442390925044,-1.516236109355876,9.76599348392513,0.0010844841238418484,0.00011749885606595851,0.001090830782496456,-12.570914505561944,59.743522784849674,-28.75
1772912555.0624118,2.4968970060936633e-05,0.4526510395951636,-8.900830262885547,0.09382153537545505,-1.517059105831349,9.763988596600571,0.0010844841238418484,0.00011749885606595851,0.001090830782496456,-12.530521374260777,59.37070460537919,-28.375
1772912555.0985436,2.4968970060936633e-05,0.4526510395951636,-8.900830262885547,0.09382153537545505,-1.517059105831349,9.763988596600571,0.0010844841238418484,0.00011749885606595851,0.001090830782496456,-12.530521374260777,59.37070460537919,-28.375
1772912555.1329927,2.4968970060936633e-05,0.4526510395951636,-8.900830262885547,0.09435599086551953,-1.521296934888927,9.761766451242645,-0.0009669852677758899,-0.001201982979907807,-0.001090830782496456,-12.245221645942822,60.218870458866405,-26.75
1772912555.165734,2.4968970060936633e-05,0.4526510395951636,-8.900830262885547,0.09435599086551953,-1.521296934888927,9.761766451242645,-0.0009669852677758899,-0.001201982979907807,-0.001090830782496456,-12.245221645942822,60.218870458866405,-26.75
1772912555.181221,2.4968970060936633e-05,0.4526510395951636,-8.900830262885547,0.09131643500504333,-1.524112996672493,9.757830441862108,0.0,0.0,0.001090830782496456,-12.245221645942822,60.218870458866405,-26.75
1772912555.1959083,2.4968970060936633e-05,0.4526510395951636,-8.900830262885547,0.08929364453396015,-1.5259870543319851,9.755211071587466,-0.0020514693916177384,-0.0013194818359737654,-0.001090830782496456,-12.245221645942822,60.218870458866405,-26.75
1772912555.2168005,2.4968970060936633e-05,0.4526510395951636,-8.900830262885547,0.08929364453396015,-1.5259870543319851,9.755211071587466,-0.0020514693916177384,-0.0013194818359737654,-0.001090830782496456,-12.245221645942822,60.218870458866405,-26.75
1772912555.231593,2.4968970060936633e-05,0.4526510395951636,-8.900830262885547,0.0879475000715044,-1.5272342187697812,9.753467909929975,0.0,0.0,-0.003272492347489368,-12.965475916976343,59.32357928552783,-28.375
1772912555.256881,2.4968970060936633e-05,0.4526510395951636,-8.900830262885547,0.09037730518742099,-1.5277038740076327,9.755652967026625,0.002403965959815614,-0.0019339705355517797,0.0,-12.965475916976343,59.32357928552783,-28.375
1772912555.2730985,2.4968970060936633e-05,0.4526510395951636,-8.900830262885547,0.09037730518742099,-1.5277038740076327,9.755652967026625,0.002403965959815614,-0.0019339705355517797,0.0,-12.965475916976343,59.32357928552783,-28.375
1772912555.2979536,2.4968970060936633e-05,0.4526510395951636,-8.900830262885547,0.09199431334936183,-1.5280164243220302,9.757107098115759,0.00011749885606595851,-0.0010844841238418484,-0.001090830782496456,-11.433810067793237,59.11233363126201,-28.0
1772912555.3265705,2.4968970060936633e-05,0.4526510395951636,-8.900830262885547,0.09271009545420655,-1.524898773846584,9.75807480611187,0.00023499771213191702,-0.0021689682476836968,-0.002181661564992912,-11.433810067793237,59.11233363126201,-28.0
1772912555.355277,2.4968970060936633e-05,0.4526510395951636,-8.900830262885547,0.09318644044917068,-1.5228240122816121,9.758718804973274,0.0,0.0,0.001090830782496456,-12.530521374260777,59.37070460537919,-28.375
1772912555.3862073,2.4968970060936633e-05,0.4526510395951636,-8.900830262885547,0.09318644044917068,-1.5228240122816121,9.758718804973274,0.0,0.0,0.001090830782496456,-12.530521374260777,59.37070460537919,-28.375
1772912555.4107604,2.4968970060936633e-05,0.4526510395951636,-8.900830262885547,0.09718941070422119,-1.5244086120912286,9.7591473790216,-0.0008494864117099313,-0.0022864671037496555,0.004363323129985824,-12.530521374260777,59.37070460537919,-28.375
1772912555.437317,2.4968970060936633e-05,0.4526510395951636,-8.900830262885547,0.09718941070422119,-1.5244086120912286,9.7591473790216,-0.0008494864117099313,-0.0022864671037496555,0.004363323129985824,-12.530521374260777,59.37070460537919,-28.375
1772912555.4679134,2.4968970060936633e-05,0.4526510395951636,-8.900830262885547,0.09985334269284964,-1.5254631455633885,9.759432590263275,-0.0013194818359737654,0.0020514693916177384,-0.001090830782496456,-11.474203199094404,59.485151810732496,-28.0
1772912555.4932342,2.4968970060936633e-05,0.4526510395951636,-8.900830262885547,0.10126584090944951,-1.5228392765909382,9.756277283451272,0.0010844841238418484,0.00011749885606595851,-0.001090830782496456,-11.474203199094404,59.485151810732496,-28.0
1772912555.5179834,2.4968970060936633e-05,0.4526510395951636,-8.900830262885547,0.10126584090944951,-1.5228392765909382,9.756277283451272,0.0010844841238418484,0.00011749885606595851,-0.001090830782496456,-11.474203199094404,59.485151810732496,-28.0
1772912555.5614388,2.4968970060936633e-05,0.4526510395951636,-8.900830262885547,0.09888019347569586,-1.5214534398640718,9.75417746201497,-0.001436980692039724,0.003135953515459587,0.0,-11.84702137856489,59.44475867943133,-28.25
1772912555.5920002,2.4968970060936633e-05,0.4526510395951636,-8.900830262885547,0.0932462850121745,-1.514240201330391,9.749434942598334,-0.0010844841238418484,-0.00011749885606595851,-0.002181661564992912,-11.84702137856489,59.44475867943133,-28.25
1772912555.622139,2.4968970060936633e-05,0.4526510395951636,-8.900830262885547,0.09057793815586883,-1.5194168193181663,9.746278848903977,-0.0009669852677758899,-0.001201982979907807,0.001090830782496456,-12.530521374260777,59.37070460537919,-27.5625
1772912555.6542995,5.263537940663664,2.7097174575196123,125.23010675557138,0.08880218313038486,-1.522861800762419,9.750868727220897,0.00011749885606595851,-0.0010844841238418484,0.0,-12.530521374260777,59.37070460537919,-27.5625
1772912555.6940289,2.4968970060936633e-05,0.4526510395951636,-8.900830262885547,0.08762043799740865,-1.525154397430605,9.757268351675826,0.0008494864117099313,0.0022864671037496555,0.0,-12.530521374260777,59.37070460537919,-27.5625
1772912555.710119,2.4968970060936633e-05,0.4526510395951636,-8.900830262885547,0.090159649030633,-1.5263197761395377,9.758182118554773,0.00023499771213191702,-0.0021689682476836968,0.001090830782496456,-11.433810067793237,59.11233363126201,-27.5625
1772912555.722473,2.4968970060936633e-05,0.4526510395951636,-8.900830262885547,0.090159649030633,-1.5263197761395377,9.758182118554773,0.00023499771213191702,-0.0021689682476836968,0.001090830782496456,-11.433810067793237,59.11233363126201,-27.5625
1772912555.73611,2.4968970060936633e-05,0.4526510395951636,-8.900830262885547,0.09184946560839802,-1.527095322652199,9.755445108497948,0.00035249656819787557,-0.0032534523715255456,0.001090830782496456,-11.433810067793237,59.11233363126201,-27.5625
1772912555.7582784,2.4968970060936633e-05,0.4526510395951636,-8.900830262885547,0.0929740196644126,-1.527611440192953,9.753623658879537,-0.0008494864117099313,-0.0022864671037496555,0.001090830782496456,-11.433810067793237,59.11233363126201,-27.5625
1772912555.7826133,2.4968970060936633e-05,0.4526510395951636,-8.900830262885547,0.0929740196644126,-1.527611440192953,9.753623658879537,-0.0008494864117099313,-0.0022864671037496555,0.001090830782496456,-11.433810067793237,59.11233363126201,-27.5625
1772912555.821495,2.4968970060936633e-05,0.4526510395951636,-8.900830262885547,0.09372239782659841,-1.5279549106509143,9.755756616212729,0.0009669852677758899,0.001201982979907807,-0.003272492347489368,-11.84702137856489,59.44475867943133,-26.375
1772912555.8598108,2.4968970060936633e-05,0.4526510395951636,-8.900830262885547,0.09422043513360123,-1.5281834864038708,9.757176075491273,0.00011749885606595851,-0.0010844841238418484,0.002181661564992912,-11.84702137856489,59.44475867943133,-26.375
1772912555.881179,2.4968970060936633e-05,0.4526510395951636,-8.900830262885547,0.09122622417970844,-1.5286959197778673,9.758120709784746,0.00023499771213191702,-0.0021689682476836968,0.0,-11.84702137856489,59.44475867943133,-28.375
1772912555.9036098,2.4968970060936633e-05,0.4526510395951636,-8.900830262885547,0.08887329147365852,-1.5257112892457443,9.762094465062114,-0.0020514693916177384,-0.0013194818359737654,-0.002181661564992912,-11.84702137856489,59.44475867943133,-28.375
1772912555.93746,2.4968970060936633e-05,0.4526510395951636,-8.900830262885547,0.08887329147365852,-1.5257112892457443,9.762094465062114,-0.0020514693916177384,-0.0013194818359737654,-0.002181661564992912,-11.84702137856489,59.44475867943133,-28.375
1772912555.9545605,2.4968970060936633e-05,0.4526510395951636,-8.900830262885547,0.08730744104176284,-1.5237250509671239,9.764738954809449,-0.00011749885606595851,0.0010844841238418484,-0.001090830782496456,-13.648975912672233,59.249525211475685,-28.375
1772912555.9735231,2.4968970060936633e-05,0.4526510395951636,-8.900830262885547,0.08626538507103168,-1.5224032315804374,9.763153721488095,0.00023499771213191702,-0.0021689682476836968,0.0,-13.648975912672233,59.249525211475685,-28.375
1772912555.9920003,2.4968970060936633e-05,0.4526510395951636,-8.900830262885547,0.08925787644506214,-1.5244889059987874,9.76209876642095,-0.0009669852677758899,-0.001201982979907807,0.0,-13.648975912672233,59.249525211475685,-28.375
1772912556.0235515,2.4968970060936633e-05,0.4526510395951636,-8.900830262885547,0.08925787644506214,-1.5244889059987874,9.76209876642095,-0.0009669852677758899,-0.001201982979907807,0.0,-13.648975912672233,59.249525211475685,-28.375
1772912556.0507123,2.4968970060936633e-05,0.4526510395951636,-8.900830262885547,0.09124934602616043,-1.5258768990256892,9.761396705608385,0.00011749885606595851,-0.0010844841238418484,0.0,-13.086655310879845,60.44203382393928,-28.0
1772912556.0689163,2.4968970060936633e-05,0.4526510395951636,-8.900830262885547,0.09149369049492188,-1.5168236452254087,9.764274603687475,-0.0009669852677758899,-0.001201982979907807,0.0,-13.086655310879845,60.44203382393928,-28.0
1772912556.0901976,2.4968970060936633e-05,0.4526510395951636,-8.900830262885547,0.09149369049492188,-1.5168236452254087,9.764274603687475,-0.0009669852677758899,-0.001201982979907807,0.0,-13.086655310879845,60.44203382393928,-28.0
1772912556.1149027,2.4968970060936633e-05,0.4526510395951636,-8.900830262885547,0.0916562990093761,-1.5107988059527937,9.762844701003562,0.0,0.0,0.001090830782496456,-13.086655310879845,60.44203382393928,-28.0
1772912556.1458569,2.4968970060936633e-05,0.4526510395951636,-8.900830262885547,0.09248515068681364,-1.5134406411552563,9.761893116740477,-0.00023499771213191702,0.0021689682476836968,-0.001090830782496456,-11.806628247263722,59.071940499960846,-27.5625
1772912556.1622462,2.4968970060936633e-05,0.4526510395951636,-8.900830262885547,0.09248515068681364,-1.5134406411552563,9.761893116740477,-0.00023499771213191702,0.0021689682476836968,-0.001090830782496456,-11.806628247263722,59.071940499960846,-27.5625
1772912556.1814148,2.4968970060936633e-05,0.4526510395951636,-8.900830262885547,0.0933970609830306,-1.5185244021895243,9.761259848043288,-0.00011749885606595851,0.0010844841238418484,0.001090830782496456,-11.806628247263722,59.071940499960846,-27.5625
1772912556.1998048,2.4968970060936633e-05,0.4526510395951636,-8.900830262885547,0.09400392709845753,-1.521907588368498,9.757493303092064,-0.00035249656819787557,0.0032534523715255456,-0.001090830782496456,-11.806628247263722,59.071940499960846,-27.5625
1772912556.2212543,2.4968970060936633e-05,0.4526510395951636,-8.900830262885547,0.09400392709845753,-1.521907588368498,9.757493303092064,-0.00035249656819787557,0.0032534523715255456,-0.001090830782496456,-11.806628247263722,59.071940499960846,-27.5625
1772912556.239342,2.4968970060936633e-05,0.4526510395951636,-8.900830262885547,0.09108214050087352,-1.5245193797417014,9.758331821209408,-0.0010844841238418484,-0.00011749885606595851,-0.001090830782496456,-13.00586904827751,59.69639746499831,-28.75
1772912556.2530608,5.263537940663664,2.7097174575196123,125.23010675557138,0.09210305461317594,-1.5225715297429225,9.75554473394232,-0.0010844841238418484,-0.00011749885606595851,0.0,-13.00586904827751,59.69639746499831,-28.75
1772912556.2687824,5.263537940663664,2.7097174575196123,125.23010675557138,0.09210305461317594,-1.5225715297429225,9.75554473394232,-0.0010844841238418484,-0.00011749885606595851,0.0,-13.00586904827751,59.69639746499831,-28.75
1772912556.304899,2.4968970060936633e-05,0.4526510395951636,-8.900830262885547,0.09287428051414635,-1.5170869532973286,9.758026872343326,-0.00011749885606595851,0.0010844841238418484,0.001090830782496456,-11.561721650246932,60.29292453291855,-27.5625
1772912556.33265,2.4968970060936633e-05,0.4526510395951636,-8.900830262885547,0.09662135299075525,-1.517265014206074,9.758686905585764,-0.002521464815881572,0.0030184546593936285,-0.001090830782496456,-11.561721650246932,60.29292453291855,-27.5625
1772912556.3579962,2.4968970060936633e-05,0.4526510395951636,-8.900830262885547,0.09662135299075525,-1.517265014206074,9.758686905585764,-0.002521464815881572,0.0030184546593936285,-0.001090830782496456,-11.561721650246932,60.29292453291855,-27.5625
1772912556.3826365,2.4968970060936633e-05,0.4526510395951636,-8.900830262885547,0.09875466910263409,-1.5140578625335113,9.759126150335552,-0.00011749885606595851,0.0010844841238418484,-0.001090830782496456,-11.561721650246932,60.29292453291855,-27.5625
1772912556.4003286,2.4968970060936633e-05,0.4526510395951636,-8.900830262885547,0.10017436714438703,-1.5119235389216525,9.759418462809851,-0.002286467103749655,0.0008494864117099314,0.001090830782496456,-12.925082785675176,58.95076110605734,-28.375
1772912556.429487,2.4968970060936633e-05,0.4526510395951636,-8.900830262885547,0.10017436714438703,-1.5119235389216525,9.759418462809851,-0.002286467103749655,0.0008494864117099314,0.001090830782496456,-12.925082785675176,58.95076110605734,-28.375
1772912556.460171,2.4968970060936633e-05,0.4526510395951636,-8.900830262885547,0.09779351111384545,-1.5108634891636796,9.759612993496152,0.0,0.0,0.0,-12.925082785675176,58.95076110605734,-28.375
1772912556.4810066,2.4968970060936633e-05,0.4526510395951636,-8.900830262885547,0.09692971554894891,-1.5168093363278041,9.756397339787515,0.0,0.0,-0.002181661564992912,-12.530521374260777,59.37070460537919,-27.5625
1772912556.5039752,2.4968970060936633e-05,0.4526510395951636,-8.900830262885547,0.09302922003147707,-1.5211265499598265,9.754257358165624,-0.00011749885606595851,0.0010844841238418484,0.002181661564992912,-12.530521374260777,59.37070460537919,-27.5625
1772912556.5191445,2.4968970060936633e-05,0.4526510395951636,-8.900830262885547,0.09302922003147707,-1.5211265499598265,9.754257358165624,-0.00011749885606595851,0.0010844841238418484,0.002181661564992912,-12.530521374260777,59.37070460537919,-27.5625
1772912556.545168,2.4968970060936633e-05,0.4526510395951636,-8.900830262885547,0.09007316507222721,-1.5206739581872393,9.759523447716054,-0.00011749885606595851,0.0010844841238418484,0.0,-12.530521374260777,59.37070460537919,-27.5625
1772912556.560062,2.4968970060936633e-05,0.4526510395951636,-8.900830262885547,0.08810594351814396,-1.5203727634183637,9.76302797148579,-0.0008494864117099313,-0.0022864671037496555,0.0,-11.561721650246932,60.29292453291855,-27.5625
1772912556.5797648,2.4968970060936633e-05,0.4526510395951636,-8.900830262885547,0.09012242876746812,-1.519812002900481,9.765360192906455,-0.0010844841238418484,-0.00011749885606595851,0.0,-11.561721650246932,60.29292453291855,-27.5625
1772912556.6131926,2.4968970060936633e-05,0.4526510395951636,-8.900830262885547,0.09479002639353909,-1.5190785042761732,9.763567148501968,-0.00011749885606595851,0.0010844841238418484,-0.001090830782496456,-11.561721650246932,60.29292453291855,-27.5625
1772912556.6471646,2.4968970060936633e-05,0.4526510395951636,-8.900830262885547,0.09457061125494554,-1.5189506878991752,9.7623738974804,-0.002286467103749655,0.0008494864117099314,-0.002181661564992912,-13.45947349035033,60.40164069263812,-27.1875
1772912556.6681654,2.4968970060936633e-05,0.4526510395951636,-8.900830262885547,0.09457061125494554,-1.5189506878991752,9.7623738974804,-0.002286467103749655,0.0008494864117099314,-0.002181661564992912,-13.45947349035033,60.40164069263812,-27.1875
1772912556.681749,2.4968970060936633e-05,0.4526510395951636,-8.900830262885547,0.09442459293123923,-1.5188656275280854,9.761579802255033,0.00011749885606595851,-0.0010844841238418484,-0.001090830782496456,-13.45947349035033,60.40164069263812,-27.1875
1772912556.7106755,2.4968970060936633e-05,0.4526510395951636,-8.900830262885547,0.09442459293123923,-1.5188656275280854,9.761579802255033,0.00011749885606595851,-0.0010844841238418484,-0.001090830782496456,-13.45947349035033,60.40164069263812,-27.1875
1772912556.726859,2.4968970060936633e-05,0.4526510395951636,-8.900830262885547,0.0913620889134445,-1.522494988783336,9.754361117338538,-0.0009669852677758899,-0.001201982979907807,0.0,-11.887414509866057,59.817576858901816,-26.75
1772912556.741596,2.4968970060936633e-05,0.4526510395951636,-8.900830262885547,0.08932402670001353,-1.5249102881560832,9.749557163164605,0.0008494864117099313,0.0022864671037496555,-0.002181661564992912,-11.887414509866057,59.817576858901816,-26.75
1772912556.7539585,2.4968970060936633e-05,0.4526510395951636,-8.900830262885547,0.08932402670001353,-1.5249102881560832,9.749557163164605,0.0008494864117099313,0.0022864671037496555,-0.002181661564992912,-11.887414509866057,59.817576858901816,-26.75
1772912556.771745,2.4968970060936633e-05,0.4526510395951636,-8.900830262885547,0.09093304951812163,-1.5228316749259607,9.753050408740176,-0.00011749885606595851,0.0010844841238418484,0.0,-11.887414509866057,59.817576858901816,-26.75
1772912556.8106568,2.4968970060936633e-05,0.4526510395951636,-8.900830262885547,0.09093304951812163,-1.5228316749259607,9.753050408740176,-0.00011749885606595851,0.0010844841238418484,0.0,-11.887414509866057,59.817576858901816,-26.75
1772912556.8549128,2.4968970060936633e-05,0.4526510395951636,-8.900830262885547,0.09200383622960998,-1.5214483810409454,9.755375124648609,-0.0010844841238418484,-0.00011749885606595851,0.0,-12.965475916976343,59.32357928552783,-28.375
1772912556.8786497,2.4968970060936633e-05,0.4526510395951636,-8.900830262885547,0.09271643282463415,-1.5205278144128729,9.760267308824211,-0.002521464815881572,0.0030184546593936285,-0.001090830782496456,-12.965475916976343,59.32357928552783,-28.375
1772912556.909736,2.4968970060936633e-05,0.4526510395951636,-8.900830262885547,0.08986500868013529,-1.5202755063690558,9.756832779329159,-0.0021689682476836968,-0.00023499771213191702,-0.003272492347489368,-12.965475916976343,59.32357928552783,-28.375
1772912556.9463236,2.4968970060936633e-05,0.4526510395951636,-8.900830262885547,0.09129306698272796,-1.5197472794205988,9.761237361731048,-0.0010844841238418484,-0.00011749885606595851,0.0,-12.198096326091461,59.783915916150846,-27.1875
1772912556.9812694,2.4968970060936633e-05,0.4526510395951636,-8.900830262885547,0.08855745584862278,-1.5164304198325826,9.760823450409776,-0.00011749885606595851,0.0010844841238418484,0.0,-12.198096326091461,59.783915916150846,-27.1875
1772912557.024728,2.4968970060936633e-05,0.4526510395951636,-8.900830262885547,0.08709725596141664,-1.5175487360467692,9.760547997049162,-0.0010844841238418484,-0.00011749885606595851,-0.002181661564992912,-12.198096326091461,59.783915916150846,-27.1875
1772912557.0489001,2.4968970060936633e-05,0.4526510395951636,-8.900830262885547,0.08612550924798248,-1.5182929629948998,9.76036468591469,0.0,0.0,-0.001090830782496456,-11.887414509866057,59.817576858901816,-28.75
1772912557.0749924,2.4968970060936633e-05,0.4526510395951636,-8.900830262885547,0.08547882266531409,-1.5187882377153208,9.760242694402418,-0.0008494864117099313,-0.0022864671037496555,0.002181661564992912,-11.887414509866057,59.817576858901816,-28.75
1772912557.0913358,2.4968970060936633e-05,0.4526510395951636,-8.900830262885547,0.08837410918677265,-1.5187575187454176,9.760161510413734,0.0,0.0,-0.001090830782496456,-11.887414509866057,59.817576858901816,-28.75
1772912557.1164703,2.4968970060936633e-05,0.4526510395951636,-8.900830262885547,0.09030089002433371,-1.5187370756141005,9.760107483376151,-0.0009669852677758899,-0.001201982979907807,0.0,-12.891421842924204,58.64007928983194,-28.0
1772912557.1435628,2.4968970060936633e-05,0.4526510395951636,-8.900830262885547,0.09158314114817837,-1.5187234709385737,9.76007152898616,0.00011749885606595851,-0.0010844841238418484,0.0,-12.891421842924204,58.64007928983194,-28.0
1772912557.1612308,2.4968970060936633e-05,0.4526510395951636,-8.900830262885547,0.09158314114817837,-1.5187234709385737,9.76007152898616,0.00011749885606595851,-0.0010844841238418484,0.0,-12.891421842924204,58.64007928983194,-28.0
1772912557.17891,2.4968970060936633e-05,0.4526510395951636,-8.900830262885547,0.08875049696538928,-1.5157490867244852,9.763392713448578,-0.0010844841238418484,-0.00011749885606595851,0.0,-12.891421842924204,58.64007928983194,-28.0
1772912557.1965046,2.4968970060936633e-05,0.4526510395951636,-8.900830262885547,0.08875049696538928,-1.5157490867244852,9.763392713448578,-0.0010844841238418484,-0.00011749885606595851,0.0,-12.891421842924204,58.64007928983194,-28.0
1772912557.2313282,2.4968970060936633e-05,0.4526510395951636,-8.900830262885547,0.08722572266821421,-1.51709531647432,9.765602924608256,0.00011749885606595851,-0.0010844841238418484,0.001090830782496456,-12.117310063489127,59.038279557209876,-28.375
1772912557.2525043,2.4968970060936633e-05,0.4526510395951636,-8.900830262885547,0.08657132117005133,-1.5213168665527252,9.767073795445345,-0.0010844841238418484,-0.00011749885606595851,-0.001090830782496456,-12.117310063489127,59.038279557209876,-28.375
1772912557.266213,2.4968970060936633e-05,0.4526510395951636,-8.900830262885547,0.08613582428316763,-1.5241262609720996,9.768052643556723,-0.0010844841238418484,-0.00011749885606595851,-0.002181661564992912,-12.117310063489127,59.038279557209876,-28.375
1772912557.2887125,2.4968970060936633e-05,0.4526510395951636,-8.900830262885547,0.08613582428316763,-1.5241262609720996,9.768052643556723,-0.0010844841238418484,-0.00011749885606595851,-0.002181661564992912,-12.117310063489127,59.038279557209876,-28.375
1772912557.3162115,6.176696429857048,-0.007131002440820081,-1.7491922619283022,0.08584600596976552,-1.5259958815752013,9.765358944333077,-0.002286467103749655,0.0008494864117099314,-0.002181661564992912,-13.338294096446829,59.28318615422666,-28.0
1772912557.3433285,2.4968970060936633e-05,0.4526510395951636,-8.900830262885547,0.08861846557417882,-1.5235541252195106,9.763566317590332,-0.00011749885606595851,0.0010844841238418484,-0.003272492347489368,-13.338294096446829,59.28318615422666,-28.0
1772912557.366201,2.4968970060936633e-05,0.4526510395951636,-8.900830262885547,0.08861846557417882,-1.5235541252195106,9.763566317590332,-0.00011749885606595851,0.0010844841238418484,-0.003272492347489368,-13.338294096446829,59.28318615422666,-28.0
1772912557.4145622,2.4968970060936633e-05,0.4526510395951636,-8.900830262885547,0.09169136057656582,-1.5208477698625185,9.764924545972045,0.00046999542426383404,-0.0043379364953673935,0.002181661564992912,-12.570914505561944,59.743522784849674,-28.0
1772912557.4314177,2.4968970060936633e-05,0.4526510395951636,-8.900830262885547,0.09583413298637695,-1.5197677956191342,9.766622342040932,0.0020514693916177384,0.0013194818359737654,0.0,-12.570914505561944,59.743522784849674,-28.0
1772912557.462608,2.4968970060936633e-05,0.4526510395951636,-8.900830262885547,0.09583413298637695,-1.5197677956191342,9.766622342040932,0.0020514693916177384,0.0013194818359737654,0.0,-12.570914505561944,59.743522784849674,-28.0
1772912557.4793756,2.4968970060936633e-05,0.4526510395951636,-8.900830262885547,0.09859110174730616,-1.5190490848242644,9.767752206359152,0.00011749885606595851,-0.0010844841238418484,-0.001090830782496456,-12.530521374260777,59.37070460537919,-28.0
1772912557.4953508,2.4968970060936633e-05,0.4526510395951636,-8.900830262885547,0.10078615242410777,-1.5218964400370663,9.765159006734196,0.001436980692039724,-0.003135953515459587,-0.002181661564992912,-12.530521374260777,59.37070460537919,-28.0
1772912557.5196202,2.4968970060936633e-05,0.4526510395951636,-8.900830262885547,0.10078615242410777,-1.5218964400370663,9.765159006734196,0.001436980692039724,-0.003135953515459587,-0.002181661564992912,-12.530521374260777,59.37070460537919,-28.0
1772912557.5404673,2.4968970060936633e-05,0.4526510395951636,-8.900830262885547,0.09892128491093465,-1.5241516418879064,9.763433261351727,-0.001201982979907807,0.0009669852677758899,-0.001090830782496456,-12.198096326091461,59.783915916150846,-28.0
1772912557.5645738,2.4968970060936633e-05,0.4526510395951636,-8.900830262885547,0.09435458719459107,-1.5260127722911472,9.762284797077532,0.0010844841238418484,0.00011749885606595851,0.0,-12.198096326091461,59.783915916150846,-28.0
1772912557.5795367,2.4968970060936633e-05,0.4526510395951636,-8.900830262885547,0.09095518211395828,-1.5239256845660534,9.761520506932241,-0.002286467103749655,0.0008494864117099314,0.0,-12.198096326091461,59.783915916150846,-28.0
1772912557.611771,2.4968970060936633e-05,0.4526510395951636,-8.900830262885547,0.09095518211395828,-1.5239256845660534,9.761520506932241,-0.002286467103749655,0.0008494864117099314,0.0,-12.198096326091461,59.783915916150846,-28.0
1772912557.6331823,2.4968970060936633e-05,0.4526510395951636,-8.900830262885547,0.09201856522490198,-1.5221764322355387,9.76101188037823,-0.0021689682476836968,-0.00023499771213191702,0.001090830782496456,-11.433810067793237,59.11233363126201,-27.5625
1772912557.6471498,2.4968970060936633e-05,0.4526510395951636,-8.900830262885547,0.09201856522490198,-1.5221764322355387,9.76101188037823,-0.0021689682476836968,-0.00023499771213191702,0.001090830782496456,-11.433810067793237,59.11233363126201,-27.5625
1772912557.6794116,2.4968970060936633e-05,0.4526510395951636,-8.900830262885547,0.09308655357022952,-1.5243379735682718,9.760673395088268,0.0,0.0,0.001090830782496456,-11.433810067793237,59.11233363126201,-27.5625
1772912557.711409,2.4968970060936633e-05,0.4526510395951636,-8.900830262885547,0.09308655357022952,-1.5243379735682718,9.760673395088268,0.0,0.0,0.001090830782496456,-11.433810067793237,59.11233363126201,-27.5625
1772912557.7372622,2.4968970060936633e-05,0.4526510395951636,-8.900830262885547,0.09047163866557155,-1.5261367739429692,9.760448136908927,-0.0010844841238418484,-0.00011749885606595851,0.002181661564992912,-12.157703194790294,59.41109773668036,-28.0
1772912557.7775848,2.4968970060936633e-05,0.4526510395951636,-8.900830262885547,0.08837112324327294,-1.5240082062801517,9.756953118399554,-0.00023499771213191702,0.0021689682476836968,-0.001090830782496456,-12.157703194790294,59.41109773668036,-28.0
1772912557.8067725,2.4968970060936633e-05,0.4526510395951636,-8.900830262885547,0.08697325369402792,-1.5225916682782052,9.754627222623482,-0.00011749885606595851,0.0010844841238418484,0.001090830782496456,-11.84702137856489,59.44475867943133,-28.375
1772912557.8286326,2.4968970060936633e-05,0.4526510395951636,-8.900830262885547,0.08604298712423139,-1.5216489780616764,9.756424476673782,-0.00011749885606595851,0.0010844841238418484,-0.001090830782496456,-11.84702137856489,59.44475867943133,-28.375
1772912557.850802,2.4968970060936633e-05,0.4526510395951636,-8.900830262885547,0.08542390511379026,-1.5210216282531162,9.757620529167614,-0.0010844841238418484,-0.00011749885606595851,0.001090830782496456,-11.84702137856489,59.44475867943133,-28.375
1772912557.8645914,2.4968970060936633e-05,0.4526510395951636,-8.900830262885547,0.08542390511379026,-1.5210216282531162,9.757620529167614,-0.0010844841238418484,-0.00011749885606595851,0.001090830782496456,-11.84702137856489,59.44475867943133,-28.375
1772912557.8927393,2.4968970060936633e-05,0.4526510395951636,-8.900830262885547,0.08537223171520308,-1.5239297831817376,9.758416488741478,-0.001436980692039724,0.003135953515459587,-0.001090830782496456,-12.157703194790294,59.41109773668036,-27.1875
1772912557.9097528,2.4968970060936633e-05,0.4526510395951636,-8.900830262885547,0.085337843645673,-1.525865127800516,9.758946190946434,0.0009669852677758899,0.001201982979907807,-0.002181661564992912,-12.157703194790294,59.41109773668036,-27.1875
1772912557.9545674,2.4968970060936633e-05,0.4526510395951636,-8.900830262885547,0.08531495876954064,-1.5271530780250973,9.75929870184667,-0.0021689682476836968,-0.00023499771213191702,0.001090830782496456,-11.806628247263722,59.071940499960846,-27.5625
1772912557.9707258,2.4968970060936633e-05,0.4526510395951636,-8.900830262885547,0.08531495876954064,-1.5271530780250973,9.75929870184667,-0.0021689682476836968,-0.00023499771213191702,0.001090830782496456,-11.806628247263722,59.071940499960846,-27.5625
1772912557.9953017,2.4968970060936633e-05,0.4526510395951636,-8.900830262885547,0.08566004790387756,-1.5313358437304712,9.759533293912973,0.0,0.0,0.001090830782496456,-11.806628247263722,59.071940499960846,-27.5625
1772912558.012019,2.4968970060936633e-05,0.4526510395951636,-8.900830262885547,0.08885503132238029,-1.5304334596008191,9.766379635727171,-0.002521464815881572,0.0030184546593936285,0.0,-11.806628247263722,59.071940499960846,-27.5625
1772912558.0308316,2.4968970060936633e-05,0.4526510395951636,-8.900830262885547,0.08885503132238029,-1.5304334596008191,9.766379635727171,-0.002521464815881572,0.0030184546593936285,0.0,-11.806628247263722,59.071940499960846,-27.5625
1772912558.052582,2.4968970060936633e-05,0.4526510395951636,-8.900830262885547,0.09098125709709055,-1.5298329330428269,9.760900464603912,0.0010844841238418484,0.00011749885606595851,0.001090830782496456,-12.083649120738153,58.72759774098447,-27.5625
1772912558.0726967,2.4968970060936633e-05,0.4526510395951636,-8.900830262885547,0.09572188581692397,-1.529072970563042,9.767289472549693,0.0010844841238418484,0.00011749885606595851,0.0,-12.083649120738153,58.72759774098447,-27.5625
1772912558.1002178,2.4968970060936633e-05,0.4526510395951636,-8.900830262885547,0.09572188581692397,-1.529072970563042,9.767289472549693,0.0010844841238418484,0.00011749885606595851,0.0,-12.083649120738153,58.72759774098447,-27.5625
1772912558.1283002,2.4968970060936633e-05,0.4526510395951636,-8.900830262885547,0.09887672127368045,-1.5285672240220822,9.764851062553078,0.001201982979907807,-0.0009669852677758899,0.0,-12.49012824295961,58.9978864259087,-27.1875
1772912558.160773,2.4968970060936633e-05,0.4526510395951636,-8.900830262885547,0.09765057981006878,-1.5285909741123946,9.763228327939153,0.00035249656819787557,-0.0032534523715255456,0.001090830782496456,-12.49012824295961,58.9978864259087,-27.1875
1772912558.1805665,2.4968970060936633e-05,0.4526510395951636,-8.900830262885547,0.09683459636293282,-1.5286067795321918,9.76214841618072,0.00011749885606595851,-0.0010844841238418484,0.001090830782496456,-13.338294096446829,59.28318615422666,-29.0625
1772912558.1948245,2.4968970060936633e-05,0.4526510395951636,-8.900830262885547,0.09629156849399619,-1.5286172978625086,9.761429746968888,0.0,0.0,0.0,-13.338294096446829,59.28318615422666,-29.0625
1772912558.2220454,2.4968970060936633e-05,0.4526510395951636,-8.900830262885547,0.0926045402949757,-1.528984616457599,9.760951480636475,-0.0010844841238418484,-0.00011749885606595851,0.0,-13.338294096446829,59.28318615422666,-29.0625
1772912558.254523,2.4968970060936633e-05,0.4526510395951636,-8.900830262885547,0.0926045402949757,-1.528984616457599,9.760951480636475,-0.0010844841238418484,-0.00011749885606595851,0.0,-13.338294096446829,59.28318615422666,-29.0625
1772912558.281642,2.4968970060936633e-05,0.4526510395951636,-8.900830262885547,0.09015086421533125,-1.5292290628794145,9.763978311442159,-0.00011749885606595851,0.0010844841238418484,-0.001090830782496456,-12.570914505561944,59.743522784849674,-28.0
1772912558.302281,2.4968970060936633e-05,0.4526510395951636,-8.900830262885547,0.08851797019368561,-1.5293917392424872,9.765992633531425,0.0013194818359737654,-0.0020514693916177384,0.0,-12.570914505561944,59.743522784849674,-28.0
1772912558.335365,2.4968970060936633e-05,0.4526510395951636,-8.900830262885547,0.08743129746290182,-1.5294999985448978,9.76733314238038,-0.0009669852677758899,-0.001201982979907807,-0.002181661564992912,-12.117310063489127,59.038279557209876,-26.75
1772912558.352654,2.4968970060936633e-05,0.4526510395951636,-8.900830262885547,0.08743129746290182,-1.5294999985448978,9.76733314238038,-0.0009669852677758899,-0.001201982979907807,-0.002181661564992912,-12.117310063489127,59.038279557209876,-26.75
1772912558.3660321,2.4968970060936633e-05,0.4526510395951636,-8.900830262885547,0.08670812889949499,-1.5295720439013165,9.768225236044895,0.00023499771213191702,-0.0021689682476836968,0.001090830782496456,-12.117310063489127,59.038279557209876,-26.75
1772912558.3790102,2.4968970060936633e-05,0.4526510395951636,-8.900830262885547,0.08622686829886993,-1.529619989281214,9.765473802705971,-0.0010844841238418484,-0.00011749885606595851,-0.001090830782496456,-12.117310063489127,59.038279557209876,-26.75
1772912558.4036222,2.4968970060936633e-05,0.4526510395951636,-8.900830262885547,0.08622686829886993,-1.529619989281214,9.765473802705971,-0.0010844841238418484,-0.00011749885606595851,-0.001090830782496456,-12.117310063489127,59.038279557209876,-26.75
1772912558.4356208,2.4968970060936633e-05,0.4526510395951636,-8.900830262885547,0.08590659474518711,-1.5296518963959507,9.76698786626176,-0.0010844841238418484,-0.00011749885606595851,0.001090830782496456,-12.49012824295961,58.9978864259087,-27.1875
1772912558.4505777,2.4968970060936633e-05,0.4526510395951636,-8.900830262885547,0.08590659474518711,-1.5296518963959507,9.76698786626176,-0.0010844841238418484,-0.00011749885606595851,0.001090830782496456,-12.49012824295961,58.9978864259087,-27.1875
1772912558.481919,2.4968970060936633e-05,0.4526510395951636,-8.900830262885547,0.08901910549116313,-1.5293128114606198,9.76465034693762,-0.00011749885606595851,0.0010844841238418484,0.001090830782496456,-12.49012824295961,58.9978864259087,-27.1875
1772912558.5093424,2.4968970060936633e-05,0.4526510395951636,-8.900830262885547,0.09073012785982477,-1.5257615050057223,9.763094753939207,-0.0009669852677758899,-0.001201982979907807,0.0,-12.570914505561944,59.743522784849674,-26.75
1772912558.5249178,2.4968970060936633e-05,0.4526510395951636,-8.900830262885547,0.09222911289655907,-1.5267237994489422,9.762059524175875,-0.00011749885606595851,0.0010844841238418484,-0.001090830782496456,-12.570914505561944,59.743522784849674,-26.75
1772912558.5397992,2.4968970060936633e-05,0.4526510395951636,-8.900830262885547,0.09655231991200762,-1.5270038768876095,9.754680366918013,-0.0010844841238418484,-0.00011749885606595851,-0.001090830782496456,-12.570914505561944,59.743522784849674,-26.75
1772912558.5598843,2.4968970060936633e-05,0.4526510395951636,-8.900830262885547,0.09655231991200762,-1.5270038768876095,9.754680366918013,-0.0010844841238418484,-0.00011749885606595851,-0.001090830782496456,-12.570914505561944,59.743522784849674,-26.75
1772912558.5933344,2.4968970060936633e-05,0.4526510395951636,-8.900830262885547,0.09610371666914004,-1.527550584058135,9.76315006702277,-0.00011749885606595851,0.0010844841238418484,0.0,-12.083649120738153,58.72759774098447,-27.5625
1772912558.6165984,2.4968970060936633e-05,0.4526510395951636,-8.900830262885547,0.09580517622223826,-1.5279144115730006,9.765441446122418,0.0,0.0,0.0,-12.083649120738153,58.72759774098447,-27.5625
1772912558.6522763,5.263537940663664,2.7097174575196123,125.23010675557138,0.0956065008897404,-1.5281565347199237,9.766966333316853,-0.0020514693916177384,-0.0013194818359737654,-0.001090830782496456,-12.083649120738153,58.72759774098447,-27.5625
1772912558.6768064,5.263537940663664,2.7097174575196123,125.23010675557138,0.0956065008897404,-1.5281565347199237,9.766966333316853,-0.0020514693916177384,-0.0013194818359737654,-0.001090830782496456,-12.083649120738153,58.72759774098447,-27.5625
1772912558.6904037,5.263537940663664,2.7097174575196123,125.23010675557138,0.0956065008897404,-1.5281565347199237,9.766966333316853,-0.0020514693916177384,-0.0013194818359737654,-0.001090830782496456,-12.083649120738153,58.72759774098447,-27.5625
1772912558.716737,2.4968970060936633e-05,0.4526510395951636,-8.900830262885547,0.09214863545705004,-1.5286779837332705,9.761290905296004,-0.0010844841238418484,-0.00011749885606595851,0.0,-11.968200772468391,60.56321321784279,-27.5625
1772912558.7315507,2.4968970060936633e-05,0.4526510395951636,-8.900830262885547,0.08984746463848245,-1.5290250022266856,9.754168859639496,0.0,0.0,0.001090830782496456,-11.968200772468391,60.56321321784279,-27.5625
1772912558.7519836,2.4968970060936633e-05,0.4526510395951636,-8.900830262885547,0.08984746463848245,-1.5290250022266856,9.754168859639496,0.0,0.0,0.001090830782496456,-11.968200772468391,60.56321321784279,-27.5625
1772912558.771337,2.4968970060936633e-05,0.4526510395951636,-8.900830262885547,0.08831606116448808,-1.5292559391576028,9.752774329520872,-0.0008494864117099313,-0.0022864671037496555,0.0,-12.965475916976343,59.32357928552783,-28.375
1772912558.8066843,2.4968970060936633e-05,0.4526510395951636,-8.900830262885547,0.08765724802320471,-1.5327352743236555,9.748501173597528,0.0010844841238418484,0.00011749885606595851,0.001090830782496456,-12.965475916976343,59.32357928552783,-28.375
1772912558.8326197,2.4968970060936633e-05,0.4526510395951636,-8.900830262885547,0.09018414569160532,-1.5313647650279192,9.749002547772143,0.0013194818359737654,-0.0020514693916177384,0.001090830782496456,-13.00586904827751,59.69639746499831,-28.0
1772912558.8500555,2.4968970060936633e-05,0.4526510395951636,-8.900830262885547,0.09114513033510506,-1.5238014079646747,9.749336206684633,-0.00011749885606595851,0.0010844841238418484,-0.002181661564992912,-13.00586904827751,59.69639746499831,-28.0
1772912558.8626187,2.4968970060936633e-05,0.4526510395951636,-8.900830262885547,0.09114513033510506,-1.5238014079646747,9.749336206684633,-0.00011749885606595851,0.0010844841238418484,-0.002181661564992912,-13.00586904827751,59.69639746499831,-28.0
1772912558.881273,2.4968970060936633e-05,0.4526510395951636,-8.900830262885547,0.09178465488045229,-1.5187680783273196,9.75624847637832,0.00011749885606595851,-0.0010844841238418484,0.001090830782496456,-13.00586904827751,59.69639746499831,-28.0
1772912558.9127197,2.4968970060936633e-05,0.4526510395951636,-8.900830262885547,0.09221025132142363,-1.5154184536796362,9.760848514644355,0.00046999542426383404,-0.0043379364953673935,0.0,-12.49012824295961,58.9978864259087,-27.1875
1772912558.93754,2.4968970060936633e-05,0.4526510395951636,-8.900830262885547,0.08916783178040436,-1.513549634658124,9.760564677017289,-0.0013194818359737654,0.0020514693916177384,-0.001090830782496456,-12.49012824295961,58.9978864259087,-27.1875
1772912558.9544847,2.4968970060936633e-05,0.4526510395951636,-8.900830262885547,0.08916783178040436,-1.513549634658124,9.760564677017289,-0.0013194818359737654,0.0020514693916177384,-0.001090830782496456,-12.49012824295961,58.9978864259087,-27.1875
1772912558.984582,2.4968970060936633e-05,0.4526510395951636,-8.900830262885547,0.08714313556190918,-1.512305956475384,9.75703067453983,0.0,0.0,-0.002181661564992912,-12.49012824295961,58.9978864259087,-27.1875
1772912559.0006876,2.4968970060936633e-05,0.4526510395951636,-8.900830262885547,0.08615604160960155,-1.514803951755828,9.754678835368477,0.0010844841238418484,0.00011749885606595851,-0.001090830782496456,-11.474203199094404,59.485151810732496,-27.5625
1772912559.0191061,2.4968970060936633e-05,0.4526510395951636,-8.900830262885547,0.08549914161090275,-1.516466339710528,9.753113712671706,0.001201982979907807,-0.0009669852677758899,0.001090830782496456,-11.474203199094404,59.485151810732496,-27.5625
1772912559.03588,2.4968970060936633e-05,0.4526510395951636,-8.900830262885547,0.08838763121808443,-1.5172123215605282,9.752072141000571,-0.0009669852677758899,-0.001201982979907807,0.001090830782496456,-11.474203199094404,59.485151810732496,-27.5625
1772912559.0608616,2.4968970060936633e-05,0.4526510395951636,-8.900830262885547,0.08838763121808443,-1.5172123215605282,9.752072141000571,-0.0009669852677758899,-0.001201982979907807,0.001090830782496456,-11.474203199094404,59.485151810732496,-27.5625
1772912559.0805533,2.4968970060936633e-05,0.4526510395951636,-8.900830262885547,0.09363553800338263,-1.5173484453847779,9.758069210103187,-0.0009669852677758899,-0.001201982979907807,-0.001090830782496456,-11.806628247263722,59.071940499960846,-28.375
1772912559.1233692,2.4968970060936633e-05,0.4526510395951636,-8.900830262885547,0.09380231212777672,-1.5177993530329756,9.762060192599327,-0.001201982979907807,0.0009669852677758899,-0.001090830782496456,-11.806628247263722,59.071940499960846,-28.375
1772912559.1559474,2.4968970060936633e-05,0.4526510395951636,-8.900830262885547,0.09391329844457197,-1.5180994270358827,9.764716146868311,-0.0019339705355517797,-0.002403965959815614,0.0,-12.157703194790294,59.41109773668036,-27.1875
1772912559.173727,2.4968970060936633e-05,0.4526510395951636,-8.900830262885547,0.09391329844457197,-1.5180994270358827,9.764716146868311,-0.0019339705355517797,-0.002403965959815614,0.0,-12.157703194790294,59.41109773668036,-27.1875
1772912559.2175763,2.4968970060936633e-05,0.4526510395951636,-8.900830262885547,0.09398715859860081,-1.5182991229327711,9.75979343135073,-0.00011749885606595851,0.0010844841238418484,0.0,-12.157703194790294,59.41109773668036,-27.1875
1772912559.250997,2.4968970060936633e-05,0.4526510395951636,-8.900830262885547,0.09403631170603502,-1.518432018321401,9.756517419164114,-0.00023499771213191702,0.0021689682476836968,-0.001090830782496456,-11.806628247263722,59.071940499960846,-28.0
1772912559.2716997,2.4968970060936633e-05,0.4526510395951636,-8.900830262885547,0.09403631170603502,-1.518432018321401,9.756517419164114,-0.00023499771213191702,0.0021689682476836968,-0.001090830782496456,-11.806628247263722,59.071940499960846,-28.0
1772912559.2942853,2.4968970060936633e-05,0.4526510395951636,-8.900830262885547,0.0940690225499563,-1.5185204587179955,9.757682381356695,-0.001436980692039724,0.003135953515459587,-0.002181661564992912,-11.806628247263722,59.071940499960846,-28.0
1772912559.3319893,2.4968970060936633e-05,0.4526510395951636,-8.900830262885547,0.09409079125118183,-1.5185793148139852,9.761802762389696,0.0,0.0,-0.001090830782496456,-12.157703194790294,59.41109773668036,-27.5625
1772912559.3482792,2.4968970060936633e-05,0.4526510395951636,-8.900830262885547,0.09410527807867512,-1.5186184828884006,9.761199718232167,0.0009669852677758899,0.001201982979907807,-0.001090830782496456,-12.157703194790294,59.41109773668036,-27.5625
1772912559.3668718,2.4968970060936633e-05,0.4526510395951636,-8.900830262885547,0.09410527807867512,-1.5186184828884006,9.761199718232167,0.0009669852677758899,0.001201982979907807,-0.001090830782496456,-12.157703194790294,59.41109773668036,-27.5625
1772912559.3924904,2.4968970060936633e-05,0.4526510395951636,-8.900830262885547,0.09411491890054344,-1.518644548804388,9.760798399081777,-0.00011749885606595851,0.0010844841238418484,0.0,-12.157703194790294,59.41109773668036,-27.5625
1772912559.4187996,2.4968970060936633e-05,0.4526510395951636,-8.900830262885547,0.09412133475980175,-1.5186618953803024,9.76053132567022,-0.0010844841238418484,-0.00011749885606595851,0.0,-11.806628247263722,59.071940499960846,-28.0
1772912559.4413152,2.4968970060936633e-05,0.4526510395951636,-8.900830262885547,0.09412560444246831,-1.5186734393327992,9.757008479590915,-0.0020514693916177384,-0.0013194818359737654,0.0,-11.806628247263722,59.071940499960846,-28.0
1772912559.4677515,2.4968970060936633e-05,0.4526510395951636,-8.900830262885547,0.09709377632308715,-1.5149951537222075,9.754664064877907,-0.00011749885606595851,0.0010844841238418484,0.0,-11.806628247263722,59.071940499960846,-28.0
1772912559.488706,2.4968970060936633e-05,0.4526510395951636,-8.900830262885547,0.09709377632308715,-1.5149951537222075,9.754664064877907,-0.00011749885606595851,0.0010844841238418484,0.0,-11.806628247263722,59.071940499960846,-28.0
1772912559.5079648,2.4968970060936633e-05,0.4526510395951636,-8.900830262885547,0.09241776311646273,-1.5132679332650256,9.753103883075228,-0.0008494864117099313,-0.0022864671037496555,0.001090830782496456,-12.157703194790294,59.41109773668036,-27.5625
1772912559.5389764,2.4968970060936633e-05,0.4526510395951636,-8.900830262885547,0.08930592856194426,-1.5121184873450877,9.75206559951392,-0.0021689682476836968,-0.00023499771213191702,0.0,-12.157703194790294,59.41109773668036,-27.5625
1772912559.5683994,2.4968970060936633e-05,0.4526510395951636,-8.900830262885547,0.08759535619114404,-1.514679193143783,9.751374633402255,0.0,0.0,0.0,-12.530521374260777,59.37070460537919,-28.0
1772912559.595564,2.4968970060936633e-05,0.4526510395951636,-8.900830262885547,0.09274796905948356,-1.5123370275020709,9.75091480317354,0.0,0.0,0.0,-12.530521374260777,59.37070460537919,-28.0
1772912559.6184828,2.4968970060936633e-05,0.4526510395951636,-8.900830262885547,0.09274796905948356,-1.5123370275020709,9.75091480317354,0.0,0.0,0.0,-12.530521374260777,59.37070460537919,-28.0
1772912559.648978,2.4968970060936633e-05,0.4526510395951636,-8.900830262885547,0.09537307965065252,-1.5123145560967945,9.752631278278702,-0.0010844841238418484,-0.00011749885606595851,0.0,-12.570914505561944,59.743522784849674,-26.375
1772912559.688506,2.4968970060936633e-05,0.4526510395951636,-8.900830262885547,0.09459830792066069,-1.5111237067257886,9.751751086301173,0.0009669852677758899,0.001201982979907807,0.0,-12.570914505561944,59.743522784849674,-26.375
1772912559.7192402,2.4968970060936633e-05,0.4526510395951636,-8.900830262885547,0.09459830792066069,-1.5111237067257886,9.751751086301173,0.0009669852677758899,0.001201982979907807,0.0,-12.570914505561944,59.743522784849674,-26.375
1772912559.7444825,2.4968970060936633e-05,0.4526510395951636,-8.900830262885547,0.09408270598911841,-1.5103312097720432,9.751165328372515,0.0008494864117099313,0.0022864671037496555,0.0,-11.203914514170167,59.89163093295396,-27.5625
1772912559.7853763,2.4968970060936633e-05,0.4526510395951636,-8.900830262885547,0.09409989742709018,-1.5131294611203585,9.757465736428976,0.00023499771213191702,-0.0021689682476836968,-0.001090830782496456,-11.203914514170167,59.89163093295396,-27.5625
1772912559.8026702,2.4968970060936633e-05,0.4526510395951636,-8.900830262885547,0.09409989742709018,-1.5131294611203585,9.757465736428976,0.00023499771213191702,-0.0021689682476836968,-0.001090830782496456,-11.203914514170167,59.89163093295396,-27.5625
1772912559.8229072,2.4968970060936633e-05,0.4526510395951636,-8.900830262885547,0.09411133813701948,-1.514991666134147,9.761658587610382,0.0009669852677758899,0.001201982979907807,-0.001090830782496456,-11.203914514170167,59.89163093295396,-27.5625
1772912559.8532226,2.4968970060936633e-05,0.4526510395951636,-8.900830262885547,0.09079330258341439,-1.5165912615323922,9.76444888323439,-0.001201982979907807,0.0009669852677758899,0.0,-12.117310063489127,59.038279557209876,-28.375
1772912559.8827503,2.4968970060936633e-05,0.4526510395951636,-8.900830262885547,0.08894550575113815,-1.520981423619535,9.769650905509843,0.0,0.0,-0.002181661564992912,-12.117310063489127,59.038279557209876,-28.375
1772912559.9089828,2.4968970060936633e-05,0.4526510395951636,-8.900830262885547,0.08894550575113815,-1.520981423619535,9.769650905509843,0.0,0.0,-0.002181661564992912,-12.117310063489127,59.038279557209876,-28.375
1772912559.9554327,2.4968970060936633e-05,0.4526510395951636,-8.900830262885547,0.09104146681876332,-1.5235427086834423,9.773112793223762,-0.00023499771213191702,0.0021689682476836968,-0.001090830782496456,-11.123128251567833,59.14599457401299,-28.375
1772912559.979694,2.4968970060936633e-05,0.4526510395951636,-8.900830262885547,0.09576195471411053,-1.5248868965182816,9.775416640825554,0.0010844841238418484,0.00011749885606595851,-0.002181661564992912,-11.123128251567833,59.14599457401299,-28.375
1772912559.9967775,2.4968970060936633e-05,0.4526510395951636,-8.900830262885547,0.09576195471411053,-1.5248868965182816,9.775416640825554,0.0010844841238418484,0.00011749885606595851,-0.002181661564992912,-11.123128251567833,59.14599457401299,-28.375
1772912560.0106018,2.4968970060936633e-05,0.4526510395951636,-8.900830262885547,0.09557773745889729,-1.5261417572705676,9.773604713961564,0.0010844841238418484,0.00011749885606595851,-0.001090830782496456,-11.514596330395571,59.85796999020298,-27.1875
1772912560.0308726,2.4968970060936633e-05,0.4526510395951636,-8.900830262885547,0.09545514293339445,-1.5269768530835006,9.772398896874128,0.0021689682476836968,0.00023499771213191702,-0.001090830782496456,-11.514596330395571,59.85796999020298,-27.1875
1772912560.0575786,2.4968970060936633e-05,0.4526510395951636,-8.900830262885547,0.09545514293339445,-1.5269768530835006,9.772398896874128,0.0021689682476836968,0.00023499771213191702,-0.001090830782496456,-11.514596330395571,59.85796999020298,-27.1875
1772912560.1344416,2.4968970060936633e-05,0.4526510395951636,-8.900830262885547,0.08942011316200285,-1.5251769010531953,9.765491166188028,0.00023499771213191702,-0.0021689682476836968,0.0,-12.925082785675176,58.95076110605734,-27.5625
1772912560.164798,2.4968970060936633e-05,0.4526510395951636,-8.900830262885547,0.09099699398521942,-1.5230091028307278,9.763654309757786,-0.0008494864117099313,-0.0022864671037496555,0.0,-12.925082785675176,58.95076110605734,-27.5625
1772912560.185718,2.4968970060936633e-05,0.4526510395951636,-8.900830262885547,0.09099699398521942,-1.5230091028307278,9.763654309757786,-0.0008494864117099313,-0.0022864671037496555,0.0,-12.925082785675176,58.95076110605734,-27.5625
1772912560.233374,2.4968970060936633e-05,0.4526510395951636,-8.900830262885547,0.09204639055815704,-1.5215664573295682,9.755741678907853,-0.0009669852677758899,-0.001201982979907807,0.002181661564992912,-12.925082785675176,58.95076110605734,-27.5625
1772912560.2553585,2.4968970060936633e-05,0.4526510395951636,-8.900830262885547,0.09204639055815704,-1.5215664573295682,9.755741678907853,-0.0009669852677758899,-0.001201982979907807,0.002181661564992912,-12.925082785675176,58.95076110605734,-27.5625
1772912560.3230805,2.4968970060936633e-05,0.4526510395951636,-8.900830262885547,0.09310507101868143,-1.5239320420822147,9.7504759114671,0.0009669852677758899,0.001201982979907807,0.001090830782496456,-11.561721650246932,60.29292453291855,-27.5625
1772912560.389179,2.4968970060936633e-05,0.4526510395951636,-8.900830262885547,0.09380961103892478,-1.5255063123097878,9.750316713765075,0.00011749885606595851,-0.0010844841238418484,0.0,-12.245221645942822,60.218870458866405,-28.0
1772912560.4715545,131.96050136588832,3.7974358177866128,-1.4668566696533019,0.09114431811291976,-1.5264990290390243,9.755711510910848,-0.0008494864117099313,-0.0022864671037496555,0.0,-12.570914505561944,59.743522784849674,-27.5625
1772912560.534938,2.4968970060936633e-05,0.4526510395951636,-8.900830262885547,0.09214443311942327,-1.5238889642361595,9.757146058416732,-0.0010844841238418484,-0.00011749885606595851,-0.001090830782496456,-12.570914505561944,59.743522784849674,-27.5625
1772912560.5769138,2.4968970060936633e-05,0.4526510395951636,-8.900830262885547,0.08948434926597282,-1.5225123140299495,9.758100733756951,0.00011749885606595851,-0.0010844841238418484,0.0,-11.400149125042264,58.80165181503661,-27.5625
1772912560.6456711,2.4968970060936633e-05,0.4526510395951636,-8.900830262885547,0.08948434926597282,-1.5225123140299495,9.758100733756951,0.00011749885606595851,-0.0010844841238418484,0.0,-11.400149125042264,58.80165181503661,-27.5625
1772912560.686335,2.4968970060936633e-05,0.4526510395951636,-8.900830262885547,0.08771409317658521,-1.5215961686959072,9.758736059531445,-0.0009669852677758899,-0.001201982979907807,0.0,-11.400149125042264,58.80165181503661,-27.5625
1772912560.7283618,2.4968970060936633e-05,0.4526510395951636,-8.900830262885547,0.086536007524154,-1.520986484210116,9.759158861737317,-0.0008494864117099313,-0.0022864671037496555,0.0,-13.378687227747996,59.65600433369715,-27.1875
1772912560.789978,2.4968970060936633e-05,0.4526510395951636,-8.900830262885547,0.086536007524154,-1.520986484210116,9.759158861737317,-0.0008494864117099313,-0.0022864671037496555,0.0,-13.378687227747996,59.65600433369715,-27.1875
1772912560.8664043,2.4968970060936633e-05,0.4526510395951636,-8.900830262885547,0.08575200468254002,-1.5205807459954437,9.762785343589634,-0.00011749885606595851,0.0010844841238418484,0.002181661564992912,-13.378687227747996,59.65600433369715,-27.1875
1772912560.9179974,2.4968970060936633e-05,0.4526510395951636,-8.900830262885547,0.08548315086747788,-1.525669871902285,9.766804806287121,-0.0010844841238418484,-0.00011749885606595851,-0.001090830782496456,-11.772967304512749,58.76125868373544,-28.0
1772912560.9530318,2.4968970060936633e-05,0.4526510395951636,-8.900830262885547,0.08548315086747788,-1.525669871902285,9.766804806287121,-0.0010844841238418484,-0.00011749885606595851,-0.001090830782496456,-11.772967304512749,58.76125868373544,-28.0
1772912560.9723783,2.4968970060936633e-05,0.4526510395951636,-8.900830262885547,0.08873730832072568,-1.5266628186422135,9.767873634276732,0.0009669852677758899,0.001201982979907807,-0.001090830782496456,-11.887414509866057,59.817576858901816,-26.75
1772912561.0169017,2.4968970060936633e-05,0.4526510395951636,-8.900830262885547,0.08757726453627956,-1.5276839323694562,9.765239815656907,0.0,0.0,-0.001090830782496456,-11.887414509866057,59.817576858901816,-26.75
1772912561.052308,2.4968970060936633e-05,0.4526510395951636,-8.900830262885547,0.08757726453627956,-1.5276839323694562,9.765239815656907,0.0,0.0,-0.001090830782496456,-11.887414509866057,59.817576858901816,-26.75
1772912561.0967448,2.4968970060936633e-05,0.4526510395951636,-8.900830262885547,0.0901177714558472,-1.5227972904326466,9.762320585360037,-0.0010844841238418484,-0.00011749885606595851,0.001090830782496456,-11.934539829717417,60.25253140161738,-28.75
1772912561.1458297,2.4968970060936633e-05,0.4526510395951636,-8.900830262885547,0.0901177714558472,-1.5227972904326466,9.762320585360037,-0.0010844841238418484,-0.00011749885606595851,0.001090830782496456,-11.934539829717417,60.25253140161738,-28.75
1772912561.1601868,2.4968970060936633e-05,0.4526510395951636,-8.900830262885547,0.09478692700468096,-1.5210651797809827,9.761544323634467,-0.001201982979907807,0.0009669852677758899,-0.001090830782496456,-11.887414509866057,59.817576858901816,-26.0
1772912561.1771748,2.4968970060936633e-05,0.4526510395951636,-8.900830262885547,0.09124289942802097,-1.5206331170187686,9.761027730127513,0.0,0.0,-0.002181661564992912,-11.887414509866057,59.817576858901816,-26.0
1772912561.1947484,2.4968970060936633e-05,0.4526510395951636,-8.900830262885547,0.09124289942802097,-1.5206331170187686,9.761027730127513,0.0,0.0,-0.002181661564992912,-11.887414509866057,59.817576858901816,-26.0
1772912561.239233,2.4968970060936633e-05,0.4526510395951636,-8.900830262885547,0.09257035664715992,-1.523310914531472,9.760683942919362,-0.001201982979907807,0.0009669852677758899,-0.002181661564992912,-11.887414509866057,59.817576858901816,-26.0
