timestamp,yaw,pitch,roll,ax,ay,az,gx,gy,gz,mx,my,mz
1774889304.2945476,-0.016392563481462993,0.2091835457821029,-8.961698725530281,-0.028809344137646,-1.235823337001335,6.604030737156013,-0.001090830782496456,0.004363323129985824,-0.002181661564992912,42.5,25.25,-57.75
1774889304.5763812,-0.016392563481462993,0.2091835457821029,-8.961698725530281,-0.029207631824100883,-1.3342287169430334,7.659737710063968,-0.001090830782496456,-0.001090830782496456,0.0,43.1875,27.5,-56.5625
1774889304.7783773,-0.016392563481462993,0.2091835457821029,-8.961698725530281,-0.026499474304904097,-1.480841377957526,9.349921130761325,-0.001090830782496456,0.001090830782496456,0.001090830782496456,43.1875,26.75,-56.25
1774889304.9437602,-0.016392563481462993,0.2091835457821029,-8.961698725530281,-0.026499474304904097,-1.480841377957526,9.349921130761325,-0.001090830782496456,0.001090830782496456,0.001090830782496456,43.1875,26.75,-56.25
1774889304.9577508,0.0,0.0,0.0,-0.031015550960667243,-1.497285486168523,9.493787316817423,0.003272492347489368,0.004363323129985824,-0.001090830782496456,42.0625,25.25,-57.5
1774889304.9982462,0.0,0.0,0.0,-0.030675837819876497,-1.511573968197536,9.586183544839837,0.0,-0.001090830782496456,0.0,42.0625,25.25,-57.5
1774889305.0226965,-0.016392563481462993,0.2091835457821029,-8.961698725530281,-0.033794874226844074,-1.524427905082361,9.64432709074794,-0.001090830782496456,0.003272492347489368,0.001090830782496456,42.0625,25.25,-57.5
1774889305.056192,-0.016392563481462993,0.2091835457821029,-8.961698725530281,-0.032525446406442005,-1.5296369447840092,9.683020971043815,-0.002181661564992912,0.002181661564992912,-0.002181661564992912,42.0625,25.25,-57.5
1774889305.3348265,-0.016392563481462993,0.2091835457821029,-8.961698725530281,-0.032525446406442005,-1.5296369447840092,9.683020971043815,-0.002181661564992912,0.002181661564992912,-0.002181661564992912,42.0625,25.25,-57.5
1774889305.3545995,0.0,0.0,0.0,-0.031680656372402326,-1.53310350251667,9.715461539556395,0.0,0.002181661564992912,0.001090830782496456,42.5,25.6875,-57.75
1774889305.376898,-0.016392563481462993,0.2091835457821029,-8.961698725530281,-0.03111845804167193,-1.532065346256449,9.737050375516622,-0.001090830782496456,0.002181661564992912,0.0,42.5,25.6875,-57.75
1774889305.6304789,0.0,0.0,0.0,-0.030495337532322857,-1.5309146910120404,9.745372087352145,0.001090830782496456,0.003272492347489368,-0.003272492347489368,42.5,27.5,-58.25
1774889305.664365,0.0,0.0,0.0,-0.03032964159447807,-1.5306087166507447,9.736884840708067,-0.002181661564992912,0.0,0.002181661564992912,43.5625,24.5625,-56.5625
1774889305.6837077,0.0,0.0,0.0,-0.03032964159447807,-1.5306087166507447,9.736884840708067,-0.002181661564992912,0.0,0.002181661564992912,43.5625,24.5625,-56.5625
1774889305.7197995,-0.016392563481462993,0.2091835457821029,-8.961698725530281,-0.026874261091467882,-1.5237148707166213,9.73123667287519,0.0,-0.001090830782496456,0.0,43.5625,24.5625,-56.5625
1774889305.9354796,0.0,0.0,0.0,-0.02457474396584395,-1.519127093256767,9.727477880276577,0.001090830782496456,0.003272492347489368,-0.001090830782496456,42.0625,25.6875,-57.75
1774889306.006363,-0.016392563481462993,0.2091835457821029,-8.961698725530281,-0.02304444100603062,-1.5160739786060664,9.728321557497985,0.0,-0.001090830782496456,0.001090830782496456,42.0625,25.6875,-57.75
1774889306.4698853,-0.016392563481462993,0.2091835457821029,-8.961698725530281,-0.01912217349928383,-1.5238325079570847,9.729256659135956,0.0,0.001090830782496456,0.002181661564992912,43.1875,27.5,-57.5
1774889306.517894,-0.016392563481462993,0.2091835457821029,-8.961698725530281,-0.019415816269737915,-1.5258956029408401,9.739540650080599,-0.001090830782496456,-0.001090830782496456,0.0,43.1875,27.5,-57.5
1774889306.7709033,-0.016392563481462993,0.2091835457821029,-8.961698725530281,-0.025312525588566007,-1.522611017403841,9.74090372246946,0.0,0.001090830782496456,-0.001090830782496456,43.1875,26.0625,-57.5
1774889306.8451047,-0.016392563481462993,0.2091835457821029,-8.961698725530281,-0.026880538141710795,-1.5217376029152807,9.737256305500864,-0.001090830782496456,0.0,0.0,42.75,27.5,-56.25
1774889307.1202717,0.0,0.0,0.0,-0.027924032979980744,-1.5245014670371424,9.74486432537454,-0.002181661564992912,-0.001090830782496456,0.003272492347489368,42.75,27.5,-56.25
1774889307.153457,0.0,0.0,0.0,-0.027924032979980744,-1.5245014670371424,9.74486432537454,-0.002181661564992912,-0.001090830782496456,0.003272492347489368,42.75,27.5,-56.25
1774889307.1879046,-0.016392563481462993,0.2091835457821029,-8.961698725530281,-0.031963578845567664,-1.5263407877358561,9.74992737761332,-0.002181661564992912,0.0,0.0,42.0625,26.75,-58.5625
1774889307.4459982,-0.016392563481462993,0.2091835457821029,-8.961698725530281,-0.03465185149443174,-1.5275648351142916,9.74995167061291,0.0,0.001090830782496456,-0.001090830782496456,42.0625,26.75,-58.5625
1774889307.4620693,0.0,0.0,0.0,-0.036440866912277645,-1.5283794249711353,9.746622725625446,0.002181661564992912,0.001090830782496456,0.003272492347489368,43.1875,25.6875,-57.5
1774889307.4781861,0.0,0.0,0.0,-0.036440866912277645,-1.5283794249711353,9.746622725625446,0.002181661564992912,0.001090830782496456,0.003272492347489368,43.1875,25.6875,-57.5
1774889307.5076387,0.0,0.0,0.0,-0.034286324980923044,-1.5289215254212998,9.734372014801083,0.0,-0.001090830782496456,0.001090830782496456,43.1875,25.6875,-57.5
1774889307.5397794,-0.016392563481462993,0.2091835457821029,-8.961698725530281,-0.036197613100736305,-1.525937175507906,9.726219303596878,0.0,0.0,0.002181661564992912,42.5,27.1875,-57.0625
1774889307.8181543,-0.016392563481462993,0.2091835457821029,-8.961698725530281,-0.036197613100736305,-1.525937175507906,9.726219303596878,0.0,0.0,0.002181661564992912,42.5,27.1875,-57.0625
1774889307.855399,0.0,0.0,0.0,-0.034124442286665405,-1.5272962356852349,9.734174212191506,0.0,0.001090830782496456,0.001090830782496456,42.75,25.25,-57.0625
1774889307.877378,0.0,0.0,0.0,-0.034124442286665405,-1.5272962356852349,9.734174212191506,0.0,0.001090830782496456,0.001090830782496456,42.75,25.25,-57.0625
1774889308.1686013,0.0,0.0,0.0,-0.03182661395275133,-1.5288025693465834,9.748562394361945,0.004363323129985824,0.003272492347489368,-0.001090830782496456,42.75,25.6875,-57.75
1774889308.210429,0.0,0.0,0.0,-0.03182661395275133,-1.5288025693465834,9.748562394361945,0.004363323129985824,0.003272492347489368,-0.001090830782496456,42.75,25.6875,-57.75
1774889308.2431924,-0.016392563481462993,0.2091835457821029,-8.961698725530281,-0.02746385064455375,-1.5294696874420926,9.760505812216442,-0.001090830782496456,0.0,-0.001090830782496456,42.0625,27.1875,-57.75
1774889308.520789,0.0,0.0,0.0,-0.02496710922727574,-1.529647082916692,9.76368172408707,-0.002181661564992912,0.004363323129985824,-0.002181661564992912,42.0625,27.1875,-57.75
1774889308.5689964,-0.016392563481462993,0.2091835457821029,-8.961698725530281,-0.02330555570450632,-1.5297651376234007,9.762450146252391,-0.001090830782496456,-0.001090830782496456,0.0,42.5,25.6875,-57.0
1774889308.8356884,-0.016392563481462993,0.2091835457821029,-8.961698725530281,-0.028890033810511043,-1.529843701711958,9.761630544961038,0.0,-0.002181661564992912,0.001090830782496456,42.5,25.6875,-57.0
1774889308.8512738,0.0,0.0,0.0,-0.03595155331466863,-1.526550873527955,9.76108510945719,0.001090830782496456,0.001090830782496456,-0.001090830782496456,41.75,26.0625,-57.0
1774889308.873283,0.0,0.0,0.0,-0.03595155331466863,-1.526550873527955,9.76108510945719,0.001090830782496456,0.001090830782496456,-0.001090830782496456,41.75,26.0625,-57.0
1774889308.9145439,-0.016392563481462993,0.2091835457821029,-8.961698725530281,-0.04065091566234404,-1.5243595331548019,9.757377016514974,-0.001090830782496456,0.0,0.001090830782496456,41.75,26.0625,-57.0
1774889309.1545792,-0.016392563481462993,0.2091835457821029,-8.961698725530281,-0.037088065394766195,-1.5262463323226638,9.75490932208404,0.001090830782496456,-0.002181661564992912,0.002181661564992912,42.75,26.375,-56.5625
1774889309.1818454,0.0,0.0,0.0,-0.03471702834133841,-1.534192199506587,9.756612210713527,0.0,0.002181661564992912,0.001090830782496456,42.75,26.375,-56.5625
1774889309.2202253,-0.016392563481462993,0.2091835457821029,-8.961698725530281,-0.03313912966850157,-1.5428251970636548,9.757745464073938,-0.001090830782496456,0.0,0.0,42.5,25.6875,-57.0
1774889309.253706,-0.016392563481462993,0.2091835457821029,-8.961698725530281,-0.032089055728011746,-1.548570360500982,9.761844743233342,0.001090830782496456,0.001090830782496456,0.0,42.5,25.6875,-57.0
1774889309.4614766,0.0,0.0,0.0,-0.03139024325071028,-1.5523937025908425,9.764572767721976,0.001090830782496456,0.00545415391248228,-0.001090830782496456,43.1875,24.875,-57.0625
1774889309.535663,-0.016392563481462993,0.2091835457821029,-8.961698725530281,-0.030925191353313005,-1.5482478706274763,9.766388237545131,0.0,-0.002181661564992912,0.0,43.1875,24.875,-57.0625
1774889309.5607667,-0.016392563481462993,0.2091835457821029,-8.961698725530281,-0.030615704510565205,-1.5454888657678336,9.767596412432315,0.0,0.0,-0.001090830782496456,43.1875,24.875,-57.0625
1774889309.782629,-0.016392563481462993,0.2091835457821029,-8.961698725530281,-0.030615704510565205,-1.5454888657678336,9.767596412432315,0.0,0.0,-0.001090830782496456,43.1875,24.875,-57.0625
1774889309.8180678,0.0,0.0,0.0,-0.030409744473911104,-1.5436527788538452,9.768400439323537,-0.001090830782496456,0.004363323129985824,-0.003272492347489368,42.75,25.25,-56.5625
1774889309.8475018,-0.016392563481462993,0.2091835457821029,-8.961698725530281,-0.03361779207756154,-1.5424308835230205,9.768935510238077,-0.001090830782496456,0.002181661564992912,0.002181661564992912,42.75,25.25,-56.5625
1774889309.8709953,-0.016392563481462993,0.2091835457821029,-8.961698725530281,-0.039097823628870466,-1.5349275024151832,9.772636705661888,0.001090830782496456,0.001090830782496456,-0.001090830782496456,42.75,26.375,-57.0625
1774889310.1075423,-0.016392563481462993,0.2091835457821029,-8.961698725530281,-0.039097823628870466,-1.5349275024151832,9.772636705661888,0.001090830782496456,0.001090830782496456,-0.001090830782496456,42.75,26.375,-57.0625
1774889310.1306744,0.0,0.0,0.0,-0.04274472341030308,-1.5299340861061763,9.775099809871374,0.001090830782496456,-0.001090830782496456,0.0,42.75,26.375,-57.0625
1774889310.1527643,0.0,0.0,0.0,-0.04274472341030308,-1.5299340861061763,9.775099809871374,0.001090830782496456,-0.001090830782496456,0.0,42.75,26.375,-57.0625
1774889310.187268,0.0,0.0,0.0,-0.045171694476306624,-1.5333012467472862,9.77673897820811,-0.001090830782496456,-0.001090830782496456,0.0,42.75,26.0625,-57.5
1774889310.207273,-0.016392563481462993,0.2091835457821029,-8.961698725530281,-0.0434417049023694,-1.5355420545402958,9.767794491303539,0.0,0.0,0.001090830782496456,42.75,26.0625,-57.5
1774889310.4075453,-0.016392563481462993,0.2091835457821029,-8.961698725530281,-0.0434417049023694,-1.5355420545402958,9.767794491303539,0.0,0.0,0.001090830782496456,42.75,26.0625,-57.5
1774889310.4398332,0.0,0.0,0.0,-0.04229041616616396,-1.5303430636804418,9.758496923477693,0.0,0.0,0.006544984694978736,43.5625,25.6875,-57.75
1774889310.4653502,-0.016392563481462993,0.2091835457821029,-8.961698725530281,-0.034834022958318334,-1.5268831933397422,9.748964384242912,-0.001090830782496456,0.002181661564992912,0.0,43.5625,25.6875,-57.75
1774889310.4867313,-0.016392563481462993,0.2091835457821029,-8.961698725530281,-0.0332169882791862,-1.52792579998461,9.742620585867606,-0.001090830782496456,0.002181661564992912,0.001090830782496456,43.5625,25.6875,-57.75
1774889310.6797662,-0.016392563481462993,0.2091835457821029,-8.961698725530281,-0.0332169882791862,-1.52792579998461,9.742620585867606,-0.001090830782496456,0.002181661564992912,0.001090830782496456,43.5625,25.6875,-57.75
1774889310.698267,0.0,0.0,0.0,-0.0321408697636847,-1.5286196430600905,9.73839885891371,0.0,0.00545415391248228,0.0,42.75,25.25,-57.5
1774889310.7331307,0.0,0.0,0.0,-0.03476983661996931,-1.5257362761687683,9.732244235078353,-0.002181661564992912,-0.003272492347489368,0.001090830782496456,42.75,25.25,-57.5
1774889310.7540464,0.0,0.0,0.0,-0.03476983661996931,-1.5257362761687683,9.732244235078353,-0.002181661564992912,-0.003272492347489368,0.001090830782496456,42.75,25.25,-57.5
1774889310.7682872,-0.016392563481462993,0.2091835457821029,-8.961698725530281,-0.03651938469534269,-1.5238174277119119,9.728148401667577,-0.001090830782496456,-0.001090830782496456,-0.002181661564992912,42.75,25.25,-57.5
1774889310.970124,-0.016392563481462993,0.2091835457821029,-8.961698725530281,-0.03651938469534269,-1.5238174277119119,9.728148401667577,-0.001090830782496456,-0.001090830782496456,-0.002181661564992912,42.75,25.25,-57.5
1774889310.987824,-0.016392563481462993,0.2091835457821029,-8.961698725530281,-0.03651938469534269,-1.5238174277119119,9.728148401667577,-0.001090830782496456,-0.001090830782496456,-0.002181661564992912,42.75,25.25,-57.5
1774889311.0079827,0.0,0.0,0.0,-0.03768368939577111,-1.5225404554988158,9.73545800540812,-0.001090830782496456,0.002181661564992912,0.003272492347489368,42.5,26.0625,-57.0625
1774889311.0462933,-0.016392563481462993,0.2091835457821029,-8.961698725530281,-0.03845852116777052,-1.5216906447557146,9.740322465043826,0.002181661564992912,0.002181661564992912,0.001090830782496456,42.5,26.0625,-57.0625
1774889311.0596318,-0.016392563481462993,0.2091835457821029,-8.961698725530281,-0.03845852116777052,-1.5216906447557146,9.740322465043826,0.002181661564992912,0.002181661564992912,0.001090830782496456,42.5,26.0625,-57.0625
1774889311.2682645,0.0,0.0,0.0,-0.03262709355887678,-1.529653282837311,9.745714058010622,0.001090830782496456,0.004363323129985824,0.003272492347489368,42.5,26.0625,-57.0625
1774889311.2914567,0.0,0.0,0.0,-0.02840318970955519,-1.5264241518939956,9.713696636409985,0.0,0.001090830782496456,0.0,42.5,26.0625,-57.0625
1774889311.3169758,0.0,0.0,0.0,-0.02840318970955519,-1.5264241518939956,9.713696636409985,0.0,0.001090830782496456,0.0,42.5,26.0625,-57.0625
1774889311.3349185,-0.016392563481462993,0.2091835457821029,-8.961698725530281,-0.02559222888192931,-1.5242752013229754,9.692389399992795,0.0,0.0,0.002181661564992912,43.5625,25.6875,-57.875
1774889311.3622923,-0.016392563481462993,0.2091835457821029,-8.961698725530281,-0.030411789266272943,-1.5261902104306315,9.704970565833136,0.002181661564992912,0.0,-0.001090830782496456,43.5625,25.6875,-57.875
1774889311.5769238,0.0,0.0,0.0,-0.03361915286403652,-1.5274646275997232,9.713343191159051,-0.002181661564992912,0.001090830782496456,0.004363323129985824,42.5,25.25,-56.6875
1774889311.6122286,0.0,0.0,0.0,-0.0357536175097492,-1.5216225145749425,9.718915079785095,-0.002181661564992912,0.001090830782496456,-0.001090830782496456,42.5,25.25,-56.6875
1774889311.700293,-0.016392563481462993,0.2091835457821029,-8.961698725530281,-0.030483856473299834,-1.5177346536176295,9.722623109423653,0.001090830782496456,0.003272492347489368,-0.1407171709420428,41.75,26.75,-57.5
1774889311.9069507,0.0,0.0,0.0,-0.024643041939193807,-1.516770599381941,9.72673295676891,-0.001090830782496456,-0.003272492347489368,0.006544984694978736,41.75,26.75,-57.5
1774889311.9225142,0.0045130780499243696,0.21082408286300194,-8.968718772220518,-0.016399669129717832,-1.5479568753293247,9.677649143615183,-0.011999138607461015,-0.003272492347489368,-0.004363323129985824,42.75,25.6875,-57.5
1774889311.998816,0.0045130780499243696,0.21082408286300194,-8.968718772220518,-0.016399669129717832,-1.5479568753293247,9.677649143615183,-0.011999138607461015,-0.003272492347489368,-0.004363323129985824,42.75,25.6875,-57.5
1774889312.2073653,0.0876004432406321,0.22437826416639658,-8.989739506408975,0.01279584052236326,-1.6493775816427416,9.7725628914207,-0.011999138607461015,-0.00545415391248228,0.009817477042468103,43.1875,26.0625,-57.875
1774889312.2912445,0.10204851806920036,0.21851066095570904,-9.010349814622385,0.018550824050686497,-1.6964173514385845,9.801811580976977,0.006544984694978736,-0.01090830782496456,0.003272492347489368,43.1875,26.0625,-57.875
1774889312.476878,0.0,0.0,0.0,-0.007725304064467146,-1.7277217927690591,9.821276257147408,-0.001090830782496456,0.001090830782496456,0.001090830782496456,42.75,25.6875,-59.75
1774889312.502764,0.0,0.0,0.0,-0.02521177380151834,-1.718448543415093,9.83422978170415,-0.007635815477475192,-0.001090830782496456,0.006544984694978736,42.75,25.6875,-59.75
1774889312.9987988,0.3518769074403587,0.2523699025776975,-9.052211216427525,0.02593643248810136,-1.576821035760225,9.873920798358377,-0.02181661564992912,-0.01090830782496456,0.016362461737446838,46.5,27.875,-63.375
1774889313.2049127,0.0,0.0,0.0,0.010570182677257924,-1.5578137645658707,9.899370141167868,0.002181661564992912,0.001090830782496456,0.006544984694978736,49.0625,29.6875,-66.5625
1774889313.2620764,0.43600587244765104,0.2521466386053209,-9.08682329428232,0.005723646278836887,-1.5134144670991008,9.988528798965048,-0.016362461737446838,-0.013089969389957472,0.009817477042468103,49.75,32.6875,-65.0
1774889313.5168579,0.0,0.0,0.0,-0.006226312460710494,-1.5423782950782294,9.989020932145632,-0.01090830782496456,-0.004363323129985824,0.03381575425739013,49.75,32.6875,-65.0
1774889313.5331287,0.0,0.0,0.0,-0.006226312460710494,-1.5423782950782294,9.989020932145632,-0.01090830782496456,-0.004363323129985824,0.03381575425739013,49.75,32.6875,-65.0
1774889313.5736804,0.6596615540365267,0.26294741125009063,-9.093501489692448,-0.0027456605157307676,-1.5020545650726358,9.98956639495011,0.007635815477475192,-0.002181661564992912,0.025089107997418487,51.25,34.5,-68.5625
1774889313.609586,0.6596615540365267,0.26294741125009063,-9.093501489692448,-0.0027456605157307676,-1.5020545650726358,9.98956639495011,0.007635815477475192,-0.002181661564992912,0.025089107997418487,51.25,34.5,-68.5625
1774889313.8414345,0.6805790427676208,0.2646110068298922,-9.093463552338834,0.0048630170124575565,-1.5716146359585506,10.026507669463497,-0.006544984694978736,-0.006544984694978736,0.008726646259971648,51.25,34.5,-68.5625
1774889313.8682954,0.0,0.0,0.0,-0.013489275038265875,-1.6179060860962213,10.051091674991081,-0.00545415391248228,-0.007635815477475192,0.03599741582238305,53.1875,39.25,-69.25
1774889313.9044425,0.8479482893517948,0.277813910439886,-9.079041010979154,-0.025702520389487366,-1.5784651831997536,9.950373146292174,-0.004363323129985824,-0.009817477042468103,0.026179938779914945,53.1875,39.25,-69.25
1774889313.931676,0.8479482893517948,0.277813910439886,-9.079041010979154,-0.025702520389487366,-1.5784651831997536,9.950373146292174,-0.004363323129985824,-0.009817477042468103,0.026179938779914945,53.1875,39.25,-69.25
1774889314.1995993,0.9531569297353073,0.27885040387618926,-9.043610660501276,0.03431775314322519,-1.5347502979739203,9.717398274867058,0.020725784867432664,-0.01090830782496456,0.050178215994836975,55.0,42.5625,-69.0
1774889314.226347,0.9810367022940859,0.28111762686372965,-9.050620547182636,0.03621852819167281,-1.5666123873105324,9.718268580987202,0.004363323129985824,-0.001090830782496456,0.022907446432425576,54.25,44.75,-69.0
1774889314.4293485,0.9810367022940859,0.28111762686372965,-9.050620547182636,0.03621852819167281,-1.5666123873105324,9.718268580987202,0.004363323129985824,-0.001090830782496456,0.022907446432425576,54.25,44.75,-69.0
1774889314.4429684,0.0,0.0,0.0,0.024103025924088625,-1.4473215601337748,9.7188477599882,0.002181661564992912,0.00545415391248228,0.016362461737446838,54.25,44.75,-69.0
1774889314.4565682,0.0,0.0,0.0,0.01604029450403948,-1.50842953892091,9.849692553728968,-0.015271630954950384,-0.02181661564992912,0.0545415391248228,54.25,44.75,-69.0
1774889314.4979038,1.1812261812978126,0.23404391297103477,-9.072074499607735,0.010674636810608158,-1.4520879766706358,9.913352520380096,0.0,-0.03490658503988659,0.06217735460229799,56.5,46.25,-68.0625
1774889314.521055,1.2021467688493281,0.23570366288496372,-9.072049206596427,0.0238294100905503,-1.4145932963695673,9.955717517058,0.006544984694978736,0.007635815477475192,0.019634954084936207,56.5,46.25,-68.0625
1774889314.7252395,1.2021467688493281,0.23570366288496372,-9.072049206596427,0.0238294100905503,-1.4145932963695673,9.955717517058,0.006544984694978736,0.007635815477475192,0.019634954084936207,56.5,46.25,-68.0625
1774889314.7458246,0.0,0.0,0.0,-0.014247799142565597,-1.389641005472229,9.977220725684484,-0.009817477042468103,-0.002181661564992912,0.01090830782496456,58.25,49.5625,-67.0
1774889314.7691472,0.0,0.0,0.0,0.007243807365564445,-1.3830708697373613,9.87779707276997,-0.001090830782496456,-0.00545415391248228,0.02399827721492203,58.25,49.5625,-67.0
1774889314.796609,1.3555782060470989,0.2477914977871996,-9.064804560231412,0.03158156654170791,-1.4589811987746972,9.811631742390338,-0.001090830782496456,-0.011999138607461015,0.02945243112740431,58.25,49.5625,-67.0
1774889314.8117275,1.3770525286727284,0.24247798886662156,-9.064860533873825,0.047778073402847655,-1.4961182279458296,9.7742896775525,0.004363323129985824,-0.009817477042468103,0.022907446432425576,58.25,49.5625,-67.0
1774889315.0519602,0.0,0.0,0.0,0.002208039493332526,-1.5539933205310785,9.904514363685454,0.001090830782496456,0.003272492347489368,0.02181661564992912,58.25,49.5625,-67.0
1774889315.074661,0.0,0.0,0.0,0.002208039493332526,-1.5539933205310785,9.904514363685454,0.001090830782496456,0.003272492347489368,0.02181661564992912,58.25,49.5625,-67.0
1774889315.106524,1.4804520268711243,0.26488805933581705,-9.078137075740587,-0.001875686089923877,-1.5693830687417165,9.949835822506394,0.001090830782496456,-0.008726646259971648,0.04363323129985824,60.875,51.375,-65.75
1774889315.3096547,1.4804520268711243,0.26488805933581705,-9.078137075740587,-0.001875686089923877,-1.5693830687417165,9.949835822506394,0.001090830782496456,-0.008726646259971648,0.04363323129985824,60.875,51.375,-65.75
1774889315.328045,0.0,0.0,0.0,-0.004593359847377213,-1.472581199626924,9.919784736346113,-0.009817477042468103,0.001090830782496456,-0.001090830782496456,60.875,51.375,-65.75
1774889315.341561,0.0,0.0,0.0,-0.0030568296672379832,-1.3813997434202054,9.672318478101356,0.004363323129985824,0.02181661564992912,0.007635815477475192,60.875,51.375,-65.75
1774889315.36673,0.0,0.0,0.0,-0.0030568296672379832,-1.3813997434202054,9.672318478101356,0.004363323129985824,0.02181661564992912,0.007635815477475192,60.875,51.375,-65.75
1774889315.3912313,1.4851607185018085,0.29378693347027124,-9.11307463771263,-0.002034285996522084,-1.3207195028782392,9.507632447618706,-0.019634954084936207,0.013089969389957472,-0.017453292519943295,61.6875,54.375,-64.5625
1774889315.4089403,1.4502696840003204,0.2911871588427217,-9.127246878107124,-0.0013537946062218936,-1.367310385030566,9.428141739361877,-0.00545415391248228,-0.003272492347489368,-0.0272707695624114,61.6875,54.375,-64.5625
1774889315.5962617,1.4502696840003204,0.2911871588427217,-9.127246878107124,-0.0013537946062218936,-1.367310385030566,9.428141739361877,-0.00545415391248228,-0.003272492347489368,-0.0272707695624114,61.6875,54.375,-64.5625
1774889315.6165016,0.0,0.0,0.0,-0.0009009351875640245,-1.3983160966486838,9.37524156098635,0.0,0.0,0.0,63.0625,58.375,-63.0
1774889315.642583,0.0,0.0,0.0,-0.024015344254454073,-1.5159582908863105,9.376833311991662,-0.002181661564992912,-0.004363323129985824,-0.022907446432425576,63.0625,58.375,-63.0
1774889315.671288,1.3948978969239005,0.2801831603975538,-9.16216252056813,-0.039397725283601796,-1.4102667130994684,9.377892604504675,0.003272492347489368,-0.006544984694978736,-0.017453292519943295,63.0625,58.375,-63.0
1774889315.690923,1.3948978969239005,0.2801831603975538,-9.16216252056813,-0.039397725283601796,-1.4102667130994684,9.377892604504675,0.003272492347489368,-0.006544984694978736,-0.017453292519943295,63.0625,58.375,-63.0
1774889315.8780522,1.3948978969239005,0.2801831603975538,-9.16216252056813,-0.039397725283601796,-1.4102667130994684,9.377892604504675,0.003272492347489368,-0.006544984694978736,-0.017453292519943295,63.0625,58.375,-63.0
1774889315.9006143,0.0,0.0,0.0,-0.04963452802604456,-1.3399301487346087,9.378597551839011,0.00545415391248228,0.004363323129985824,-0.004363323129985824,63.75,59.5625,-62.1875
1774889315.919136,0.0,0.0,0.0,-0.03303122394732519,-1.2931219508607004,9.389102021537193,-0.007635815477475192,0.003272492347489368,-0.022907446432425576,63.75,59.5625,-62.1875
1774889315.9418314,1.2972433332591051,0.2726007084161576,-9.183485213932277,-0.0219819105539966,-1.389085862935582,9.503136203412938,-0.02399827721492203,0.004363323129985824,-0.04036073895236887,63.75,59.5625,-62.1875
1774889315.9554958,1.2972433332591051,0.2726007084161576,-9.183485213932277,-0.0219819105539966,-1.389085862935582,9.503136203412938,-0.02399827721492203,0.004363323129985824,-0.04036073895236887,63.75,59.5625,-62.1875
1774889316.1617255,1.2623581552515046,0.2699565417958226,-9.197657180218625,-0.014628715919654445,-1.4529487744342782,9.579024677605968,-0.004363323129985824,-0.00545415391248228,-0.016362461737446838,63.75,59.5625,-62.1875
1774889316.1934695,0.0,0.0,0.0,-0.009735247031065892,-1.5054841637631535,9.72988096067121,0.00545415391248228,0.00545415391248228,-0.013089969389957472,63.75,59.5625,-62.1875
1774889316.2140014,0.0,0.0,0.0,-0.006478698149339414,-1.5404458785027686,9.830274131876028,-0.015271630954950384,0.02181661564992912,-0.04799655442984406,63.75,59.5625,-62.1875
1774889316.230451,0.0,0.0,0.0,-0.006478698149339414,-1.5404458785027686,9.830274131876028,-0.015271630954950384,0.02181661564992912,-0.04799655442984406,63.75,59.5625,-62.1875
1774889316.2592947,1.1700426002266113,0.2835052338486643,-9.190523407321262,0.01910428070465064,-1.563712509114039,9.89708466584763,0.00545415391248228,0.006544984694978736,-0.003272492347489368,62.0,62.0625,-61.0
1774889316.4533598,1.1700426002266113,0.2835052338486643,-9.190523407321262,0.01910428070465064,-1.563712509114039,9.89708466584763,0.00545415391248228,0.006544984694978736,-0.003272492347489368,62.0,62.0625,-61.0
1774889316.476268,0.0,0.0,0.0,0.012713685400146375,-1.5256744045634356,9.804396749883072,0.0,0.0,0.0,61.6875,65.75,-58.25
1774889316.5051434,0.0,0.0,0.0,0.025186374149222777,-1.5003604708984783,9.742713977200522,-0.013089969389957472,0.006544984694978736,-0.025089107997418487,61.6875,65.75,-58.25
1774889316.5191402,0.0,0.0,0.0,0.025186374149222777,-1.5003604708984783,9.742713977200522,-0.013089969389957472,0.006544984694978736,-0.025089107997418487,61.6875,65.75,-58.25
1774889316.5359416,1.1223543687465003,0.26563938819663496,-9.190733343333712,0.016761250646073637,-1.600593240575795,9.755186568339113,-0.00545415391248228,-0.006544984694978736,-0.01090830782496456,61.6875,65.75,-58.25
1774889316.5552642,1.0671906470741586,0.25426060279602114,-9.198494084698757,0.027879983606121005,-1.6672970291226479,9.763486938413873,-0.002181661564992912,0.001090830782496456,-0.04908738521234052,61.6875,65.75,-58.25
1774889316.736953,1.0671906470741586,0.25426060279602114,-9.198494084698757,0.027879983606121005,-1.6672970291226479,9.763486938413873,-0.002181661564992912,0.001090830782496456,-0.04908738521234052,61.6875,65.75,-58.25
1774889316.754042,0.0,0.0,0.0,0.01855381765005022,-1.4608042772214835,9.631861161977323,0.0,0.0,0.0,58.5625,65.6875,-53.6875
1774889316.787988,0.0,0.0,0.0,0.03910825204494009,-1.3233856575064373,9.544265678115064,0.009817477042468103,0.001090830782496456,-0.008726646259971648,58.5625,65.6875,-53.6875
1774889316.823227,1.031798332011596,0.25823538575888766,-9.177301672239789,0.0594772219413013,-1.2854568884697484,9.53280342601287,-0.004363323129985824,0.001090830782496456,0.003272492347489368,58.5625,65.6875,-53.6875
1774889317.0353475,1.031798332011596,0.25823538575888766,-9.177301672239789,0.0594772219413013,-1.2854568884697484,9.53280342601287,-0.004363323129985824,0.001090830782496456,0.003272492347489368,58.5625,65.6875,-53.6875
1774889317.0525503,0.0,0.0,0.0,0.0730325438710271,-1.360569067587525,9.735917462841728,-0.015271630954950384,0.002181661564992912,-0.013089969389957472,57.5,67.5,-51.6875
1774889317.0732586,0.0,0.0,0.0,0.08205345919239201,-1.4105553837323872,9.871087585418874,0.003272492347489368,-0.00545415391248228,0.004363323129985824,57.5,67.5,-51.6875
1774889317.0929794,0.0,0.0,0.0,0.08205345919239201,-1.4105553837323872,9.871087585418874,0.003272492347489368,-0.00545415391248228,0.004363323129985824,57.5,67.5,-51.6875
1774889317.1116045,0.9688774590517019,0.2537897420023602,-9.247454982727591,0.07802144244657531,-1.4505109421576936,9.820547100337345,0.011999138607461015,-0.004363323129985824,0.014180800172453928,57.5,67.5,-51.6875
1774889317.1379564,0.9624687895007429,0.24625469094093247,-9.247521142835229,0.02181639302570241,-1.4771009199569023,9.699940067699494,0.01090830782496456,0.009817477042468103,-0.003272492347489368,57.875,69.75,-50.0625
1774889317.348797,0.9624687895007429,0.24625469094093247,-9.247521142835229,0.02181639302570241,-1.4771009199569023,9.699940067699494,0.01090830782496456,0.009817477042468103,-0.003272492347489368,57.875,69.75,-50.0625
1774889317.3650882,0.0,0.0,0.0,-0.015587439512347846,-1.4947962531527614,9.546084977186808,0.019634954084936207,0.002181661564992912,-0.003272492347489368,57.875,69.75,-50.0625
1774889317.3884342,0.0,0.0,0.0,-0.010373266872359094,-1.5099174114321015,9.517288590685617,-0.003272492347489368,0.015271630954950384,-0.025089107997418487,57.875,69.75,-50.0625
1774889317.4070845,0.0,0.0,0.0,-0.010373266872359094,-1.5099174114321015,9.517288590685617,-0.003272492347489368,0.015271630954950384,-0.025089107997418487,57.875,69.75,-50.0625
1774889317.4302664,0.8515817985804567,0.23000595740057078,-9.21297937759239,-0.006903293226571421,-1.5835374957916648,9.521540699097024,-0.0272707695624114,0.007635815477475192,-0.04581489286485115,56.0625,69.0,-48.0625
1774889317.447653,0.8371064267033845,0.2356976864188703,-9.191766670818524,-0.028009846478680843,-1.6325308395427265,9.53106065316029,0.008726646259971648,-0.003272492347489368,-0.011999138607461015,56.0625,69.0,-48.0625
1774889317.6308281,0.8371064267033845,0.2356976864188703,-9.191766670818524,-0.028009846478680843,-1.6325308395427265,9.53106065316029,0.008726646259971648,-0.003272492347489368,-0.011999138607461015,56.0625,69.0,-48.0625
1774889317.6482167,0.0,0.0,0.0,-0.04205602189231114,-1.4276324312978719,9.53739607624454,-0.002181661564992912,0.00545415391248228,-0.16689710972195776,54.5625,70.0625,-45.75
1774889317.6635425,0.0,0.0,0.0,-0.04205602189231114,-1.4276324312978719,9.53739607624454,-0.002181661564992912,0.00545415391248228,-0.16689710972195776,54.5625,70.0625,-45.75
1774889317.7036378,0.7271956144818695,0.20599596095166953,-9.220298703295915,-0.03420851807305918,-1.4045821828244347,9.611320266599995,-0.006544984694978736,0.007635815477475192,-0.009817477042468103,54.5625,70.0625,-45.75
1774889317.7261376,0.7271956144818695,0.20599596095166953,-9.220298703295915,-0.03420851807305918,-1.4045821828244347,9.611320266599995,-0.006544984694978736,0.007635815477475192,-0.009817477042468103,54.5625,70.0625,-45.75
1774889317.915565,0.7271956144818695,0.20599596095166953,-9.220298703295915,-0.03420851807305918,-1.4045821828244347,9.611320266599995,-0.006544984694978736,0.007635815477475192,-0.009817477042468103,54.5625,70.0625,-45.75
1774889317.9460702,0.0,0.0,0.0,-0.022765386643435477,-1.4799869607516711,9.657710186576423,-0.006544984694978736,0.0,-0.016362461737446838,52.75,69.75,-42.5625
1774889317.9686239,0.0,0.0,0.0,0.03168145339729673,-1.426469535208785,9.594919032306434,0.001090830782496456,-0.009817477042468103,-0.013089969389957472,52.75,69.75,-42.5625
1774889317.989878,0.0,0.0,0.0,0.03168145339729673,-1.426469535208785,9.594919032306434,0.001090830782496456,-0.009817477042468103,-0.013089969389957472,52.75,69.75,-42.5625
1774889318.0028174,0.567332050346495,0.18622671627165222,-9.248225349135017,0.021083653330877652,-1.3908542863388091,9.526371326904354,0.007635815477475192,-0.001090830782496456,-0.022907446432425576,52.75,69.75,-42.5625
1774889318.1989639,0.567332050346495,0.18622671627165222,-9.248225349135017,0.021083653330877652,-1.3908542863388091,9.526371326904354,0.007635815477475192,-0.001090830782496456,-0.022907446432425576,52.75,69.75,-42.5625
1774889318.2292068,0.0,0.0,0.0,0.014030935771859437,-1.3671527360642381,9.480753594687311,0.00545415391248228,0.003272492347489368,-0.01090830782496456,52.0,68.25,-40.1875
1774889318.2474594,0.0,0.0,0.0,-0.030803909467482495,-1.4182818532665635,9.450395503480326,0.0,0.007635815477475192,-0.061086523819801536,52.0,68.25,-40.1875
1774889318.2698638,0.0,0.0,0.0,-0.030803909467482495,-1.4182818532665635,9.450395503480326,0.0,0.007635815477475192,-0.061086523819801536,52.0,68.25,-40.1875
1774889318.5046558,0.0,0.0,0.0,0.05660505268488107,-1.474951536921245,9.466888897298467,0.004363323129985824,0.002181661564992912,-0.01090830782496456,50.1875,66.375,-38.5625
1774889318.518926,0.0,0.0,0.0,0.05660505268488107,-1.474951536921245,9.466888897298467,0.004363323129985824,0.002181661564992912,-0.01090830782496456,50.1875,66.375,-38.5625
1774889318.534121,0.0,0.0,0.0,0.10791737609562552,-1.5167816447039488,9.541522053466451,0.0,0.011999138607461015,-0.05235987755982989,50.1875,66.375,-38.5625
1774889318.5524964,0.0,0.0,0.0,0.10791737609562552,-1.5167816447039488,9.541522053466451,0.0,0.011999138607461015,-0.05235987755982989,50.1875,66.375,-38.5625
1774889318.8427134,0.2333215831723615,0.15213581234412565,-9.220950994023543,0.10526892534875276,-1.594795789770208,9.671472266164928,0.003272492347489368,-0.004363323129985824,-0.04908738521234052,50.1875,66.375,-38.5625
1774889318.864443,0.0,0.0,0.0,0.029913953400815846,-1.6467133318367018,9.784713574735328,-0.001090830782496456,-0.001090830782496456,-0.002181661564992912,49.75,64.1875,-36.25
1774889318.9159749,0.20545963657994515,0.14984726413844207,-9.199798812728504,-0.020233938660344314,-1.664538317588411,9.833313506942071,-0.004363323129985824,-0.001090830782496456,-0.016362461737446838,49.75,64.1875,-36.25
1774889319.1654341,0.0,0.0,0.0,0.016640545215320143,-1.6764006464880359,10.059672697953369,0.015271630954950384,0.007635815477475192,-0.004363323129985824,47.0625,60.6875,-34.875
1774889319.2048059,0.0,0.0,0.0,0.0411801023196001,-1.5772513192256197,9.925977715851396,0.026179938779914945,0.007635815477475192,-0.001090830782496456,47.0625,60.6875,-34.875
1774889319.2262902,0.1631740242580176,0.15334433323464056,-9.122723099749447,0.03409512149644843,-1.5146136612103578,9.900562321172407,0.011999138607461015,0.008726646259971648,-0.009817477042468103,47.0625,60.6875,-34.875
1774889319.251621,0.1631740242580176,0.15334433323464056,-9.122723099749447,0.03409512149644843,-1.5146136612103578,9.900562321172407,0.011999138607461015,0.008726646259971648,-0.009817477042468103,47.0625,60.6875,-34.875
1774889319.4483857,0.1631740242580176,0.15334433323464056,-9.122723099749447,0.03409512149644843,-1.5146136612103578,9.900562321172407,0.011999138607461015,0.008726646259971648,-0.009817477042468103,47.0625,60.6875,-34.875
1774889319.4684062,0.0,0.0,0.0,0.029380145903062555,-1.4595485526804104,9.820091537483032,0.002181661564992912,-0.003272492347489368,0.00545415391248228,46.6875,58.375,-33.75
1774889319.4887648,0.0,0.0,0.0,0.029380145903062555,-1.4595485526804104,9.820091537483032,0.002181661564992912,-0.003272492347489368,0.00545415391248228,46.6875,58.375,-33.75
1774889319.5128727,0.0,0.0,0.0,0.026242382315392707,-1.4262484497786163,9.759848906440668,0.02181661564992912,0.001090830782496456,0.013089969389957472,46.6875,58.375,-33.75
1774889319.530881,0.1428305310735743,0.14468490473252202,-9.108635024307635,0.017464012284275576,-1.4040876032839953,9.622749868923995,-0.00545415391248228,-0.009817477042468103,-0.0272707695624114,46.6875,58.375,-33.75
1774889319.545125,0.1428305310735743,0.14468490473252202,-9.108635024307635,0.017464012284275576,-1.4040876032839953,9.622749868923995,-0.00545415391248228,-0.009817477042468103,-0.0272707695624114,46.6875,58.375,-33.75
1774889319.750157,0.1428305310735743,0.14468490473252202,-9.108635024307635,0.017464012284275576,-1.4040876032839953,9.622749868923995,-0.00545415391248228,-0.009817477042468103,-0.0272707695624114,46.6875,58.375,-33.75
1774889319.7676108,0.0,0.0,0.0,-0.03520945881308578,-1.4127555894459365,9.531511990953247,0.0,-0.001090830782496456,0.003272492347489368,46.0,56.5625,-32.875
1774889319.8083518,0.11498282516896804,0.14244075365853684,-9.080975400881375,-0.07026306542715387,-1.4185240374089585,9.42396263845512,0.022907446432425576,-0.002181661564992912,0.025089107997418487,46.0,56.5625,-32.875
1774889319.8227663,0.11498282516896804,0.14244075365853684,-9.080975400881375,-0.060139731981179376,-1.5160260028955064,9.352389745772603,0.013089969389957472,0.00545415391248228,-0.013089969389957472,46.0,56.5625,-32.875
1774889320.0321393,0.08711764971691077,0.1402081287818049,-9.059828810367254,-0.060139731981179376,-1.5160260028955064,9.352389745772603,0.013089969389957472,0.00545415391248228,-0.013089969389957472,46.0,56.5625,-32.875
1774889320.0485284,0.0,0.0,0.0,-0.040022319828650066,-1.4103117746851956,9.304758785213988,0.019634954084936207,0.01090830782496456,-0.002181661564992912,46.0,56.5625,-32.875
1774889320.0652204,0.0,0.0,0.0,-0.040022319828650066,-1.4103117746851956,9.304758785213988,0.019634954084936207,0.01090830782496456,-0.002181661564992912,46.0,56.5625,-32.875
1774889320.1087792,0.0,0.0,0.0,-0.02663440676736026,-1.5239412806191053,9.460387168644806,0.004363323129985824,0.00545415391248228,-0.001090830782496456,46.0,56.5625,-32.875
1774889320.1349063,0.09191002428385309,0.1686307838707399,-9.038629339067768,-0.017724900177859916,-1.492516872859151,9.550575672505785,0.008726646259971648,-0.008726646259971648,0.015271630954950384,44.875,55.5,-32.1875
1774889320.3178833,0.09191002428385309,0.1686307838707399,-9.038629339067768,-0.017724900177859916,-1.492516872859151,9.550575672505785,0.008726646259971648,-0.008726646259971648,0.015271630954950384,44.875,55.5,-32.1875
1774889320.3452024,0.0,0.0,0.0,-0.011795723068257253,-1.4716042805285365,9.610595114353666,0.004363323129985824,0.00545415391248228,-0.009817477042468103,44.875,55.5,-32.1875
1774889320.3639112,0.0,0.0,0.0,-0.007849921935064787,-1.4576871839414758,9.650537382442334,0.007635815477475192,-0.002181661564992912,0.013089969389957472,44.875,55.5,-32.1875
1774889320.3898497,0.1192587514573737,0.17779950096671843,-9.031526802865285,0.01484663488550436,-1.4216646179683872,9.680463627378293,0.008726646259971648,0.009817477042468103,0.015271630954950384,44.5625,52.875,-32.25
1774889320.4085064,0.1192587514573737,0.17779950096671843,-9.031526802865285,0.01484663488550436,-1.4216646179683872,9.680463627378293,0.008726646259971648,0.009817477042468103,0.015271630954950384,44.5625,52.875,-32.25
1774889320.611716,0.1192587514573737,0.17779950096671843,-9.031526802865285,0.01484663488550436,-1.4216646179683872,9.680463627378293,0.008726646259971648,0.009817477042468103,0.015271630954950384,44.5625,52.875,-32.25
1774889320.6328673,0.0,0.0,0.0,0.02995093991244096,-1.397692002711725,9.700379209085114,-0.007635815477475192,0.01090830782496456,0.001090830782496456,44.1875,50.5625,-29.875
1774889320.653104,0.0,0.0,0.0,0.02995093991244096,-1.397692002711725,9.700379209085114,-0.007635815477475192,0.01090830782496456,0.001090830782496456,44.1875,50.5625,-29.875
1774889320.6793454,0.0,0.0,0.0,0.019932015937808394,-1.381738495050075,9.713632806239378,-0.008726646259971648,-0.00545415391248228,-0.013089969389957472,44.1875,50.5625,-29.875
1774889320.7008724,0.1037081312594162,0.19758623837185815,-9.003301513784956,0.013264533951404454,-1.4179531778160759,9.725798038800479,0.013089969389957472,0.008726646259971648,0.0,44.1875,50.5625,-29.875
1774889320.8922853,0.1037081312594162,0.19758623837185815,-9.003301513784956,0.013264533951404454,-1.4179531778160759,9.725798038800479,0.013089969389957472,0.008726646259971648,0.0,44.1875,50.5625,-29.875
1774889320.9114397,0.0,0.0,0.0,0.008827399170106606,-1.4487438680669749,9.777380317370492,-0.003272492347489368,-0.001090830782496456,0.008726646259971648,44.1875,47.6875,-29.5
1774889320.948111,0.0,0.0,0.0,0.025945205783112404,-1.4692347284744012,9.768221295351877,0.017453292519943295,0.025089107997418487,0.030543261909900768,44.1875,47.6875,-29.5
1774889320.9728048,0.0,0.0,0.0,0.025945205783112404,-1.4692347284744012,9.768221295351877,0.017453292519943295,0.025089107997418487,0.030543261909900768,44.1875,47.6875,-29.5
1774889321.1830122,0.1051912445384974,0.2678592237345754,-9.003256991051304,0.03733691486563871,-1.5531185130313416,9.732020063145594,0.011999138607461015,0.009817477042468103,-0.015271630954950384,44.1875,47.6875,-29.5
1774889321.2088761,0.0,0.0,0.0,0.04157285829901211,-1.5754911175375204,9.707928547506572,0.004363323129985824,0.00545415391248228,0.009817477042468103,44.1875,47.6875,-29.5
1774889321.2346935,0.0,0.0,0.0,-0.04927129646960923,-1.5903798359180148,9.701931248090625,-0.022907446432425576,0.001090830782496456,0.002181661564992912,42.6875,45.875,-27.875
1774889321.2641842,0.10514385966306986,0.2678822758749576,-9.024432605495763,-0.06289550276995427,-1.5802174414384356,9.697940112323536,-0.009817477042468103,0.0,-0.002181661564992912,42.6875,45.875,-27.875
1774889321.4767737,0.10514385966306986,0.2678822758749576,-9.024432605495763,-0.06289550276995427,-1.5802174414384356,9.697940112323536,-0.009817477042468103,0.0,-0.002181661564992912,42.6875,45.875,-27.875
1774889321.5069568,0.0,0.0,0.0,-0.07196225987047745,-1.5333131409458274,9.675213385810531,0.0,0.00545415391248228,0.01090830782496456,42.0625,42.5625,-27.0625
1774889321.5268486,0.0,0.0,0.0,-0.06796075031660435,-1.4753379592648093,9.660089003190295,-0.003272492347489368,0.017453292519943295,0.01090830782496456,42.0625,42.5625,-27.0625
1774889321.541068,0.0,0.0,0.0,-0.06796075031660435,-1.4753379592648093,9.660089003190295,-0.003272492347489368,0.017453292519943295,0.01090830782496456,42.0625,42.5625,-27.0625
1774889321.5573645,0.13775283108511427,0.2985527616363389,-9.045513571897182,-0.06529779040829238,-0.9818209312858691,9.690165235994785,-0.01090830782496456,-0.009817477042468103,-0.007635815477475192,42.0625,42.5625,-27.0625
1774889321.5731816,0.13775283108511427,0.2985527616363389,-9.045513571897182,-0.06529779040829238,-0.9818209312858691,9.690165235994785,-0.01090830782496456,-0.009817477042468103,-0.007635815477475192,42.0625,42.5625,-27.0625
1774889321.7621727,0.13775283108511427,0.2985527616363389,-9.045513571897182,-0.06529779040829238,-0.9818209312858691,9.690165235994785,-0.01090830782496456,-0.009817477042468103,-0.007635815477475192,42.0625,42.5625,-27.0625
1774889321.7797282,0.0,0.0,0.0,-0.06352562033652207,-0.653390862112311,9.710180632952639,-0.013089969389957472,0.0,-0.011999138607461015,41.6875,39.5625,-26.0
1774889321.7970662,0.0,0.0,0.0,-0.04227559070627944,-0.43482431988157133,9.549554847260849,-0.006544984694978736,0.0,0.002181661564992912,41.6875,39.5625,-26.0
1774889321.8216715,0.0,0.0,0.0,-0.028133933365737652,-0.7710668134292593,9.442660181190556,-0.003272492347489368,0.006544984694978736,0.009817477042468103,41.6875,39.5625,-26.0
1774889321.8356261,0.0,0.0,0.0,-0.028133933365737652,-0.7710668134292593,9.442660181190556,-0.003272492347489368,0.006544984694978736,0.009817477042468103,41.6875,39.5625,-26.0
1774889322.0583541,0.043721638325077965,0.33323442856502955,-9.07398618251065,-0.018722818378270407,-1.081805341200788,9.421699650622228,0.0,0.02181661564992912,-0.02945243112740431,41.6875,39.5625,-26.0
1774889322.0815551,0.0,0.0,0.0,-0.012459826483153722,-1.2016254558656396,9.407750651673474,0.004363323129985824,-0.001090830782496456,-0.00545415391248228,41.6875,39.5625,-26.0
1774889322.0998988,0.0,0.0,0.0,-0.008291875339157161,-1.2178072812576484,9.43526397747412,0.002181661564992912,0.0,0.006544984694978736,41.6875,39.5625,-26.0
1774889322.1209047,0.0,0.0,0.0,-0.008291875339157161,-1.2178072812576484,9.43526397747412,0.002181661564992912,0.0,0.006544984694978736,41.6875,39.5625,-26.0
1774889322.1474764,0.01640466941753786,0.3240463923179999,-9.067002068520958,-0.00551815041189241,-1.2285761052931965,9.423467783084588,-0.007635815477475192,-0.002181661564992912,-0.018544123302439753,40.875,35.875,-25.5
1774889322.3488762,0.01640466941753786,0.3240463923179999,-9.067002068520958,-0.00551815041189241,-1.2285761052931965,9.423467783084588,-0.007635815477475192,-0.002181661564992912,-0.018544123302439753,40.875,35.875,-25.5
1774889322.3699906,0.0,0.0,0.0,-0.003672267457335352,-1.2357426373932072,9.415617547490479,-0.016362461737446838,0.003272492347489368,-0.011999138607461015,40.1875,32.5625,-24.0
1774889322.391187,0.0,0.0,0.0,-0.002443852970941305,-1.2773081132308686,9.410393303395477,0.001090830782496456,0.0,0.0,40.1875,32.5625,-24.0
1774889322.410198,0.0,0.0,0.0,-0.002443852970941305,-1.2773081132308686,9.410393303395477,0.001090830782496456,0.0,0.0,40.1875,32.5625,-24.0
1774889322.4234836,0.02920298649518559,0.3391037965241216,-9.081088609103977,0.008408978269423146,-1.3551461486938343,9.54072109560166,0.014180800172453928,0.016362461737446838,0.026179938779914945,40.1875,32.5625,-24.0
1774889322.4364753,0.028624992373799788,0.3460587609720769,-9.087604534217498,0.01563141622581713,-1.447087832274442,9.64417834399464,0.004363323129985824,0.00545415391248228,0.013089969389957472,40.1875,32.5625,-24.0
1774889322.6581938,0.028624992373799788,0.3460587609720769,-9.087604534217498,0.01563141622581713,-1.447087832274442,9.64417834399464,0.004363323129985824,0.00545415391248228,0.013089969389957472,40.1875,32.5625,-24.0
1774889322.6893678,0.0,0.0,0.0,-0.03988515448610004,-1.6092047145996886,9.771131765079195,-0.02181661564992912,-0.003272492347489368,-0.02181661564992912,39.375,28.1875,-24.6875
1774889322.709888,0.0,0.0,0.0,-0.03988515448610004,-1.6092047145996886,9.771131765079195,-0.02181661564992912,-0.003272492347489368,-0.02181661564992912,39.375,28.1875,-24.6875
1774889322.7279377,0.04960858370875108,0.34772791904290523,-9.066910371259025,-0.05999424183732433,-1.5860549644987771,9.790823847261477,0.02181661564992912,0.001090830782496456,0.014180800172453928,39.375,28.1875,-24.6875
1774889322.9479918,0.08290148393869162,0.3713821838417567,-9.038569889770425,-0.03323527434850716,-1.5806843995282316,9.803928707978812,0.020725784867432664,0.01090830782496456,0.019634954084936207,39.375,28.1875,-24.6875
1774889322.9656432,0.0,0.0,0.0,-0.015427480401952104,-1.4901374441431712,9.812649846395313,0.008726646259971648,0.003272492347489368,0.007635815477475192,39.375,28.1875,-24.6875
1774889322.9957597,0.0,0.0,0.0,-0.0035765924566123018,-1.4967816909565674,9.865285230492468,-0.00545415391248228,0.007635815477475192,-0.017453292519943295,39.375,28.1875,-24.6875
1774889323.0166898,0.06904527941670595,0.3702560328168879,-9.010378510453133,0.0009649293805994823,-1.4677522459165888,9.900313490633359,0.014180800172453928,0.004363323129985824,0.00545415391248228,38.6875,24.5,-27.0625
1774889323.0418668,0.09062824084427203,0.36491727633400717,-8.975562557113841,0.010677484845779656,-1.448433474522632,9.9035537362219,0.032724923474893676,0.006544984694978736,0.04254240051736178,38.6875,24.5,-27.0625
1774889323.2333767,0.09062824084427203,0.36491727633400717,-8.975562557113841,0.010677484845779656,-1.448433474522632,9.9035537362219,0.032724923474893676,0.006544984694978736,0.04254240051736178,38.6875,24.5,-27.0625
1774889323.2565947,0.0,0.0,0.0,0.010450858596864756,-1.338568808452508,9.718383827855273,-0.009817477042468103,0.0,-0.008726646259971648,37.1875,21.875,-30.6875
1774889323.2935708,0.0,0.0,0.0,0.006954929652473584,-1.2654551004515748,9.595155322320693,0.003272492347489368,-0.015271630954950384,0.011999138607461015,37.1875,21.875,-30.6875
1774889323.3082638,0.13248760596753292,0.36819113837872847,-8.96837530020052,0.004628427992066373,-1.2970814254862522,9.626881926488892,0.015271630954950384,0.003272492347489368,0.02945243112740431,37.1875,21.875,-30.6875
1774889323.3238525,0.13248760596753292,0.36819113837872847,-8.96837530020052,0.004628427992066373,-1.2970814254862522,9.626881926488892,0.015271630954950384,0.003272492347489368,0.02945243112740431,37.1875,21.875,-30.6875
1774889323.5285153,0.13950409073245326,0.3687175007153141,-8.95423773516305,-0.010300279703485758,-1.408446407605254,9.674756520811993,-0.002181661564992912,0.008726646259971648,-0.001090830782496456,37.1875,21.875,-30.6875
1774889323.5452304,0.0,0.0,0.0,0.07008284818733951,-1.516009676250281,9.756793204149547,0.004363323129985824,0.001090830782496456,-0.001090830782496456,37.1875,20.375,-34.5625
1774889323.5611572,0.0,0.0,0.0,0.07008284818733951,-1.516009676250281,9.756793204149547,0.004363323129985824,0.001090830782496456,-0.001090830782496456,37.1875,20.375,-34.5625
1774889323.580232,0.15391048568567645,0.3628809851175426,-8.982431602049106,0.08678069307979647,-1.5574858246072316,9.86825459952532,-0.004363323129985824,-0.011999138607461015,0.013089969389957472,37.1875,20.375,-34.5625
1774889323.625102,0.1598548599923873,0.3773399435188186,-8.961226645048551,0.09789292232857733,-1.5850877380198471,9.942430913042529,0.031634092692397225,-0.00545415391248228,0.011999138607461015,37.1875,20.375,-34.5625
1774889323.817937,0.1598548599923873,0.3773399435188186,-8.961226645048551,0.09789292232857733,-1.5850877380198471,9.942430913042529,0.031634092692397225,-0.00545415391248228,0.011999138607461015,37.1875,20.375,-34.5625
1774889323.8464727,0.0,0.0,0.0,0.06849175798139359,-1.4428911411110366,9.951653080596683,0.003272492347489368,-0.003272492347489368,-0.004363323129985824,37.1875,20.375,-34.5625
1774889323.869889,0.0,0.0,0.0,0.04558049983354904,-1.3482608943082897,9.730322733987894,0.02181661564992912,-0.003272492347489368,0.007635815477475192,36.5,19.6875,-35.75
1774889323.8911839,0.15185845057066333,0.39070607020365145,-8.940067190088465,0.03033331347168163,-1.3354621977599728,9.583029860741716,0.011999138607461015,-0.002181661564992912,-0.002181661564992912,36.5,19.6875,-35.75
1774889323.9187093,0.15185845057066333,0.39070607020365145,-8.940067190088465,0.03033331347168163,-1.3354621977599728,9.583029860741716,0.011999138607461015,-0.002181661564992912,-0.002181661564992912,36.5,19.6875,-35.75
1774889324.1099806,0.15185845057066333,0.39070607020365145,-8.940067190088465,0.03033331347168163,-1.3354621977599728,9.583029860741716,0.011999138607461015,-0.002181661564992912,-0.002181661564992912,36.5,19.6875,-35.75
1774889324.1307023,0.0,0.0,0.0,0.02018648127009053,-1.326944808177876,9.485008098965588,-0.001090830782496456,-0.001090830782496456,0.013089969389957472,36.5,20.375,-38.5625
1774889324.156999,0.0,0.0,0.0,0.02018648127009053,-1.326944808177876,9.485008098965588,-0.001090830782496456,-0.001090830782496456,0.013089969389957472,36.5,20.375,-38.5625
1774889324.1858594,0.20173706591360147,0.38059033088843797,-8.946979263479182,0.0134338777874742,-1.4049043732394513,9.483332833917467,-0.018544123302439753,-0.009817477042468103,0.0,36.5,20.375,-38.5625
1774889324.2035763,0.23660201262525274,0.38331819830193503,-8.946869620916928,0.008940095601316424,-1.4701660397518037,9.59595176179074,0.006544984694978736,0.0,0.02181661564992912,36.5,20.375,-38.5625
1774889324.397303,0.0,0.0,0.0,0.005949533755264615,-1.5135969497951918,9.670898400254549,0.008726646259971648,0.0,-0.001090830782496456,36.5,20.375,-38.5625
1774889324.4145124,0.0,0.0,0.0,0.005949533755264615,-1.5135969497951918,9.670898400254549,0.008726646259971648,0.0,-0.001090830782496456,36.5,20.375,-38.5625
1774889324.4351678,0.0,0.0,0.0,0.034065353619356316,-1.50235839478618,9.720774550943405,0.013089969389957472,-0.007635815477475192,0.017453292519943295,36.5,20.375,-38.5625
1774889324.4612236,0.313915941400405,0.3822838284436761,-8.925469489123824,0.04608589424998365,-1.458083033190055,9.774037242317645,0.022907446432425576,0.002181661564992912,0.04036073895236887,35.6875,19.25,-41.0
1774889324.4863243,0.3133718972151901,0.38925675586739034,-8.925455646459888,0.054085429761429,-1.4654145034165427,9.809482968443955,0.001090830782496456,0.002181661564992912,-0.009817477042468103,35.6875,19.25,-41.0
1774889324.6867323,0.3133718972151901,0.38925675586739034,-8.925455646459888,0.054085429761429,-1.4654145034165427,9.809482968443955,0.001090830782496456,0.002181661564992912,-0.009817477042468103,35.6875,19.25,-41.0
1774889324.7055054,0.0,0.0,0.0,0.022612802503115828,-1.4435326212958266,9.799620586153114,-0.009817477042468103,0.00545415391248228,-0.006544984694978736,35.375,19.6875,-43.0
1774889324.7200203,0.0,0.0,0.0,0.022612802503115828,-1.4435326212958266,9.799620586153114,-0.009817477042468103,0.00545415391248228,-0.006544984694978736,35.375,19.6875,-43.0
1774889324.7344687,0.0,0.0,0.0,0.0016681206349909126,-1.4958727073275173,9.79305728090859,-0.009817477042468103,-0.004363323129985824,-0.00545415391248228,35.375,19.6875,-43.0
1774889324.751564,0.3347262575837872,0.38402770010936665,-8.960693532394405,-0.012270331180819535,-1.463802215758149,9.738512798975492,0.008726646259971648,-0.007635815477475192,0.02945243112740431,35.375,19.6875,-43.0
1774889324.7648005,0.3347262575837872,0.38402770010936665,-8.960693532394405,-0.012270331180819535,-1.463802215758149,9.738512798975492,0.008726646259971648,-0.007635815477475192,0.02945243112740431,35.375,19.6875,-43.0
1774889324.9858158,0.3556672549087289,0.38564350318197105,-8.953571037287617,-0.02154621516153252,-1.4926363374793896,9.829328300428937,-0.004363323129985824,0.003272492347489368,-0.003272492347489368,35.375,19.6875,-43.0
1774889325.0083501,0.3556672549087289,0.38564350318197105,-8.953571037287617,-0.02154621516153252,-1.4926363374793896,9.829328300428937,-0.004363323129985824,0.003272492347489368,-0.003272492347489368,35.375,19.6875,-43.0
1774889325.0307162,0.0,0.0,0.0,-0.024374100624964187,-1.5118251233866309,9.883074778755944,0.01090830782496456,0.003272492347489368,0.032724923474893676,35.375,19.6875,-43.0
1774889325.0539308,0.3771322417259393,0.3803085793738628,-8.953524265933096,-0.03963647364060503,-1.5245950460551163,9.918842459695064,-0.004363323129985824,-0.011999138607461015,0.017453292519943295,34.25,19.6875,-43.75
1774889325.0801954,0.39809425365206,0.3818944990039368,-8.939345457723581,-0.04979341239063632,-1.502987281575736,9.925919893272276,0.02181661564992912,-0.002181661564992912,0.0272707695624114,34.25,19.6875,-43.75
1774889325.2661874,0.39809425365206,0.3818944990039368,-8.939345457723581,-0.04979341239063632,-1.502987281575736,9.925919893272276,0.02181661564992912,-0.002181661564992912,0.0272707695624114,34.25,19.6875,-43.75
1774889325.2803564,0.0,0.0,0.0,-0.056552741668342045,-1.4585015503233787,9.746648702355232,0.0,-0.00545415391248228,0.002181661564992912,34.6875,20.375,-45.375
1774889325.2969596,0.0,0.0,0.0,-0.056552741668342045,-1.4585015503233787,9.746648702355232,0.0,-0.00545415391248228,0.002181661564992912,34.6875,20.375,-45.375
1774889325.3138504,0.0,0.0,0.0,-0.0710863349179579,-1.4288967931131138,9.627345727390358,-0.02399827721492203,-0.022907446432425576,-0.011999138607461015,34.6875,20.375,-45.375
1774889325.3360977,0.3680277040616025,0.31655611907295855,-8.981957043363309,-0.04730716180150914,-1.415885381311128,9.497774254642994,-0.006544984694978736,-0.007635815477475192,-0.015271630954950384,34.6875,20.375,-45.375
1774889325.3494174,0.3680277040616025,0.31655611907295855,-8.981957043363309,0.008658952764551517,-1.4206068789331774,9.515244349864714,0.01090830782496456,-0.00545415391248228,0.03381575425739013,34.6875,20.375,-45.375
1774889325.5641453,0.4098660540533268,0.31984234451580373,-8.981853315393606,0.008658952764551517,-1.4206068789331774,9.515244349864714,0.01090830782496456,-0.00545415391248228,0.03381575425739013,34.6875,20.375,-45.375
1774889325.5847194,0.0,0.0,0.0,0.045903776825801434,-1.423748982858067,9.423172040154117,-0.009817477042468103,0.004363323129985824,-0.001090830782496456,34.6875,20.375,-45.375
1774889325.6024604,0.0,0.0,0.0,0.030548450698784976,-1.3923889008472865,9.365244058264125,-0.008726646259971648,-0.013089969389957472,0.007635815477475192,33.875,21.1875,-47.375
1774889325.6267183,0.41031872878637105,0.3129582626371937,-9.00956601230367,0.020329652691487513,-1.3715191165841818,9.196234276828836,-0.015271630954950384,-0.004363323129985824,-0.019634954084936207,33.875,21.1875,-47.375
1774889325.646549,0.42376740180779116,0.32094757178100525,-8.988335793418,0.013529156769084325,-1.381046290239087,9.214219511832072,0.007635815477475192,0.01090830782496456,-0.001090830782496456,33.875,21.1875,-47.375
1774889325.8575103,0.42376740180779116,0.32094757178100525,-8.988335793418,0.013529156769084325,-1.381046290239087,9.214219511832072,0.007635815477475192,0.01090830782496456,-0.001090830782496456,33.875,21.1875,-47.375
1774889325.8710845,0.0,0.0,0.0,0.009003502699241998,-1.3873865178809235,9.09572912823303,-0.008726646259971648,0.0,-0.013089969389957472,34.6875,21.5625,-47.0
1774889325.8852637,0.0,0.0,0.0,0.009003502699241998,-1.3873865178809235,9.09572912823303,-0.008726646259971648,0.0,-0.013089969389957472,34.6875,21.5625,-47.0
1774889325.8993664,0.0,0.0,0.0,0.0059917304706303895,-1.321358522697875,9.170750240108871,0.00545415391248228,-0.003272492347489368,0.031634092692397225,34.6875,21.5625,-47.0
1774889325.9259984,0.4586308188839307,0.3236882285515073,-8.988249354816832,-0.002702793718449177,-1.277417629484591,9.220675952021514,-0.020725784867432664,0.003272492347489368,-0.006544984694978736,34.6875,21.5625,-47.0
1774889325.9407067,0.47954895934725184,0.32533262296890497,-8.98819749163633,-0.018524237564040733,-1.2649010144396866,9.32749341315366,-0.006544984694978736,-0.007635815477475192,0.011999138607461015,34.6875,21.5625,-47.0
1774889326.1546938,0.47954895934725184,0.32533262296890497,-8.98819749163633,-0.018524237564040733,-1.2649010144396866,9.32749341315366,-0.006544984694978736,-0.007635815477475192,0.011999138607461015,34.6875,21.5625,-47.0
1774889326.1783168,0.0,0.0,0.0,-0.02905323170617384,-1.3803404801178714,9.398579240307877,0.0,0.00545415391248228,-0.002181661564992912,35.375,22.25,-50.0
1774889326.1990292,0.0,0.0,0.0,-0.03606015969119228,-1.4571641549833771,9.512788298344677,-0.003272492347489368,-0.013089969389957472,0.020725784867432664,35.375,22.25,-50.0
1774889326.2143238,0.0,0.0,0.0,-0.03606015969119228,-1.4571641549833771,9.512788298344677,-0.003272492347489368,-0.013089969389957472,0.020725784867432664,35.375,22.25,-50.0
1774889326.2361066,0.5632047591244739,0.3319460624267069,-8.995048220163623,-0.04072319199270782,-1.5082894524296928,9.471714240913217,0.01090830782496456,0.009817477042468103,0.04363323129985824,35.375,22.25,-50.0
1774889326.4596913,0.5632047591244739,0.3319460624267069,-8.995048220163623,-0.04072319199270782,-1.5082894524296928,9.471714240913217,0.01090830782496456,0.009817477042468103,0.04363323129985824,35.375,22.25,-50.0
1774889326.480207,0.0,0.0,0.0,-0.027100829363285627,-1.4185436336024055,9.444379914519866,0.0,0.0,0.0,35.0,22.25,-51.5
1774889326.505369,0.0,0.0,0.0,-0.00799996408320831,-1.3588187936993306,9.426189225649523,0.004363323129985824,-0.008726646259971648,0.013089969389957472,35.0,22.25,-51.5
1774889326.526617,0.5894892391311791,0.354982570125736,-8.980768511362497,0.0047114483900373115,-1.2822763511334976,9.440844419068174,0.018544123302439753,0.0,0.003272492347489368,35.0,22.25,-51.5
1774889326.543808,0.5894892391311791,0.354982570125736,-8.980768511362497,0.013170751395200976,-1.2815148862508343,9.450597286579049,0.009817477042468103,0.022907446432425576,0.020725784867432664,35.0,22.25,-51.5
1774889326.8255708,0.5942525561961418,0.38345822031462723,-8.987682458337437,0.013170751395200976,-1.2815148862508343,9.450597286579049,0.009817477042468103,0.022907446432425576,0.020725784867432664,35.0,22.25,-51.5
1774889326.859434,0.0,0.0,0.0,0.018800323048531138,-1.281008139877542,9.457087710960868,-0.004363323129985824,-0.001090830782496456,-0.00545415391248228,35.0,22.25,-51.5
1774889326.890184,0.6965904931777813,0.4197035100172299,-9.008405280550738,-0.004214153561168579,-1.4144753741196192,9.471442351006136,-0.018544123302439753,0.00545415391248228,0.02181661564992912,35.375,23.375,-52.6875
1774889326.9136999,0.7174432351308895,0.42148879881347356,-9.029515846638564,-0.04963603602224928,-1.536747444654219,9.544552326043494,-0.019634954084936207,-0.006544984694978736,0.006544984694978736,35.375,23.375,-52.6875
1774889327.195549,0.0,0.0,0.0,-0.10327957335566107,-1.5846670246532781,9.573135527495007,0.003272492347489368,0.0,0.001090830782496456,34.1875,24.875,-54.25
1774889327.218506,0.0,0.0,0.0,-0.10327957335566107,-1.5846670246532781,9.573135527495007,0.003272492347489368,0.0,0.001090830782496456,34.1875,24.875,-54.25
1774889327.3280697,0.7290470987250394,0.45064259840122745,-9.057008682913848,-0.09917902785636218,-1.5452706815450534,9.604816125023914,0.007635815477475192,-0.015271630954950384,0.044724062082354694,35.375,27.0625,-54.6875
1774889327.5240073,0.7290470987250394,0.45064259840122745,-9.057008682913848,-0.09917902785636218,-1.5452706815450534,9.604816125023914,0.007635815477475192,-0.015271630954950384,0.044724062082354694,35.375,27.0625,-54.6875
1774889327.5443194,0.0,0.0,0.0,-0.04258675318483925,-1.5200917977396267,9.770460662769743,0.006544984694978736,0.0,-0.001090830782496456,35.375,27.0625,-54.6875
1774889327.5655975,0.0,0.0,0.0,0.011800331968526034,-1.576927989394703,9.880695252268863,0.013089969389957472,0.004363323129985824,-0.004363323129985824,33.5,26.375,-55.5
1774889327.6067586,0.6948266335140494,0.4408431148167565,-9.043589840530572,0.047994329594541474,-1.614751840039295,9.826940895301341,0.0,0.0,-0.03490658503988659,33.5,26.375,-55.5
1774889327.849327,0.6948266335140494,0.4408431148167565,-9.043589840530572,0.047994329594541474,-1.614751840039295,9.826940895301341,0.0,0.0,-0.03490658503988659,33.5,26.375,-55.5
1774889327.8672104,0.0,0.0,0.0,0.0888065892378064,-1.6399231901231746,9.791167971214968,0.007635815477475192,0.009817477042468103,0.0,32.0,27.875,-55.5
1774889327.903305,0.0,0.0,0.0,-0.001112217628591483,-1.656674442421592,9.767361489845232,-0.00545415391248228,0.004363323129985824,-0.019634954084936207,32.0,27.875,-55.5
1774889327.920063,0.5837862115615245,0.42508328395537315,-9.051049941251526,-0.06764240255393032,-1.6310259849219266,9.731447872185578,-0.011999138607461015,0.001090830782496456,-0.037088246604879506,32.0,27.875,-55.5
1774889327.9348295,0.5837862115615245,0.42508328395537315,-9.051049941251526,-0.06764240255393032,-1.6310259849219266,9.731447872185578,-0.011999138607461015,0.001090830782496456,-0.037088246604879506,32.0,27.875,-55.5
1774889328.1531088,0.5688090975426046,0.4378142637674526,-9.02986015361728,-0.1119174974308817,-1.6139572229679426,9.707547760814474,-0.006544984694978736,0.014180800172453928,-0.017453292519943295,32.0,27.875,-55.5
1774889328.1894858,0.0,0.0,0.0,0.01728944976051093,-1.597300412542449,9.786911410170967,-0.017453292519943295,-0.00545415391248228,-0.031634092692397225,30.875,28.5625,-54.25
1774889328.4847813,0.5210301498564804,0.420115466864878,-9.051254830375521,0.01728944976051093,-1.597300412542449,9.786911410170967,-0.017453292519943295,-0.00545415391248228,-0.031634092692397225,30.875,28.5625,-54.25
1774889328.5066898,0.0,0.0,0.0,0.008160823972492003,-1.5346463322642994,9.808015248214504,-0.004363323129985824,0.0,-0.02181661564992912,28.6875,28.875,-54.6875
1774889328.5361476,0.0,0.0,0.0,0.008160823972492003,-1.5346463322642994,9.808015248214504,-0.004363323129985824,0.0,-0.02181661564992912,28.6875,28.875,-54.6875
1774889328.549149,0.4443061994171551,0.4140727237683066,-9.058564687998679,-0.014639733052599866,-1.5063311885604038,9.81536939327252,-0.016362461737446838,-0.003272492347489368,-0.017453292519943295,28.6875,28.875,-54.6875
1774889328.565696,0.4722203734478909,0.416251611313299,-9.051414188421687,-0.029813249053887932,-1.4874877767263415,9.800192824413532,-0.01090830782496456,0.009817477042468103,0.004363323129985824,29.0,30.375,-53.0625
1774889328.8171313,0.4722203734478909,0.416251611313299,-9.051414188421687,-0.029813249053887932,-1.4874877767263415,9.800192824413532,-0.01090830782496456,0.009817477042468103,0.004363323129985824,29.0,30.375,-53.0625
1774889328.8426719,0.0,0.0,0.0,-0.03991105445346533,-1.4782928083527949,9.756641870298063,-0.02399827721492203,0.00545415391248228,-0.0272707695624114,29.0,30.375,-53.0625
1774889328.8645525,0.4028822203516076,0.40389548261352,-9.093471792827534,-0.029905472610409885,-1.5691818991269886,9.761110313903448,-0.00545415391248228,-0.007635815477475192,-0.011999138607461015,27.1875,29.25,-55.5
1774889328.8937106,0.40509909250359916,0.3760071740559293,-9.093548805110645,-0.06004309844404236,-1.6296675737395454,9.777464460036322,0.003272492347489368,-0.017453292519943295,0.01090830782496456,27.1875,29.25,-55.5
1774889329.1672833,0.0,0.0,0.0,-0.04330312299647211,-1.6699201145249447,9.912117094770785,-0.001090830782496456,-0.001090830782496456,-0.001090830782496456,27.1875,30.0,-56.5625
1774889329.1836772,0.0,0.0,0.0,-0.07564930852904447,-1.5796288210111067,9.938169796579015,-0.02399827721492203,-0.016362461737446838,-0.03599741582238305,27.1875,30.0,-56.5625
1774889329.553562,-0.16129125016221854,0.2606789109883583,-9.193393699147396,-0.059017371164007675,-1.615154171959086,9.669365493005236,0.00545415391248228,0.001090830782496456,-0.038179077387375956,24.25,30.0,-57.5
1774889329.6238513,-0.5034978697028413,0.24012667539220184,-9.208355944478525,-0.11621297051075996,-1.626810490692176,9.639471737317017,-0.018544123302439753,0.00545415391248228,-0.11562806294462433,24.25,30.75,-56.25
1774889330.330154,-2.378078578156338,0.2496207250575202,-9.256418821072211,-0.19462390332026755,-1.6944033511157586,9.922104912909717,-0.002181661564992912,0.008726646259971648,-0.1559888018969932,19.375,24.0,-57.25
1774889330.8311489,-3.1848107016026823,0.1552862484363756,-9.29233061254696,-0.1467731411259374,-1.6363575507718384,10.037088702885617,0.003272492347489368,0.020725784867432664,-0.10799224746714914,17.5625,25.0625,-61.0
1774889331.0255487,0.0,0.0,0.0,-0.08728719565073809,-1.5046769405584355,9.923916982861469,-0.016362461737446838,0.008726646259971648,-0.16689710972195776,17.5625,23.5625,-62.5
1774889331.0929644,-4.670633979821702,0.03454069561174638,-9.293714532919946,-0.084849547302257,-1.646952255111523,9.902536038094825,-0.006544984694978736,0.0,-0.13308135546456762,17.5625,23.5625,-62.5
1774889331.4421463,-5.484630178518108,-0.061025617338199896,-9.320140358495578,-0.08214774511343498,-1.7243624409164149,9.878838164114931,-0.017453292519943295,0.018544123302439753,-0.15162547876700738,17.1875,24.375,-64.875
1774889331.668697,-5.484630178518108,-0.061025617338199896,-9.320140358495578,-0.08214774511343498,-1.7243624409164149,9.878838164114931,-0.017453292519943295,0.018544123302439753,-0.15162547876700738,17.1875,24.375,-64.875
1774889331.710939,0.0,0.0,0.0,-0.08142930038110605,-1.712867820576258,9.949474157050751,-0.018544123302439753,0.01090830782496456,-0.061086523819801536,16.0625,27.0,-67.25
1774889331.740025,-6.392169598889523,-0.13811338896203684,-9.37565087317309,-0.08095118343729465,-1.6115551513382633,9.896128270074216,-0.002181661564992912,0.020725784867432664,-0.13744467859455345,16.0625,27.0,-67.25
1774889331.7538285,-6.65170213882719,-0.14537560982510422,-9.376195880719475,-0.11742923073261761,-1.6444860529166294,9.793724944057548,-0.001090830782496456,0.02181661564992912,-0.16689710972195776,16.0625,27.0,-67.25
1774889332.019484,-6.65170213882719,-0.14537560982510422,-9.376195880719475,-0.11742923073261761,-1.6444860529166294,9.793724944057548,-0.001090830782496456,0.02181661564992912,-0.16689710972195776,16.0625,27.0,-67.25
1774889332.0458565,0.0,0.0,0.0,-0.054732059330863086,-1.6195696361522867,9.725576674513558,0.007635815477475192,0.014180800172453928,-0.14180800172453928,16.0625,27.0,-67.25
1774889332.0694733,-7.497718799258113,-0.2007712602048226,-9.37550989822763,-0.06652957945340061,-1.6498196030327004,9.914382581910441,-0.017453292519943295,0.007635815477475192,-0.16580627893946132,14.1875,28.75,-69.25
1774889332.0988274,-7.72895539999882,-0.21318649071467408,-9.382723843745532,-0.02085890999090438,-1.6699506180773445,10.040030804182887,-0.007635815477475192,0.009817477042468103,-0.13199052468207118,14.1875,28.75,-69.25
1774889332.3172133,0.0,0.0,0.0,0.0028441869469420893,-1.7101084773699375,10.116958069107952,-0.002181661564992912,0.004363323129985824,-0.05345070834232634,12.375,31.0,-67.5625
1774889332.3340394,0.0,0.0,0.0,0.0028441869469420893,-1.7101084773699375,10.116958069107952,-0.002181661564992912,0.004363323129985824,-0.05345070834232634,12.375,31.0,-67.5625
1774889332.3557603,0.0,0.0,0.0,0.018618333178136912,-1.7100721904779217,9.930649373362051,0.0272707695624114,0.016362461737446838,-0.10362892433716332,12.375,31.0,-67.5625
1774889332.382917,-8.325220686353784,-0.23411733811738583,-9.383524066483306,0.029115851286237962,-1.7434991590298303,9.779902123889098,0.007635815477475192,0.01090830782496456,-0.1461713248545251,12.375,31.0,-67.5625
1774889332.668156,0.0,0.0,0.0,0.005995826956343955,-1.6754264170997968,9.679581513321962,0.008726646259971648,0.009817477042468103,-0.1439896632895322,11.25,32.0625,-66.875
1774889332.7162201,-9.513268477470046,-0.33395502573637237,-9.323876351287874,-0.11434076565209851,-1.5230394569214447,9.780097093814147,0.004363323129985824,-0.013089969389957472,-0.27052603405912107,10.875,33.875,-66.0625
1774889333.0243573,-10.395363232687846,-0.49415665233749595,-9.362723833136378,-0.11434076565209851,-1.5230394569214447,9.780097093814147,0.004363323129985824,-0.013089969389957472,-0.27052603405912107,10.875,33.875,-66.0625
1774889333.0466661,0.0,0.0,0.0,-0.09516139973018778,-1.2817825148534419,9.395627013957615,-0.01090830782496456,0.002181661564992912,-0.11780972450961724,10.875,33.875,-66.0625
1774889333.0745661,0.0,0.0,0.0,-0.029877731424758858,-1.3246726959181219,9.520858959809065,0.008726646259971648,0.007635815477475192,-0.055632369907319255,10.1875,32.5,-65.25
1774889333.4014316,-11.728940637464653,-0.6543565925031809,-9.372214713954598,0.04248035009747713,-1.4524460386235067,9.766669681338493,0.003272492347489368,0.013089969389957472,-0.1505346479845109,8.75,27.0625,-62.875
1774889333.4685295,-11.959835448474733,-0.6733240203340366,-9.370566910306103,-0.008526030327245776,-1.608848061623913,9.854756614523168,0.0,0.01090830782496456,-0.14944381720201447,8.75,27.0625,-62.875
1774889333.7028263,-11.959835448474733,-0.6733240203340366,-9.370566910306103,-0.008526030327245776,-1.608848061623913,9.854756614523168,0.0,0.01090830782496456,-0.14944381720201447,8.75,27.0625,-62.875
1774889333.7495315,0.0,0.0,0.0,0.051192921083646745,-1.7129318608056097,9.913377484562051,-0.018544123302439753,0.016362461737446838,-0.1439896632895322,9.5625,26.0,-63.5625
1774889333.786546,0.0,0.0,0.0,0.054138987362684646,-1.7086060089077826,9.918937901661709,0.0,0.004363323129985824,-0.1308996938995747,9.5625,26.0,-63.5625
1774889334.0671768,-12.842815397845541,-0.7579908273400917,-9.349958839630716,0.054138987362684646,-1.7086060089077826,9.918937901661709,0.0,0.004363323129985824,-0.1308996938995747,9.5625,26.0,-63.5625
1774889334.114655,0.0,0.0,0.0,0.05609956156166769,-1.7057272027927106,10.15679611663996,-0.007635815477475192,-0.003272492347489368,-0.05126904677733343,9.875,26.375,-63.6875
1774889334.1360939,-13.631100365115895,-0.7895747951170279,-9.305821902520432,0.050714078375403315,-1.7038113894815017,9.980576930925688,0.017453292519943295,0.031634092692397225,-0.09708393964218458,9.875,26.375,-63.6875
1774889334.1669326,-13.631100365115895,-0.7895747951170279,-9.305821902520432,0.050714078375403315,-1.7038113894815017,9.980576930925688,0.017453292519943295,0.031634092692397225,-0.09708393964218458,9.875,26.375,-63.6875
1774889334.3860216,-13.865109568068181,-0.7815985188616585,-9.314591401041474,0.000298535572262032,-1.735987554197123,9.84992458450085,-0.025089107997418487,0.017453292519943295,-0.15707963267948966,10.25,28.25,-63.6875
1774889334.4184313,0.0,0.0,0.0,-0.03325244498471431,-1.7272944270181836,9.762976907437457,0.001090830782496456,0.002181661564992912,-0.055632369907319255,10.25,28.25,-63.6875
1774889334.4361007,0.0,0.0,0.0,-0.052235136049052604,-1.721509247989193,9.705114199620963,-0.007635815477475192,0.003272492347489368,-0.1734420944169365,11.6875,27.5,-65.25
1774889334.454132,0.0,0.0,0.0,-0.052235136049052604,-1.721509247989193,9.705114199620963,-0.007635815477475192,0.003272492347489368,-0.1734420944169365,11.6875,27.5,-65.25
1774889334.5019276,-14.678450024355813,-0.8756190850833107,-9.305607880071873,-0.06770362527486196,-1.6315284698804584,9.75797741492209,0.008726646259971648,0.006544984694978736,-0.15489797111449674,12.5,28.5625,-65.25
1774889334.7797744,0.0,0.0,0.0,-0.014950000955496978,-1.7246803074362607,9.832246449785433,0.0,-0.003272492347489368,-0.06763150851478027,12.5,28.5625,-65.25
1774889335.1194117,0.0,0.0,0.0,-0.13584316680415037,-1.9048640396541892,10.071783840268525,-0.004363323129985824,-0.00545415391248228,-0.022907446432425576,13.1875,31.5625,-64.875
1774889335.1552892,0.0,0.0,0.0,-0.15061412077230896,-1.8062287245427178,9.980869109674279,0.018544123302439753,0.011999138607461015,-0.038179077387375956,15.375,32.5625,-63.6875
1774889335.2064173,-16.632308794437773,-0.9690293391286692,-9.277144506775088,-0.13702824368451555,-1.790764699774489,10.094312180828501,0.013089969389957472,-0.002181661564992912,-0.0818123086872342,15.375,32.5625,-63.6875
1774889335.4292696,-16.632308794437773,-0.9690293391286692,-9.277144506775088,-0.13702824368451555,-1.790764699774489,10.094312180828501,0.013089969389957472,-0.002181661564992912,-0.0818123086872342,15.375,32.5625,-63.6875
1774889335.453996,0.0,0.0,0.0,-0.09119076546626692,-1.5764217498892257,9.912233675975905,-0.016362461737446838,0.01090830782496456,-0.044724062082354694,16.875,35.5625,-62.875
1774889335.4739993,0.0,0.0,0.0,-0.060686435750204354,-1.5675833794009943,9.804442911775949,-0.020725784867432664,0.002181661564992912,-0.09381144729469522,16.875,35.5625,-62.875
1774889335.4970238,-17.191881298715188,-0.9839285723715293,-9.305394895951551,-0.04038614507985494,-1.5182150903769918,9.73270936230261,0.003272492347489368,0.011999138607461015,-0.06981317007977318,16.875,35.5625,-62.875
1774889335.5212379,-17.3123891121693,-0.9947235880460769,-9.31168524212791,-0.02687652840784275,-1.502086604048038,9.684971486444356,0.001090830782496456,0.007635815477475192,-0.1090830782496456,16.875,35.5625,-62.875
1774889335.7410965,-17.3123891121693,-0.9947235880460769,-9.31168524212791,-0.02687652840784275,-1.502086604048038,9.684971486444356,0.001090830782496456,0.007635815477475192,-0.1090830782496456,16.875,35.5625,-62.875
1774889335.7654285,0.0,0.0,0.0,-0.017886029424925072,-1.4746277180265197,9.629786681376466,-0.004363323129985824,0.0,-0.05999569303730508,16.875,35.5625,-62.875
1774889335.8149416,-17.99590468832279,-0.9730319779093485,-9.310676732656729,-0.011902952782247487,-1.436283465871138,9.59306181005845,-0.003272492347489368,0.04036073895236887,-0.16471544815696484,17.6875,38.875,-57.25
1774889335.8407981,-18.225342402905408,-0.9501232853457547,-9.315448011920054,-0.007921282111890898,-1.4107657943950938,9.658939834537627,-0.019634954084936207,0.04254240051736178,-0.1461713248545251,17.6875,38.875,-57.25
1774889336.07502,-18.225342402905408,-0.9501232853457547,-9.315448011920054,-0.007921282111890898,-1.4107657943950938,9.658939834537627,-0.019634954084936207,0.04254240051736178,-0.1461713248545251,17.6875,38.875,-57.25
1774889336.1031523,0.0,0.0,0.0,-0.0052715247589443116,-1.393784069078854,9.702780923922766,-0.022907446432425576,0.009817477042468103,-0.17016960206944712,16.875,40.375,-52.1875
1774889336.1309087,0.0,0.0,0.0,-0.0052715247589443116,-1.393784069078854,9.702780923922766,-0.022907446432425576,0.009817477042468103,-0.17016960206944712,16.875,40.375,-52.1875
1774889336.1629338,-19.136131672878907,-1.0232098939338041,-9.30029094686193,-0.0023346285407103698,-1.4083896095819426,9.397003737273426,-0.016362461737446838,0.022907446432425576,-0.18980455615438332,17.25,42.5625,-52.1875
1774889336.421545,-19.502102345154256,-0.9963703391024056,-9.29993469774849,-0.0023346285407103698,-1.4083896095819426,9.397003737273426,-0.016362461737446838,0.022907446432425576,-0.18980455615438332,17.25,42.5625,-52.1875
1774889336.461512,0.0,0.0,0.0,0.04862300639545761,-1.4390343085318968,9.347829345016121,0.008726646259971648,0.009817477042468103,-0.08835729338221293,17.25,42.5625,-52.1875
1774889336.5150964,-20.30303023859507,-1.0452160796119523,-9.281296401138945,0.01897762077232902,-1.4594280133593742,9.602783943112307,-0.02945243112740431,0.008726646259971648,-0.17780541754692233,14.0,42.5625,-48.1875
1774889336.744687,-20.30303023859507,-1.0452160796119523,-9.281296401138945,0.01897762077232902,-1.4594280133593742,9.602783943112307,-0.02945243112740431,0.008726646259971648,-0.17780541754692233,14.0,42.5625,-48.1875
1774889336.7857275,0.0,0.0,0.0,-0.0007510521992070487,-1.4729997961094505,9.779143603530486,-0.00545415391248228,0.014180800172453928,-0.028361600344907856,11.0625,41.5,-43.875
1774889336.85094,-21.096341544932965,-1.0310867946516298,-9.274304740630635,-0.013880263678047037,-1.4853767776301987,9.889818764057653,-0.00545415391248228,0.04145156973486533,-0.18762289458939044,11.0625,41.5,-43.875
1774889337.0788205,-22.021480131506788,-1.0719587002749031,-9.200870994077201,0.017523733233519544,-1.5973119834992147,9.943401176822016,0.013089969389957472,-0.003272492347489368,-0.12326387842209953,7.6875,39.25,-39.0625
1774889337.409435,-22.021480131506788,-1.0719587002749031,-9.200870994077201,0.017523733233519544,-1.5973119834992147,9.943401176822016,0.013089969389957472,-0.003272492347489368,-0.12326387842209953,7.6875,39.25,-39.0625
1774889337.4265702,0.0,0.0,0.0,0.061838524323771495,-1.691874282850782,9.955643892010695,-0.00545415391248228,0.00545415391248228,-0.12762720155208535,6.1875,37.375,-36.6875
1774889337.4540193,-22.59719687002438,-1.1155223279170798,-9.181567075533772,0.091329522765682,-1.7648397718611106,9.963791282208671,0.009817477042468103,-0.003272492347489368,-0.09817477042468103,6.1875,37.375,-36.6875
1774889337.7317994,-22.59719687002438,-1.1155223279170798,-9.181567075533772,0.091329522765682,-1.7648397718611106,9.963791282208671,0.009817477042468103,-0.003272492347489368,-0.09817477042468103,6.1875,37.375,-36.6875
1774889337.7603166,-23.303848826115573,-1.141389856323457,-9.095017050675315,0.047398330353666966,-1.813397489719566,9.969213279373113,-0.004363323129985824,0.025089107997418487,-0.1439896632895322,1.75,35.25,-32.75
1774889337.799583,-23.579952128907834,-1.1703412356265113,-9.090332641272148,0.018162612547045123,-1.7219429753583009,9.952750887674455,0.003272492347489368,0.0,-0.09708393964218458,1.75,35.25,-32.75
1774889338.0579512,-23.579952128907834,-1.1703412356265113,-9.090332641272148,0.018162612547045123,-1.7219429753583009,9.952750887674455,0.003272492347489368,0.0,-0.09708393964218458,1.75,35.25,-32.75
1774889338.139844,-24.39009502573793,-1.1783555846426192,-9.08687705331985,0.006479885027433398,-1.5835884668148037,9.817104894429633,0.004363323129985824,0.026179938779914945,-0.11344640137963143,-0.375,32.25,-28.375
1774889338.4060245,-24.613961482759272,-1.1739696791272867,-9.082578255960414,0.006479885027433398,-1.5835884668148037,9.817104894429633,0.004363323129985824,0.026179938779914945,-0.11344640137963143,-0.375,32.25,-28.375
1774889338.423196,0.0,0.0,0.0,0.007657402808017677,-1.5589723026282154,9.81472822787605,-0.002181661564992912,-0.004363323129985824,-0.15162547876700738,-0.375,32.25,-28.375
1774889338.4458957,0.0,0.0,0.0,0.04523725651777425,-1.5425905203426122,9.813146582833745,-0.002181661564992912,0.004363323129985824,-0.10362892433716332,-0.375,32.25,-28.375
1774889338.4711924,-25.469306425954613,-1.2581425514797497,-9.11271993822764,0.01672444205003504,-1.6153164199110266,9.735156446457879,-0.028361600344907856,0.030543261909900768,-0.13962634015954636,-5.0,25.875,-27.375
1774889338.495092,-25.705432815294557,-1.2806048722393486,-9.095085500888453,-0.022321187713154476,-1.6637146936722773,9.683254881906647,-0.01090830782496456,0.016362461737446838,-0.1734420944169365,-5.0,25.875,-27.375
1774889338.726213,0.0,0.0,0.0,-0.04830561815229366,-1.695923204216247,9.648714970476266,0.003272492347489368,0.009817477042468103,-0.016362461737446838,-5.0,20.75,-27.75
1774889338.7503393,0.0,0.0,0.0,-0.04830561815229366,-1.695923204216247,9.648714970476266,0.003272492347489368,0.009817477042468103,-0.016362461737446838,-5.0,20.75,-27.75
1774889338.7740085,0.0,0.0,0.0,-0.06559796634443377,-1.754153836971135,9.475199018426068,-0.002181661564992912,-0.006544984694978736,-0.08508480103472356,-5.0,20.75,-27.75
1774889338.8164086,-26.244805469069487,-1.2897493807975882,-9.06804213120114,-0.053690048946881085,-1.7025876564931002,9.359726090636848,-0.00545415391248228,0.039269908169872414,-0.1308996938995747,-5.0,20.75,-27.75
1774889339.051147,-26.244805469069487,-1.2897493807975882,-9.06804213120114,-0.053690048946881085,-1.7025876564931002,9.359726090636848,-0.00545415391248228,0.039269908169872414,-0.1308996938995747,-5.0,20.75,-27.75
1774889339.07642,0.0,0.0,0.0,-0.07252635659751804,-1.7151025033194187,9.430065062232297,-0.002181661564992912,0.008726646259971648,-0.04690572364734761,-6.1875,15.875,-22.25
1774889339.1018786,0.0,0.0,0.0,-0.07252635659751804,-1.7151025033194187,9.430065062232297,-0.002181661564992912,0.008726646259971648,-0.04690572364734761,-6.1875,15.875,-22.25
1774889339.1228626,-26.91557151370714,-1.2818111290830216,-9.0459775482572,-0.058300815265118384,-1.683289653594502,9.54377709623766,0.001090830782496456,0.026179938779914945,-0.1308996938995747,-6.1875,15.875,-22.25
1774889339.1718068,-27.06742679872588,-1.2818025892095652,-9.054465075036621,-0.042143653003476556,-1.6621185574753863,9.619451184621578,0.00545415391248228,0.02181661564992912,-0.12980886311707826,-6.1875,15.875,-22.25
1774889339.380755,-27.06742679872588,-1.2818025892095652,-9.054465075036621,-0.042143653003476556,-1.6621185574753863,9.619451184621578,0.00545415391248228,0.02181661564992912,-0.12980886311707826,-6.1875,15.875,-22.25
1774889339.443476,-27.816370069824107,-1.315516098470824,-9.030703236719065,-0.02423563259895138,-1.6620690541774064,9.630899435542087,0.003272492347489368,0.020725784867432664,-0.1341721862470641,-5.0625,13.0,-23.0625
1774889339.4738917,-27.816370069824107,-1.315516098470824,-9.030703236719065,-0.02423563259895138,-1.6620690541774064,9.630899435542087,0.003272492347489368,0.020725784867432664,-0.1341721862470641,-5.0625,13.0,-23.0625
1774889339.6699884,-27.816370069824107,-1.315516098470824,-9.030703236719065,-0.02423563259895138,-1.6620690541774064,9.630899435542087,0.003272492347489368,0.020725784867432664,-0.1341721862470641,-5.0625,13.0,-23.0625
1774889339.696171,0.0,0.0,0.0,-0.016128542764847025,-1.718243831466644,9.744332362354765,0.002181661564992912,0.004363323129985824,-0.032724923474893676,-2.875,8.875,-23.875
1774889339.713333,0.0,0.0,0.0,-0.010733365042377912,-1.7087959543367812,9.819820708019783,0.01090830782496456,0.014180800172453928,-0.11999138607461016,-2.875,8.875,-23.875
1774889339.7354844,0.0,0.0,0.0,-0.010733365042377912,-1.7087959543367812,9.819820708019783,0.01090830782496456,0.014180800172453928,-0.11999138607461016,-2.875,8.875,-23.875
1774889339.756125,-28.553134424897053,-1.3209509523525875,-9.013503139703172,0.002892400585799336,-1.5653589176464657,9.886782917336376,-0.001090830782496456,0.032724923474893676,-0.11562806294462433,-2.875,8.875,-23.875
1774889339.9543588,-28.553134424897053,-1.3209509523525875,-9.013503139703172,0.002892400585799336,-1.5653589176464657,9.886782917336376,-0.001090830782496456,0.032724923474893676,-0.11562806294462433,-2.875,8.875,-23.875
1774889339.9739087,0.0,0.0,0.0,0.0019248602796178558,-1.429761831537915,9.841027503522055,0.004363323129985824,0.006544984694978736,-0.039269908169872414,0.0625,6.6875,-27.875
1774889340.003059,0.0,0.0,0.0,0.01131630813594563,-1.3395234854513751,9.777126669676893,-0.019634954084936207,0.02181661564992912,-0.11780972450961724,0.0625,6.6875,-27.875
1774889340.0366757,-29.16815693771792,-1.3407343823988334,-9.035643632997884,0.008356825994504566,-1.5381276914864241,9.783238841648705,0.002181661564992912,0.014180800172453928,-0.12544553998709243,0.0625,6.6875,-27.875
1774889340.2831278,0.0,0.0,0.0,0.008906486054799132,-1.592275786916382,9.839022311961411,0.002181661564992912,0.004363323129985824,-0.0545415391248228,-3.1875,5.25,-26.25
1774889340.3128395,0.0,0.0,0.0,0.015962502099458743,-1.5379927234535364,9.876145588312324,0.002181661564992912,0.014180800172453928,-0.12217304763960307,-3.1875,5.25,-26.25
1774889340.33148,-29.984997498002258,-1.3867167153248716,-9.03815268695394,0.020658201956315927,-1.5018679511005635,9.870744708663812,-0.004363323129985824,0.009817477042468103,-0.14835298641951802,-3.1875,5.25,-26.25
1774889340.375574,-30.14992109148465,-1.4017125663185501,-9.042530532237464,-0.016358202731182585,-1.4978979888837245,9.816973807979716,-0.01090830782496456,0.01090830782496456,-0.15707963267948966,-3.1875,5.25,-26.25
1774889340.5636628,-30.14992109148465,-1.4017125663185501,-9.042530532237464,-0.016358202731182585,-1.4978979888837245,9.816973807979716,-0.01090830782496456,0.01090830782496456,-0.15707963267948966,-3.1875,5.25,-26.25
1774889340.5920975,0.0,0.0,0.0,-0.04099220655037876,-1.4952560233758019,9.690871858137145,0.003272492347489368,0.003272492347489368,-0.050178215994836975,-3.1875,5.25,-26.25
1774889340.675357,-30.748071638100235,-1.498711415933405,-9.058443884020084,-0.0889719075051047,-1.4619709819085935,9.681076501830738,-0.019634954084936207,0.007635815477475192,-0.050178215994836975,0.0625,4.5,-27.0625
1774889340.863884,-30.748071638100235,-1.498711415933405,-9.058443884020084,-0.0889719075051047,-1.4619709819085935,9.681076501830738,-0.019634954084936207,0.007635815477475192,-0.050178215994836975,0.0625,4.5,-27.0625
1774889340.8800344,0.0,0.0,0.0,-0.059209810563318394,-1.5047981186380104,9.633884836040572,0.009817477042468103,0.001090830782496456,-0.008726646259971648,1.1875,4.875,-29.5
1774889340.900266,0.0,0.0,0.0,-0.059209810563318394,-1.5047981186380104,9.633884836040572,0.009817477042468103,0.001090830782496456,-0.008726646259971648,1.1875,4.875,-29.5
1774889340.9266837,0.0,0.0,0.0,-0.10296058995203475,-1.5332990997209732,9.602479309622664,-0.007635815477475192,0.00545415391248228,-0.07853981633974483,1.1875,4.875,-29.5
1774889340.9461608,-30.993467573811376,-1.5275815940544761,-9.08896151383629,-0.06851912246792854,-1.5388857374255878,9.702003304077762,-0.022907446432425576,-0.003272492347489368,-0.04036073895236887,1.1875,4.875,-29.5
1774889341.1722515,-31.074413397631155,-1.5041304702151208,-9.110359473804492,-0.04559871059365671,-1.5593291409477734,9.768235410631766,-0.014180800172453928,0.003272492347489368,-0.039269908169872414,0.875,5.6875,-29.5
1774889341.2143545,0.0,0.0,0.0,-0.03034543252910576,-1.5729339976240073,9.84241814304822,0.01090830782496456,0.003272492347489368,-0.04799655442984406,0.875,5.6875,-29.5
1774889341.246501,0.0,0.0,0.0,-0.03034543252910576,-1.5729339976240073,9.84241814304822,0.01090830782496456,0.003272492347489368,-0.04799655442984406,0.875,5.6875,-29.5
1774889341.2646773,-31.38668104556834,-1.4315892620179385,-9.097332203536546,-0.02353965807474693,-1.581987877765834,9.844954358893482,0.003272492347489368,-0.001090830782496456,-0.022907446432425576,0.375,2.375,-22.875
1774889341.4442303,-31.38668104556834,-1.4315892620179385,-9.097332203536546,-0.02353965807474693,-1.581987877765834,9.844954358893482,0.003272492347489368,-0.001090830782496456,-0.022907446432425576,0.375,2.375,-22.875
1774889341.4636867,0.0,0.0,0.0,-0.019010491200853193,-1.4441733304470181,9.712837713914341,0.001090830782496456,0.002181661564992912,-0.014180800172453928,1.5,2.0,-24.875
1774889341.4932895,0.0,0.0,0.0,-0.012651269533066578,-1.3524592886957114,9.574738886910557,0.001090830782496456,0.008726646259971648,-0.04036073895236887,1.5,2.0,-24.875
1774889341.5074086,0.0,0.0,0.0,-0.012651269533066578,-1.3524592886957114,9.574738886910557,0.001090830782496456,0.008726646259971648,-0.04036073895236887,1.5,2.0,-24.875
1774889341.5242977,-31.590466253205705,-1.4305071933145237,-9.084960214916414,-0.001729055135676406,-1.3817426345208157,9.482835660204518,-0.013089969389957472,0.009817477042468103,-0.061086523819801536,1.5,2.0,-24.875
1774889341.540047,-31.590466253205705,-1.4305071933145237,-9.084960214916414,0.005539556536657546,-1.4480619379534874,9.528718664092178,-0.017453292519943295,0.0,-0.05781403147231216,1.5,2.0,-24.875
1774889341.7595057,-31.694845501275168,-1.4107699906263265,-9.113625711279438,0.005539556536657546,-1.4480619379534874,9.528718664092178,-0.017453292519943295,0.0,-0.05781403147231216,1.5,2.0,-24.875
1774889341.7850232,0.0,0.0,0.0,-0.016384157249671835,-1.4921966935527695,9.559253290632679,-0.001090830782496456,0.0,-0.020725784867432664,1.5,2.0,-24.875
1774889341.8199234,0.0,0.0,0.0,-0.037664367285183006,-1.5014972101426514,9.579573743501255,0.01090830782496456,0.009817477042468103,-0.050178215994836975,3.6875,1.6875,-26.875
1774889341.8374517,0.0,0.0,0.0,-0.037664367285183006,-1.5014972101426514,9.579573743501255,0.01090830782496456,0.009817477042468103,-0.050178215994836975,3.6875,1.6875,-26.875
1774889341.8600223,-31.992627035499464,-1.4314735395710525,-9.074468807608154,-0.08527722642148762,-1.50768660003964,9.663344123744666,-0.017453292519943295,0.00545415391248228,-0.06544984694978735,3.6875,1.6875,-26.875
1774889342.0576098,-31.992627035499464,-1.4314735395710525,-9.074468807608154,-0.08527722642148762,-1.50768660003964,9.663344123744666,-0.017453292519943295,0.00545415391248228,-0.06544984694978735,3.6875,1.6875,-26.875
1774889342.083226,0.0,0.0,0.0,-0.08351193523301828,-1.5118055698760706,9.719092376020194,0.0,0.0,0.0,5.5,1.6875,-27.5625
1774889342.113523,0.0,0.0,0.0,-0.10909804732524167,-1.5178918099976266,9.833129784429122,-0.007635815477475192,0.002181661564992912,-0.07526732399225546,5.5,1.6875,-27.5625
1774889342.1263266,-32.259349674871366,-1.366046013892642,-9.073810958529958,-0.07260353178990667,-1.4985263528595296,9.815357278039,0.002181661564992912,-0.008726646259971648,-0.037088246604879506,5.5,1.6875,-27.5625
1774889342.1391532,-32.259349674871366,-1.366046013892642,-9.073810958529958,-0.07260353178990667,-1.4985263528595296,9.815357278039,0.002181661564992912,-0.008726646259971648,-0.037088246604879506,5.5,1.6875,-27.5625
1774889342.1555297,-32.2964016862656,-1.3688933061375061,-9.073627955916955,-0.04162661595695272,-1.5057095277043728,9.80352987356828,0.003272492347489368,0.009817477042468103,-0.026179938779914945,5.5,1.6875,-27.5625
1774889342.3434572,-32.2964016862656,-1.3688933061375061,-9.073627955916955,-0.04162661595695272,-1.5057095277043728,9.80352987356828,0.003272492347489368,0.009817477042468103,-0.026179938779914945,5.5,1.6875,-27.5625
1774889342.3631227,0.0,0.0,0.0,-0.021011824504944907,-1.490419180078379,9.725411522160073,-0.009817477042468103,0.002181661564992912,-0.025089107997418487,6.5625,1.6875,-28.75
1774889342.3882666,0.0,0.0,0.0,0.016122870875292693,-1.3732000499034345,9.673424631937074,0.01090830782496456,0.00545415391248228,-0.01090830782496456,6.5625,1.6875,-28.75
1774889342.410955,-32.42861418241224,-1.341581130932301,-9.016993843313518,0.010729590463238663,-1.2951920281954903,9.699039947957033,0.017453292519943295,0.01090830782496456,-0.0545415391248228,6.5625,1.6875,-28.75
1774889342.4305792,-32.516700239684965,-1.3503752915348401,-9.023035765013226,-0.046381364721203674,-1.3235612421312182,9.769608441943596,-0.015271630954950384,0.004363323129985824,-0.09381144729469522,6.5625,1.6875,-28.75
1774889342.6426458,0.0,0.0,0.0,-0.08438806742527895,-1.3424406371005608,9.763049199072814,-0.006544984694978736,-0.001090830782496456,-0.014180800172453928,6.5625,-0.0625,-31.5625
1774889342.6570766,0.0,0.0,0.0,-0.08438806742527895,-1.3424406371005608,9.763049199072814,-0.006544984694978736,-0.001090830782496456,-0.014180800172453928,6.5625,-0.0625,-31.5625
1774889342.6888187,0.0,0.0,0.0,-0.12306155034143082,-1.4051813391657888,9.678401415238188,-0.017453292519943295,0.01090830782496456,-0.0545415391248228,6.5625,-0.0625,-31.5625
1774889342.9339576,-32.77684445696016,-1.3923212529375668,-9.042889247534475,-0.13541787438174158,-1.2930594369939419,9.622069260673946,0.00545415391248228,0.001090830782496456,-0.04363323129985824,6.5625,-0.0625,-31.5625
1774889342.9735212,0.0,0.0,0.0,-0.14364087000138479,-1.3723187021189829,9.59127106449748,-0.006544984694978736,0.004363323129985824,-0.008726646259971648,6.5625,-0.0625,-31.5625
1774889343.0254462,-32.894646986848365,-1.3894043296452154,-9.0743825671291,-0.14242295831473878,-1.3983039640171384,9.651057889956101,-0.01090830782496456,-0.006544984694978736,-0.018544123302439753,8.5,1.0,-34.0
1774889343.227133,-32.894646986848365,-1.3894043296452154,-9.0743825671291,-0.14242295831473878,-1.3983039640171384,9.651057889956101,-0.01090830782496456,-0.006544984694978736,-0.018544123302439753,8.5,1.0,-34.0
1774889343.2500072,0.0,0.0,0.0,-0.14161245169224082,-1.4155968655359659,9.690845354436213,-0.006544984694978736,0.0,-0.004363323129985824,8.5,1.0,-34.0
1774889343.2869058,0.0,0.0,0.0,-0.14107306858892066,-1.4271050983223783,9.717323467592626,0.0,0.001090830782496456,0.018544123302439753,8.5,1.0,-34.0
1774889343.310548,-32.89842724539212,-1.3406178103846391,-9.08146763326234,-0.09053743954917438,-1.468214815759546,9.815227037093981,0.011999138607461015,0.011999138607461015,-0.001090830782496456,9.1875,0.5625,-36.0
1774889343.5157573,0.0,0.0,0.0,-0.05690654294318858,-1.4955728734883476,9.880380768942603,0.0,0.0,0.0,9.5,0.1875,-37.0625
1774889343.5428207,0.0,0.0,0.0,-0.03787066864095524,-1.4903635733461,9.696272253575268,0.007635815477475192,-0.00545415391248228,-0.013089969389957472,9.5,0.1875,-37.0625
1774889343.5650687,0.0,0.0,0.0,-0.03787066864095524,-1.4903635733461,9.696272253575268,0.007635815477475192,-0.00545415391248228,-0.013089969389957472,9.5,0.1875,-37.0625
1774889343.597221,-32.99558777026341,-1.2941243753462826,-9.044779945773668,-0.025202506937468,-1.4467555018052973,9.57375009322518,0.04690572364734761,0.001090830782496456,0.014180800172453928,9.5,0.1875,-37.0625
1774889343.611025,-33.005012086507605,-1.2746218466753956,-9.050823469080875,-0.053568215616949,-1.4578761578168031,9.545734751491516,-0.002181661564992912,0.00545415391248228,-0.013089969389957472,9.5,0.1875,-37.0625
1774889343.824341,-33.005012086507605,-1.2746218466753956,-9.050823469080875,-0.053568215616949,-1.4578761578168031,9.545734751491516,-0.002181661564992912,0.00545415391248228,-0.013089969389957472,9.5,0.1875,-37.0625
1774889343.840812,0.0,0.0,0.0,-0.03564904909690249,-1.465276830166593,9.55385174817819,0.0,0.006544984694978736,0.002181661564992912,10.25,1.25,-38.75
1774889343.861566,0.0,0.0,0.0,-0.03564904909690249,-1.465276830166593,9.55385174817819,0.0,0.006544984694978736,0.002181661564992912,10.25,1.25,-38.75
1774889343.8835886,0.0,0.0,0.0,-0.06052027272853051,-1.5371041290908387,9.619465529532127,-0.013089969389957472,0.0,-0.04036073895236887,10.25,1.25,-38.75
1774889343.9135447,-33.07772935411442,-1.2803815546629742,-9.050004150519085,-0.07038157081096802,-1.5180021600150344,9.686546550020445,0.008726646259971648,-0.011999138607461015,-0.013089969389957472,10.25,1.25,-38.75
1774889344.0962431,-33.07772935411442,-1.2803815546629742,-9.050004150519085,-0.07038157081096802,-1.5180021600150344,9.686546550020445,0.008726646259971648,-0.011999138607461015,-0.013089969389957472,10.25,1.25,-38.75
1774889344.1084032,0.0,0.0,0.0,-0.07694415452691274,-1.4684937841975496,9.731188219811322,0.0,0.0,0.0,9.875,0.5625,-41.0625
1774889344.1261756,0.0,0.0,0.0,-0.08131148068101043,-1.4355465131358085,9.67726895969404,-0.011999138607461015,0.008726646259971648,-0.03490658503988659,9.875,0.5625,-41.0625
1774889344.1507154,0.0,0.0,0.0,-0.054111882084458246,-1.4169655839966722,9.64138629440359,0.002181661564992912,-0.006544984694978736,0.006544984694978736,9.875,0.5625,-41.0625
1774889344.1818907,0.0,0.0,0.0,-0.07615219354571012,-1.4915730876074595,9.67437368051286,-0.003272492347489368,0.0,-0.04690572364734761,9.875,0.5625,-41.0625
1774889344.4047153,0.0,0.0,0.0,-0.064058880958207,-1.5980904468644446,9.7598835399144,0.002181661564992912,0.013089969389957472,0.003272492347489368,9.875,0.5625,-41.0625
1774889344.4209495,0.0,0.0,0.0,-0.064058880958207,-1.5980904468644446,9.7598835399144,0.002181661564992912,0.013089969389957472,0.003272492347489368,9.875,0.5625,-41.0625
1774889344.4499257,0.0,0.0,0.0,-0.08277181018093191,-1.6689765595731012,9.816789396138407,0.01090830782496456,0.019634954084936207,-0.022907446432425576,9.875,0.5625,-41.0625
1774889344.4641302,-33.23236977648292,-1.0735312000549262,-9.025645937128393,-0.14874684285864936,-1.6693189118284775,9.777722038507074,-0.006544984694978736,0.004363323129985824,-0.04254240051736178,9.5,1.6875,-43.5
1774889344.490794,-33.239351963166754,-1.0747595693025556,-9.00342790251998,-0.19265249011626565,-1.6093347326983563,9.751723148414401,0.0,0.00545415391248228,-0.004363323129985824,9.5,1.6875,-43.5
1774889344.6858466,-33.239351963166754,-1.0747595693025556,-9.00342790251998,-0.19265249011626565,-1.6093347326983563,9.751723148414401,0.0,0.00545415391248228,-0.004363323129985824,9.5,1.6875,-43.5
1774889344.7010574,0.0,0.0,0.0,-0.06465095766398213,-1.629627942286195,9.811358746752704,0.008726646259971648,0.00545415391248228,0.004363323129985824,9.375,1.1875,-42.6875
1774889344.717471,0.0,0.0,0.0,-0.06465095766398213,-1.629627942286195,9.811358746752704,0.008726646259971648,0.00545415391248228,0.004363323129985824,9.375,1.1875,-42.6875
1774889344.7447608,0.0,0.0,0.0,0.020532632312205812,-1.5762306124305097,9.851045571273561,0.016362461737446838,0.007635815477475192,0.008726646259971648,9.375,1.1875,-42.6875
1774889344.7693627,-33.21936617267597,-1.05298757629688,-9.009696246799571,0.003486691216044807,-1.5170469230475694,9.696670659191469,-0.008726646259971648,-0.00545415391248228,-0.028361600344907856,9.6875,2.5625,-42.0
1774889344.9878948,-33.224432216580155,-1.068987903273584,-9.01201402818172,0.003486691216044807,-1.5170469230475694,9.696670659191469,-0.008726646259971648,-0.00545415391248228,-0.028361600344907856,9.6875,2.5625,-42.0
1774889345.004866,0.0,0.0,0.0,-0.0612367683836834,-1.5113445368615497,9.67771369063918,0.003272492347489368,0.008726646259971648,-0.004363323129985824,9.6875,2.5625,-42.0
1774889345.0235538,0.0,0.0,0.0,-0.06416816725105261,-1.507549662554581,9.631646922757652,0.014180800172453928,0.006544984694978736,0.007635815477475192,9.6875,2.5625,-42.0
1774889345.0422711,0.0,0.0,0.0,-0.06416816725105261,-1.507549662554581,9.631646922757652,0.014180800172453928,0.006544984694978736,0.007635815477475192,9.6875,2.5625,-42.0
1774889345.0574985,-33.1904061580991,-1.0420348181750325,-9.005088744153243,-0.0962249858172903,-1.4715730990216231,9.60099000333201,-0.006544984694978736,0.02399827721492203,-0.00545415391248228,8.5625,2.5625,-43.0625
1774889345.0870876,-33.206536780365035,-1.016495608125702,-9.012752905407314,-0.07072687657252313,-1.4476310978749871,9.580588165914474,-0.007635815477475192,0.01090830782496456,-0.016362461737446838,8.5625,2.5625,-43.0625
1774889345.2804928,-33.206536780365035,-1.016495608125702,-9.012752905407314,-0.07072687657252313,-1.4476310978749871,9.580588165914474,-0.007635815477475192,0.01090830782496456,-0.016362461737446838,8.5625,2.5625,-43.0625
1774889345.2959003,0.0,0.0,0.0,-0.047067946288035116,-1.4316979635615776,9.523524518821409,0.004363323129985824,0.002181661564992912,-0.001090830782496456,9.0,4.875,-43.5
1774889345.3129423,0.0,0.0,0.0,-0.011252522227360194,-1.4879968748071637,9.519000416196873,0.008726646259971648,0.02181661564992912,0.015271630954950384,9.0,4.875,-43.5
1774889345.3295658,0.0,0.0,0.0,-0.007488427843398777,-1.5254631713410554,9.515989676437782,0.003272492347489368,0.007635815477475192,-0.006544984694978736,9.0,4.875,-43.5
1774889345.3476985,0.0,0.0,0.0,-0.007488427843398777,-1.5254631713410554,9.515989676437782,0.003272492347489368,0.007635815477475192,-0.006544984694978736,9.0,4.875,-43.5
1774889345.370199,-33.22466070381664,-0.9781852489141668,-9.002661832405643,-0.05516014068835255,-1.5503965731584048,9.513986062760274,0.00545415391248228,0.002181661564992912,0.00545415391248228,9.0,4.875,-43.5
1774889345.573899,-33.22466070381664,-0.9781852489141668,-9.002661832405643,-0.05516014068835255,-1.5503965731584048,9.513986062760274,0.00545415391248228,0.002181661564992912,0.00545415391248228,9.0,4.875,-43.5
1774889345.5877237,0.0,0.0,0.0,-0.08688513305874407,-1.6071308140313354,9.706669159264248,-0.006544984694978736,0.002181661564992912,-0.01090830782496456,10.0625,6.25,-42.6875
1774889345.6064968,0.0,0.0,0.0,-0.08688513305874407,-1.6071308140313354,9.706669159264248,-0.006544984694978736,0.002181661564992912,-0.01090830782496456,10.0625,6.25,-42.6875
1774889345.6324344,0.0,0.0,0.0,-0.07120153230934088,-1.4910116790325827,9.57732400611283,0.003272492347489368,0.009817477042468103,0.020725784867432664,10.0625,6.25,-42.6875
1774889345.6459312,-33.22055761479773,-0.944824041554112,-8.990811804114578,-0.06076427120791286,-1.5140890430462242,9.584909379375537,0.001090830782496456,0.001090830782496456,-0.006544984694978736,10.0625,6.25,-42.6875
1774889345.6623547,-33.255713663036374,-0.9584162851930483,-9.001772061058357,-0.11068528956118798,-1.499340765640381,9.533090461523267,-0.014180800172453928,-0.004363323129985824,-0.04581489286485115,10.0625,6.25,-42.6875
1774889345.8618248,-33.255713663036374,-0.9584162851930483,-9.001772061058357,-0.11068528956118798,-1.499340765640381,9.533090461523267,-0.014180800172453928,-0.004363323129985824,-0.04581489286485115,10.0625,6.25,-42.6875
1774889345.8752408,0.0,0.0,0.0,-0.14390716962097844,-1.4895259517758457,9.498605550547824,0.002181661564992912,0.001090830782496456,0.008726646259971648,10.5,6.0,-41.0625
1774889345.8933604,0.0,0.0,0.0,-0.14390716962097844,-1.4895259517758457,9.498605550547824,0.002181661564992912,0.001090830782496456,0.008726646259971648,10.5,6.0,-41.0625
1774889345.918786,0.0,0.0,0.0,-0.1392550660294973,-1.4829943027876522,9.475656227515362,-0.00545415391248228,-0.001090830782496456,-0.006544984694978736,10.5,6.0,-41.0625
1774889345.9351885,-33.27112597655398,-0.9355614848783325,-8.993924889804864,-0.11274336110553308,-1.431815999446838,9.497179938178508,-0.01090830782496456,0.001090830782496456,-0.01090830782496456,10.5,6.0,-41.0625
1774889345.954084,-33.27112597655398,-0.9355614848783325,-8.993924889804864,-0.11274336110553308,-1.431815999446838,9.497179938178508,-0.01090830782496456,0.001090830782496456,-0.01090830782496456,10.5,6.0,-41.0625
1774889346.1363647,-33.27112597655398,-0.9355614848783325,-8.993924889804864,-0.11274336110553308,-1.431815999446838,9.497179938178508,-0.01090830782496456,0.001090830782496456,-0.01090830782496456,10.5,6.0,-41.0625
1774889346.1536644,0.0,0.0,0.0,-0.09510011763378383,-1.3977574102726338,9.511503727189229,0.002181661564992912,0.001090830782496456,-0.008726646259971648,11.5625,5.5625,-39.0625
1774889346.1960495,0.0,0.0,0.0,-0.06328806594736175,-1.3750917996365708,9.634769846817516,-0.013089969389957472,-0.015271630954950384,-0.002181661564992912,11.5625,5.5625,-39.0625
1774889346.2158356,-33.28221931058141,-0.8940226630272678,-8.999312390276682,-0.04211750091394965,-1.4135298762668416,9.746908077823235,0.013089969389957472,0.011999138607461015,0.032724923474893676,11.5625,5.5625,-39.0625
1774889346.229323,-33.28221931058141,-0.8940226630272678,-8.999312390276682,-0.04211750091394965,-1.4135298762668416,9.746908077823235,0.013089969389957472,0.011999138607461015,0.032724923474893676,11.5625,5.5625,-39.0625
1774889346.436176,-33.32612873729436,-0.8908018381595354,-9.000877288750603,-0.05144450832615655,-1.459180657126753,9.821534817891424,-0.001090830782496456,0.013089969389957472,-0.037088246604879506,11.5625,5.5625,-39.0625
1774889346.4590883,0.0,0.0,0.0,-0.06434175098411943,-1.5297020823242207,9.831056739283662,0.003272492347489368,0.006544984694978736,-0.01090830782496456,12.25,4.875,-38.0
1774889346.4747303,0.0,0.0,0.0,-0.06434175098411943,-1.5297020823242207,9.831056739283662,0.003272492347489368,0.006544984694978736,-0.01090830782496456,12.25,4.875,-38.0
1774889346.504113,-33.37289598403634,-0.85419204780837,-9.012521988898278,-0.07292472190135324,-1.536491962529366,9.783871684286254,-0.013089969389957472,0.011999138607461015,-0.04036073895236887,12.25,4.875,-38.0
1774889346.5218194,-33.35218109776835,-0.835093190438284,-9.00323376249372,-0.07529148146138562,-1.517594770006723,9.80599234459419,-0.006544984694978736,0.018544123302439753,0.007635815477475192,12.25,4.875,-38.0
1774889346.535694,-33.35218109776835,-0.835093190438284,-9.00323376249372,-0.07529148146138562,-1.517594770006723,9.80599234459419,-0.006544984694978736,0.018544123302439753,0.007635815477475192,12.25,4.875,-38.0
1774889346.746308,-33.35218109776835,-0.835093190438284,-9.00323376249372,-0.07529148146138562,-1.517594770006723,9.80599234459419,-0.006544984694978736,0.018544123302439753,0.007635815477475192,12.25,4.875,-38.0
1774889346.7688456,0.0,0.0,0.0,-0.04007030472963733,-1.505018899478376,9.867544960827626,-0.011999138607461015,-0.006544984694978736,0.004363323129985824,14.1875,5.1875,-36.375
1774889346.8147945,0.0,0.0,0.0,-0.04007030472963733,-1.505018899478376,9.867544960827626,-0.011999138607461015,-0.006544984694978736,0.004363323129985824,14.1875,5.1875,-36.375
1774889346.8317213,-33.33869944801181,-0.8219927985228871,-9.036122038673065,-0.017757971502223333,-1.5468518164377307,9.878900778738904,-0.008726646259971648,0.006544984694978736,-0.008726646259971648,13.75,6.6875,-36.75
1774889347.1292493,-33.30362107234761,-0.810380298705953,-9.031894106134965,-0.017757971502223333,-1.5468518164377307,9.878900778738904,-0.008726646259971648,0.006544984694978736,-0.008726646259971648,13.75,6.6875,-36.75
1774889347.1489017,0.0,0.0,0.0,-0.018507955079828976,-1.5579402541287826,9.85919781028593,-0.00545415391248228,0.002181661564992912,0.006544984694978736,13.75,6.6875,-36.75
1774889347.1672127,0.0,0.0,0.0,-0.018507955079828976,-1.5579402541287826,9.85919781028593,-0.00545415391248228,0.002181661564992912,0.006544984694978736,13.75,6.6875,-36.75
1774889347.5048003,-33.32336112192192,-0.6634276835327348,-9.098081061939997,-0.04551346635140601,-1.4972779069961524,9.717889838418277,-0.009817477042468103,-0.002181661564992912,-0.01090830782496456,16.0,3.6875,-34.75
1774889347.5625033,-33.31568139442266,-0.6648864538124286,-9.104728637104497,-0.03697892685276727,-1.4413215784892812,9.678454370551579,-0.015271630954950384,0.003272492347489368,0.014180800172453928,16.0,3.6875,-34.75
1774889347.973125,-33.33066050374495,-0.6694288375477642,-9.14027758252815,-0.0559894350263762,-1.4529852807585748,9.567714082857245,-0.003272492347489368,0.018544123302439753,0.009817477042468103,14.375,4.25,-31.5
1774889348.1773849,0.0,0.0,0.0,-0.06402123722563836,-1.4018099953872696,9.678867434018404,0.002181661564992912,0.002181661564992912,-0.007635815477475192,14.375,4.25,-31.5
1774889348.22426,-33.297143359490605,-0.6369752186988032,-9.091184739667433,-0.046162505675770404,-1.3183400669208556,9.771959825028794,0.002181661564992912,-0.009817477042468103,-0.003272492347489368,12.875,2.375,-31.5
1774889348.494306,0.0,0.0,0.0,-0.030720631858248696,-1.2921344394199419,9.784684688493261,0.004363323129985824,0.0,-0.003272492347489368,13.5625,2.0625,-32.6875
1774889348.5207179,-33.30276541241003,-0.646319076527769,-9.0955218916731,-0.023789349037040424,-1.3148362275419565,9.793152942982823,0.001090830782496456,0.0,0.001090830782496456,13.5625,2.0625,-32.6875
1774889348.5352368,-33.30335228963412,-0.639640011614059,-9.097536075847747,-0.019176657747028706,-1.4001913597952746,9.788753136627069,-0.006544984694978736,-0.00545415391248228,0.0,13.5625,2.0625,-32.6875
1774889348.734192,-33.30335228963412,-0.639640011614059,-9.097536075847747,-0.019176657747028706,-1.4001913597952746,9.788753136627069,-0.006544984694978736,-0.00545415391248228,0.0,13.5625,2.0625,-32.6875
1774889348.748057,0.0,0.0,0.0,-0.012761851513344438,-1.3867469009768487,9.759064220987817,0.0,0.00545415391248228,-0.001090830782496456,15.0625,2.375,-31.0625
1774889348.768028,0.0,0.0,0.0,-0.012761851513344438,-1.3867469009768487,9.759064220987817,0.0,0.00545415391248228,-0.001090830782496456,15.0625,2.375,-31.0625
1774889348.803848,0.0,0.0,0.0,-0.00849286962290843,-1.4714628916225747,9.732616355862174,-0.002181661564992912,-0.004363323129985824,0.001090830782496456,15.0625,2.375,-31.0625
1774889348.8178537,-33.303939633734004,-0.6329609553927382,-9.099550389675086,-0.012342133277114382,-1.5144599902284053,9.71501559706307,0.002181661564992912,0.001090830782496456,-0.007635815477475192,15.0625,2.375,-31.0625
1774889348.8360424,-33.303939633734004,-0.6329609553927382,-9.099550389675086,-0.012342133277114382,-1.5144599902284053,9.71501559706307,0.002181661564992912,0.001090830782496456,-0.007635815477475192,15.0625,2.375,-31.0625
1774889349.0116735,-33.303939633734004,-0.6329609553927382,-9.099550389675086,-0.012342133277114382,-1.5144599902284053,9.71501559706307,0.002181661564992912,0.001090830782496456,-0.007635815477475192,15.0625,2.375,-31.0625
1774889349.0307026,0.0,0.0,0.0,-0.014903775239896002,-1.543074079041523,9.703302488695625,-0.002181661564992912,0.0,-0.002181661564992912,15.0625,2.75,-30.6875
1774889349.0482116,0.0,0.0,0.0,-0.014903775239896002,-1.543074079041523,9.703302488695625,-0.002181661564992912,0.0,-0.002181661564992912,15.0625,2.75,-30.6875
1774889349.0842848,0.0,0.0,0.0,-0.012171761332025452,-1.550265971824945,9.717069172245385,0.001090830782496456,-0.002181661564992912,0.0,15.0625,2.75,-30.6875
1774889349.3099635,0.0,0.0,0.0,-0.011445282906299264,-1.5468318895710815,9.724739790283433,0.0,0.0,0.0,15.0625,2.75,-30.6875
1774889349.3442354,0.0,0.0,0.0,-0.017652043043913004,-1.5445465461923478,9.723154277486698,-0.002181661564992912,0.0,0.0,15.0625,2.75,-30.6875
1774889349.3580637,0.0,0.0,0.0,-0.017652043043913004,-1.5445465461923478,9.723154277486698,-0.002181661564992912,0.0,0.0,15.0625,2.75,-30.6875
1774889349.3814619,95.10598950564092,-0.602022670230018,-9.090949509996605,-0.021782572581441246,-1.5564061225320363,9.72209913643181,0.0,-0.001090830782496456,0.0,14.0,2.375,-31.875
1774889349.3961687,95.10561446960196,-0.5968813908324458,-9.085391408019603,-0.024531393847628064,-1.5642985381059507,9.731432286968436,0.0,0.0,-0.001090830782496456,14.0,2.375,-31.875
1774889349.6172419,95.10561446960196,-0.5968813908324458,-9.085391408019603,-0.02636070369392988,-1.5795861876282902,9.737643394392439,-0.002181661564992912,0.002181661564992912,-0.001090830782496456,14.375,2.75,-31.5
1774889349.6396875,95.10561446960196,-0.5968813908324458,-9.085391408019603,-0.02636070369392988,-1.5795861876282902,9.737643394392439,-0.002181661564992912,0.002181661564992912,-0.001090830782496456,14.375,2.75,-31.5
1774889349.6571896,0.0,0.0,0.0,-0.027578088961913817,-1.5797246124892141,9.741776817000497,-0.001090830782496456,0.0,0.001090830782496456,14.375,2.75,-31.5
1774889349.7113504,95.23839040208784,-0.5614402893680394,-9.100289096112542,-0.028388245258672628,-1.579816732687852,9.731147116743527,0.001090830782496456,0.002181661564992912,0.0,15.5,4.25,-31.0625
1774889349.941297,0.0,0.0,0.0,-0.022237171809488032,-1.5765329259436762,9.724073169964045,-0.003272492347489368,0.001090830782496456,0.001090830782496456,15.5,4.25,-31.0625
1774889349.9811692,0.0,0.0,0.0,-0.022237171809488032,-1.5765329259436762,9.724073169964045,-0.003272492347489368,0.001090830782496456,0.001090830782496456,15.5,4.25,-31.0625
1774889350.0340874,95.35215324274219,-0.5524090719764714,-9.100858165569203,-0.018143701141048317,-1.5776927009452715,9.719365537403464,0.0,-0.004363323129985824,0.001090830782496456,15.0625,2.75,-31.875
1774889350.3170369,0.0,0.0,0.0,-0.018764653845584605,-1.5818096299606168,9.726267995644056,0.001090830782496456,-0.001090830782496456,0.003272492347489368,15.0625,2.375,-31.875
1774889350.3564272,95.51805460307122,-0.5338766553301398,-9.10623855069814,-0.019177890933957296,-1.5845494002312186,9.737551727912297,0.0,-0.001090830782496456,0.001090830782496456,15.0625,2.375,-31.875
1774889350.391431,95.51805460307122,-0.5338766553301398,-9.10623855069814,-0.019177890933957296,-1.5845494002312186,9.737551727912297,0.0,-0.001090830782496456,0.001090830782496456,15.0625,2.375,-31.875
1774889350.6634831,0.0,0.0,0.0,-0.019635908133428855,-1.5820148173647286,9.7500582129266,0.0,-0.001090830782496456,0.0,15.0625,3.5625,-31.5
1774889350.6955261,0.0,0.0,0.0,-0.019635908133428855,-1.5820148173647286,9.7500582129266,0.0,-0.001090830782496456,0.0,15.0625,3.5625,-31.5
1774889350.738289,95.63118407191823,-0.5098274153482621,-9.111037252522914,-0.026447924344608312,-1.5813408384492422,9.746693628345051,0.002181661564992912,-0.002181661564992912,-0.001090830782496456,15.5,2.75,-32.6875
1774889350.9675488,95.63118407191823,-0.5098274153482621,-9.111037252522914,-0.026447924344608312,-1.5813408384492422,9.746693628345051,0.002181661564992912,-0.002181661564992912,-0.001090830782496456,15.5,2.75,-32.6875
1774889350.992072,0.0,0.0,0.0,-0.030981245037941186,-1.617688541790337,9.93178079050079,0.002181661564992912,0.0,0.0,15.875,1.6875,-31.0625
1774889351.0169106,0.0,0.0,0.0,-0.03399811931884396,-1.605081303552872,9.867627973746474,0.001090830782496456,0.0,0.002181661564992912,15.875,1.6875,-31.0625
1774889351.0798707,95.98655731002503,-0.4960068488996854,-9.118202874811113,-0.029315592037452102,-1.5966913273379177,9.831625214245035,0.0,-0.001090830782496456,0.0,15.875,1.6875,-31.0625
1774889351.3029454,0.0,0.0,0.0,-0.026199422438942875,-1.591107891889041,9.797630444852045,0.0,0.0,0.0,15.875,1.6875,-31.0625
1774889351.3185728,0.0,0.0,0.0,-0.026199422438942875,-1.591107891889041,9.797630444852045,0.0,0.0,0.0,15.875,1.6875,-31.0625
1774889351.3360238,0.0,0.0,0.0,-0.024125646381030246,-1.5840470662615547,9.778352417274785,0.001090830782496456,-0.002181661564992912,0.0,15.875,1.6875,-31.0625
1774889351.3532634,96.18459962721462,-0.48545168504035524,-9.114371481763799,-0.022745571580085833,-1.5793481656810529,9.765523105271797,0.0,-0.001090830782496456,0.001090830782496456,15.0625,3.1875,-31.5
1774889351.3820164,96.18455294744022,-0.48026439904583057,-9.119082138751889,-0.021827147216502984,-1.5829113232495264,9.756985341446613,0.002181661564992912,-0.001090830782496456,0.0,15.0625,3.1875,-31.5
1774889351.6425226,96.18455294744022,-0.48026439904583057,-9.119082138751889,-0.021827147216502984,-1.5829113232495264,9.756985341446613,0.002181661564992912,-0.001090830782496456,0.0,15.0625,3.1875,-31.5
1774889351.6704726,0.0,0.0,0.0,-0.02456105776933035,-1.5886276765155871,9.747958443286706,0.002181661564992912,-0.001090830782496456,-0.002181661564992912,15.5,2.75,-32.25
