timestamp,yaw,pitch,roll,ax,ay,az,gx,gy,gz,mx,my,mz
1772913246.2098546,-9.349598112138285,0.45513956468208877,-9.050036317876502,-0.07234990274169144,-1.551893653840376,9.769696511657965,0.002181661564992912,0.002181661564992912,-0.001090830782496456,-7.5625,56.0,-41.375
1772913246.222991,-9.378327763324693,0.45989822381464335,-9.050906603830763,-0.07156383402446205,-1.5546053171845902,9.776488255313202,0.0,0.002181661564992912,-0.001090830782496456,-8.25,55.1875,-40.5625
1772913246.2380383,-9.378327763324693,0.45989822381464335,-9.050906603830763,-0.07104071407410881,-1.5597550105562197,9.781008084847015,-0.001090830782496456,0.001090830782496456,0.0,-8.25,55.1875,-40.5625
1772913246.2532692,-9.378327763324693,0.45989822381464335,-9.050906603830763,-0.07104071407410881,-1.5597550105562197,9.781008084847015,-0.001090830782496456,0.001090830782496456,0.0,-8.25,55.1875,-40.5625
1772913246.2704577,-9.307855199835743,0.4544812844615255,-9.098856713984757,-0.06734747188346207,-1.563182073969195,9.784015980911962,-0.030543261909900768,0.0,0.02181661564992912,-8.25,55.1875,-40.5625
1772913246.2909482,-9.307855199835743,0.4544812844615255,-9.098856713984757,-0.06734747188346207,-1.563182073969195,9.784015980911962,-0.030543261909900768,0.0,0.02181661564992912,-8.25,55.1875,-40.5625
1772913246.3087473,-9.307855199835743,0.4544812844615255,-9.098856713984757,-0.06734747188346207,-1.563182073969195,9.784015980911962,-0.030543261909900768,0.0,0.02181661564992912,-8.25,55.1875,-40.5625
1772913246.3288274,-9.124690135352436,0.4516577667370752,-9.138623176310578,-0.06488966046180518,-1.8263814595586354,9.786017702142784,0.016362461737446838,-0.007635815477475192,0.06435901616729091,-9.0,54.5,-41.0
1772913246.3696866,-9.22392306364204,0.47257931677306353,-9.042825810496016,-0.12346602514799396,-2.011573045660583,9.817455830627079,0.06763150851478027,0.030543261909900768,-0.055632369907319255,-9.0,54.5,-41.0
1772913246.3864381,-9.22392306364204,0.47257931677306353,-9.042825810496016,-0.12346602514799396,-2.011573045660583,9.817455830627079,0.06763150851478027,0.030543261909900768,-0.055632369907319255,-9.0,54.5,-41.0
1772913246.4038157,-9.3559224359143,0.4533794549917898,-8.979716163814297,-0.16244794150578476,-2.134815977485864,9.838377553946472,0.061086523819801536,0.0,-0.08072147790473774,-7.1875,55.5625,-39.75
1772913246.433068,-9.3559224359143,0.4533794549917898,-8.979716163814297,-0.16244794150578476,-2.134815977485864,9.838377553946472,0.061086523819801536,0.0,-0.08072147790473774,-7.1875,55.5625,-39.75
1772913246.4499402,-9.377823593063672,0.46387266928073495,-9.001662686732137,-0.07465617333649742,-1.731791574340523,9.88240673247044,-0.020725784867432664,-0.006544984694978736,0.08290313946973066,-7.1875,55.5625,-39.75
1772913246.4708984,-9.377823593063672,0.46387266928073495,-9.001662686732137,-0.07465617333649742,-1.731791574340523,9.88240673247044,-0.020725784867432664,-0.006544984694978736,0.08290313946973066,-7.1875,55.5625,-39.75
1772913246.5385914,-9.3288233480411,0.4654265884147323,-9.029296613148567,-0.016231732318145314,-1.4635833361248707,9.911707658939989,-0.001090830782496456,-0.003272492347489368,-0.019634954084936207,-8.25,56.375,-39.0625
1772913246.5748434,-9.41281761341792,0.46285877991990343,-8.980920640669622,0.03937463907239567,-1.3453057604064358,9.92117176307072,0.008726646259971648,-0.007635815477475192,0.06435901616729091,-8.25,56.375,-39.0625
1772913246.5998611,-9.413033664638373,0.46114904261008083,-9.002023191208316,-0.06745974534580168,-1.3435309242812559,9.860567784502365,-0.02181661564992912,-0.00545415391248228,0.0,-8.0,57.5,-37.875
1772913246.6188502,-9.413033664638373,0.46114904261008083,-9.002023191208316,-0.06745974534580168,-1.3435309242812559,9.860567784502365,-0.02181661564992912,-0.00545415391248228,0.0,-8.0,57.5,-37.875
1772913246.643023,-9.42641425183032,0.4542516121289137,-8.987512401210969,0.005282968656891623,-1.3423497906661672,9.820236513755923,0.017453292519943295,0.006544984694978736,0.011999138607461015,-8.0,57.5,-37.875
1772913246.6637666,-9.35682597254437,0.4689788317666837,-8.95977793891825,-0.009864690202742865,-1.3850502116346046,9.79339650360398,0.009817477042468103,-0.006544984694978736,0.05345070834232634,-8.0,57.0625,-36.25
1772913246.6806805,-9.35682597254437,0.4689788317666837,-8.95977793891825,-0.009864690202742865,-1.3850502116346046,9.79339650360398,0.009817477042468103,-0.006544984694978736,0.05345070834232634,-8.0,57.0625,-36.25
1772913246.7052777,-9.32106066434439,0.46473970488725114,-8.958837243851603,-0.013255064548754233,-1.4134668647941435,9.735393436182587,0.006544984694978736,-0.016362461737446838,0.04363323129985824,-8.0,57.0625,-36.25
1772913246.7511692,-9.2431244259937,0.4563156750831019,-8.964468108501661,-0.022201544217700576,-1.4323778300370016,9.723553936408925,-0.011999138607461015,0.014180800172453928,-0.02181661564992912,-8.375,57.0625,-36.6875
1772913246.790133,-9.2431244259937,0.4563156750831019,-8.964468108501661,-0.022201544217700576,-1.4323778300370016,9.723553936408925,-0.011999138607461015,0.014180800172453928,-0.02181661564992912,-8.375,57.0625,-36.6875
1772913246.8490734,-9.103370487433581,0.467862058515876,-8.95708782128534,-0.021465103084019426,-1.3880959671323707,9.672188429370278,0.007635815477475192,-0.014180800172453928,0.06326818538479445,-8.375,57.0625,-36.6875
1772913246.8759806,-9.103370487433581,0.467862058515876,-8.95708782128534,-0.021465103084019426,-1.3880959671323707,9.672188429370278,0.007635815477475192,-0.014180800172453928,0.06326818538479445,-8.375,57.0625,-36.6875
1772913246.924414,-9.103370487433581,0.467862058515876,-8.95708782128534,-0.021465103084019426,-1.3880959671323707,9.672188429370278,0.007635815477475192,-0.014180800172453928,0.06326818538479445,-8.375,57.0625,-36.6875
1772913246.961964,-8.725663866558481,0.4968977951443589,-8.962441474834588,0.03254677758096902,-1.4389095630058242,9.604554141153175,0.0,-0.013089969389957472,0.05890486225480862,-8.6875,57.875,-34.6875
1772913246.9956348,-8.495035945840279,0.5160465518089248,-8.947634963290003,0.06849108081127844,-1.392442762458884,9.559544277869197,0.006544984694978736,-0.007635815477475192,0.07963064712224129,-8.6875,57.875,-34.6875
1772913247.0379088,-8.355592414374051,0.5334023634982765,-8.954313511382356,0.09241161308687326,-1.3581745140557488,9.55635161030538,0.00545415391248228,-0.00545415391248228,0.07090400086226964,-8.6875,58.875,-33.875
1772913247.077294,-8.355592414374051,0.5334023634982765,-8.954313511382356,0.04811844937467883,-1.3353693775448794,9.554226925706095,-0.004363323129985824,-0.007635815477475192,0.08508480103472356,-8.6875,58.875,-33.875
1772913247.1093569,-8.17437465747432,0.5550930347844719,-8.947003000810266,0.04811844937467883,-1.3353693775448794,9.554226925706095,-0.004363323129985824,-0.007635815477475192,0.08508480103472356,-8.6875,58.875,-33.875
1772913247.1292384,-7.921701022280058,0.5618578047407274,-8.930955169442703,0.018641843711271974,-1.3804048246787113,9.596299424034704,0.00545415391248228,-0.018544123302439753,0.1189005552921137,-8.6875,58.875,-33.0625
1772913247.1551204,-7.830489023196492,0.5684159591354706,-8.937074661982056,-0.0009745080824649713,-1.447171640447882,9.577466637789321,-0.007635815477475192,-0.016362461737446838,0.0818123086872342,-8.6875,58.875,-33.0625
1772913247.1685498,-7.830489023196492,0.5684159591354706,-8.937074661982056,-0.0009745080824649713,-1.447171640447882,9.577466637789321,-0.007635815477475192,-0.016362461737446838,0.0818123086872342,-8.6875,58.875,-33.0625
1772913247.1986978,-7.691250529730237,0.5853415989707624,-8.950756416512258,-0.030754529608786333,-1.4916042105080638,9.59838474599222,-0.015271630954950384,-0.009817477042468103,0.07308566242726255,-8.6875,58.875,-33.0625
1772913247.2775583,-7.239335205389129,0.6505305847364211,-8.922446967054173,-0.06376163967579693,-1.5274712341428462,9.695162086050274,-0.016362461737446838,-0.002181661564992912,0.08399397025222712,-9.75,60.0,-31.5
1772913247.3035362,-7.239335205389129,0.6505305847364211,-8.922446967054173,-0.06376163967579693,-1.5274712341428462,9.695162086050274,-0.016362461737446838,-0.002181661564992912,0.08399397025222712,-9.75,60.0,-31.5
1772913247.337948,-7.115111468866742,0.6816424916041594,-8.915966346860277,-0.10598978137912637,-1.531662246277549,9.750302209626607,0.013089969389957472,0.013089969389957472,0.05781403147231216,-8.6875,60.375,-28.75
1772913247.35484,-7.115111468866742,0.6816424916041594,-8.915966346860277,-0.1340921379634409,-1.5478317648657982,9.786997345911118,0.014180800172453928,-0.004363323129985824,0.07090400086226964,-8.6875,60.375,-28.75
1772913247.3744464,-7.002710475771031,0.6838206228093806,-8.907827744084765,-0.1340921379634409,-1.5478317648657982,9.786997345911118,0.014180800172453928,-0.004363323129985824,0.07090400086226964,-8.6875,60.375,-28.75
1772913247.3982008,-6.828344477660583,0.6970486714715992,-8.914093284892234,-0.08254659649270293,-1.5585923988609203,9.901735565294553,-0.003272492347489368,-0.003272492347489368,0.10471975511965978,-8.6875,60.375,-28.75
1772913247.4491804,-6.505065768026031,0.6914453705848609,-8.959444607192287,-0.04824361444535319,-1.572443703995155,9.991473015413614,0.009817477042468103,-0.016362461737446838,0.09708393964218458,-8.6875,61.1875,-26.75
1772913247.4717698,-6.314642658747877,0.6852926336384476,-8.956837882950229,-0.02541536308225907,-1.5983871513693686,10.037811839205572,0.006544984694978736,-0.014180800172453928,0.10144726277217041,-8.6875,61.1875,-26.75
1772913247.5120435,-6.314642658747877,0.6852926336384476,-8.956837882950229,-0.02541536308225907,-1.5983871513693686,10.037811839205572,0.006544984694978736,-0.014180800172453928,0.10144726277217041,-8.6875,61.1875,-26.75
1772913247.529687,-6.1122939274568555,0.7011842319877696,-8.955856135499733,-0.03698431046695161,-1.6156522257896115,9.968296457580959,-0.001090830782496456,-0.007635815477475192,0.08508480103472356,-7.5625,61.5,-25.5625
1772913247.5541205,-6.021147647584147,0.7009887031850648,-8.962138946167551,-0.044683315717854444,-1.620451716538126,9.918689635940153,-0.015271630954950384,-0.001090830782496456,0.10144726277217041,-7.5625,61.5,-25.5625
1772913247.579255,-5.6653395529082315,0.73615413686574,-8.952931103934485,-0.013010688928293213,-1.623645724017438,9.818774616136317,0.011999138607461015,0.0,0.1265363707695889,-7.1875,61.5,-25.5625
1772913247.6245732,-5.6653395529082315,0.73615413686574,-8.952931103934485,-0.013010688928293213,-1.623645724017438,9.818774616136317,0.011999138607461015,0.0,0.1265363707695889,-7.1875,61.5,-25.5625
1772913247.653412,-5.393602170185686,0.7647665463534827,-8.944533940928006,0.008067090393736136,-1.5454886193398534,9.752282286580765,-0.003272492347489368,-0.016362461737446838,0.09708393964218458,-7.1875,61.5,-25.5625
1772913247.6745129,-5.178257154928692,0.7952811101465188,-8.95057079255144,0.028784340492962773,-1.5235819446148609,9.714722607444175,-0.008726646259971648,-0.009817477042468103,0.10690141668465268,-8.375,62.1875,-23.25
1772913247.6921878,-5.178257154928692,0.7952811101465188,-8.95057079255144,0.028784340492962773,-1.5235819446148609,9.714722607444175,-0.008726646259971648,-0.009817477042468103,0.10690141668465268,-8.375,62.1875,-23.25
1772913247.76513,-4.946910606801917,0.7997109169254013,-8.941580519414059,0.015810545348595672,-1.445446174859901,9.689727060547881,0.003272492347489368,-0.011999138607461015,0.1461713248545251,-8.375,62.1875,-23.25
1772913247.8156545,-4.335322485208118,0.7919779699260252,-8.921188734881628,0.010521741314126531,-1.4570048153607822,9.673092803306952,-0.008726646259971648,-0.016362461737446838,0.0916297857297023,-6.0625,62.5625,-21.25
1772913247.9277534,-3.6358097312374995,0.8254513660943373,-8.915296563187772,-0.007601649393290601,-1.5868121686265713,9.614514647414232,-0.004363323129985824,-0.016362461737446838,0.07963064712224129,-6.875,61.875,-18.5
1772913247.9467664,-3.6358097312374995,0.8254513660943373,-8.915296563187772,-0.007601649393290601,-1.5868121686265713,9.614514647414232,-0.004363323129985824,-0.016362461737446838,0.07963064712224129,-6.875,61.875,-18.5
1772913247.9693112,-3.4323469581909203,0.8274942320701523,-8.906398623648931,-0.015094147877205383,-1.5343567465142827,9.582898442056381,0.004363323129985824,-0.006544984694978736,0.14180800172453928,-6.5,62.1875,-17.25
1772913248.0653315,-3.0416270705007173,0.8583051347503882,-8.88967384372928,-0.02008032192155856,-1.4994482490640137,9.5986544393474,-0.001090830782496456,-0.006544984694978736,0.1505346479845109,-6.5,62.1875,-17.25
1772913248.1386547,-2.201520318083882,0.8808157619404846,-8.917234795266731,-0.014487966406517734,-1.5098146182015086,9.60608248773376,0.003272492347489368,-0.01090830782496456,0.1407171709420428,-5.6875,62.5625,-14.5
1772913248.1590788,-2.201520318083882,0.8808157619404846,-8.917234795266731,-0.014487966406517734,-1.5098146182015086,9.60608248773376,0.003272492347489368,-0.01090830782496456,0.1407171709420428,-5.6875,62.5625,-14.5
1772913248.1953094,-1.9993131574464063,0.8966163171312919,-8.915936139049956,-0.02636713833894541,-1.5299473007278708,9.604047827640978,-0.014180800172453928,-0.020725784867432664,0.11562806294462433,-5.6875,62.5625,-14.5
1772913248.2298746,-1.5302558404575837,0.9122952623449453,-8.897797093692894,-0.03427259456093072,-1.5199295941011293,9.606038895785192,-0.002181661564992912,-0.009817477042468103,0.13744467859455345,-6.5,63.0,-12.5625
1772913248.2566526,-1.2505829469201875,0.9271370411116833,-8.88111304719235,-0.03284336395229087,-1.5065726988315093,9.614054152808118,0.003272492347489368,-0.015271630954950384,0.17671458676442586,-6.5,63.0,-12.5625
1772913248.2785978,-1.0280007594506888,0.9514831071085587,-8.879753408212176,-0.03189222694779306,-1.5043740576505127,9.619388216820587,0.0,-0.014180800172453928,0.14180800172453928,-6.5,61.5,-10.5625
1772913248.3115318,-0.8740177406055913,0.9564100639245221,-8.878321814668068,-0.031259255896196284,-1.5196364450415876,9.622937976835486,-0.008726646259971648,-0.016362461737446838,0.13199052468207118,-6.5,61.5,-10.5625
1772913248.3674796,-0.3402535341713334,0.9486891756269576,-8.880454735656697,-0.024986447254719046,-1.5231722821732638,9.617967865898667,-0.003272492347489368,-0.020725784867432664,0.15707963267948966,-6.5,62.1875,-9.375
1772913248.5678492,1.3868918296191286,1.0262049839843792,-8.837772820461808,0.006787580420124534,-1.4953502246910382,9.628682972577947,-0.001090830782496456,0.004363323129985824,0.1734420944169365,-4.25,60.375,-4.5625
1772913248.5959904,1.3868918296191286,1.0262049839843792,-8.837772820461808,0.006787580420124534,-1.4953502246910382,9.628682972577947,-0.001090830782496456,0.004363323129985824,0.1734420944169365,-4.25,60.375,-4.5625
1772913248.615196,1.8418588109764507,1.0403086297485058,-8.833942998441474,-0.015553611296564806,-1.4768349562293632,9.64250397979206,-0.013089969389957472,-0.015271630954950384,0.1538071403320003,-4.25,60.375,-4.5625
1772913248.6335592,2.347346893881712,1.0372746733522442,-8.830299064985997,-0.0003154194506832589,-1.4645132518972193,9.645011482287648,-0.001090830782496456,-0.019634954084936207,0.17998707911191522,-4.25,59.6875,-3.5
1772913248.6723468,2.347346893881712,1.0372746733522442,-8.830299064985997,-0.0003154194506832589,-1.4645132518972193,9.645011482287648,-0.001090830782496456,-0.019634954084936207,0.17998707911191522,-4.25,59.6875,-3.5
1772913248.6934822,2.66776767764893,1.068852556597431,-8.820193488882138,-0.020280578364879877,-1.4496230718919947,9.690166649382975,0.009817477042468103,-0.015271630954950384,0.18653206380689397,-4.25,59.6875,-3.5
1772913248.7313926,3.132197990585125,1.0551966625568823,-8.803369454719224,-0.01349649835292309,-1.4162980414814914,9.673385344766178,-0.003272492347489368,-0.02399827721492203,0.16253378659197193,-3.5,58.875,0.0625
1772913248.764445,3.6142135069312222,1.0852760869537283,-8.799135450039717,-0.008981768888105108,-1.3941206060082831,9.662217574003154,-0.006544984694978736,-0.017453292519943295,0.2203478180642841,-3.5,58.875,0.0625
1772913248.7833705,3.85214360286642,1.0960829773228749,-8.78306900233101,-0.005977266862101368,-1.4027775523902855,9.654785547312535,0.020725784867432664,-0.025089107997418487,0.21925698728178766,-3.5,58.875,0.0625
1772913248.8544729,4.432774531819278,1.1195981648312738,-8.777722623343823,-0.020703362862879538,-1.4219191003323581,9.746847856083368,0.002181661564992912,-0.016362461737446838,0.14726215563702155,-2.75,57.875,0.875
1772913248.8820462,4.432774531819278,1.1195981648312738,-8.777722623343823,-0.020703362862879538,-1.4219191003323581,9.746847856083368,0.002181661564992912,-0.016362461737446838,0.14726215563702155,-2.75,57.875,0.875
1772913248.9360952,4.965986686400528,1.1254715471670815,-8.77401751289937,-0.030503415250126488,-1.4346575866627065,9.808114294166986,-0.002181661564992912,-0.017453292519943295,0.18653206380689397,-2.75,57.875,0.875
1772913249.0241125,5.819824481014368,1.169211457637222,-8.752833145158398,-0.037025240640081135,-1.4431349070173372,9.82212553066212,0.008726646259971648,-0.02399827721492203,0.19198621771937624,-2.75,56.375,4.5
1772913249.0449831,6.400929272022502,1.1930427824550833,-8.754750515519735,-0.017949660632297085,-1.4922629212106227,9.784618288131394,-0.003272492347489368,-0.00545415391248228,0.16907877128695067,-2.75,56.375,4.5
1772913249.1255455,7.143523972950287,1.2266394353731032,-8.71314266323631,-0.011945298639946401,-1.524957065860377,9.739586966966632,0.007635815477475192,-0.017453292519943295,0.2007128639793479,-0.1875,52.25,6.0
1772913249.1701806,7.781643413552276,1.248200967715833,-8.72217022138336,-0.007949462807155298,-1.5400244304926238,9.7096191257643,-0.018544123302439753,-0.007635815477475192,0.17671458676442586,-0.1875,52.25,6.0
1772913249.1932003,8.076774280652161,1.250710378227334,-8.734450010460625,-0.011980502111482546,-1.5467064816345735,9.689675862206869,0.003272492347489368,-0.018544123302439753,0.17562375598192942,-0.5625,52.6875,8.0
1772913249.3075244,9.440979272147885,1.2546011007852962,-8.783297283006728,-0.0298288086394099,-1.5697192092805277,9.66088123921167,0.001090830782496456,-0.015271630954950384,0.1832595714594046,0.0625,49.0,10.0
1772913249.381776,9.849746221524992,1.2555874459871914,-8.753550345233052,-0.039921409183818236,-1.5798484720347872,9.650551119729322,-0.01090830782496456,-0.018544123302439753,0.17780541754692233,0.0625,49.0,10.0
1772913249.4500384,10.383970059168009,1.2672387303010701,-8.735973284960117,-0.04663792210438674,-1.5129969256854414,9.66709232256005,0.015271630954950384,-0.019634954084936207,0.19525871006686563,-1.0,46.375,11.5625
1772913249.4787917,11.02296752240591,1.302045158654874,-8.73046833753565,-0.08455880349785352,-1.468507968370656,9.738312318998306,0.007635815477475192,-0.018544123302439753,0.18216874067690814,-1.0,46.375,11.5625
1772913249.5304956,11.565615292482564,1.3015827208658681,-8.728260490135561,-0.05292782743677524,-1.4489363993738404,9.725496420316727,-0.002181661564992912,-0.02399827721492203,0.19853120241435498,0.0625,45.5625,12.0
1772913249.5684245,11.565615292482564,1.3015827208658681,-8.728260490135561,-0.05292782743677524,-1.4489363993738404,9.725496420316727,-0.002181661564992912,-0.02399827721492203,0.19853120241435498,0.0625,45.5625,12.0
1772913249.5880919,12.143507039571292,1.3038265910784037,-8.72580407248983,-0.06867399498979539,-1.4626726324937658,9.753763811687618,0.001090830782496456,-0.017453292519943295,0.20507618710933373,0.0625,45.5625,12.0
1772913249.6211207,12.566475330688704,1.3143785724140482,-8.716519774843393,-0.06911755847815534,-1.4718139421912981,9.752504774633579,0.002181661564992912,-0.014180800172453928,0.1832595714594046,-1.375,43.0,14.6875
1772913249.6397538,12.566475330688704,1.3143785724140482,-8.716519774843393,-0.06911755847815534,-1.4718139421912981,9.752504774633579,0.002181661564992912,-0.014180800172453928,0.1832595714594046,-1.375,43.0,14.6875
1772913249.8935387,12.868705874001863,1.3296515257301993,-8.706716449930598,-0.06941274502473008,-1.4578267114359693,9.751666899538481,-0.00545415391248228,-0.008726646259971648,0.18762289458939044,-1.375,43.0,14.6875
1772913249.9725065,13.847889516326077,1.3701521280814788,-8.706516354944636,-0.07643014264320483,-1.47242977081956,9.727322446818425,-0.007635815477475192,-0.015271630954950384,0.1636246173744684,-2.25,33.375,14.6875
1772913249.9903183,14.115763285146913,1.3757638857942507,-8.697846858261165,-0.0809694115142918,-1.4883425438746956,9.711492559731294,0.017453292519943295,-0.02399827721492203,0.15817046346198613,-2.25,33.375,14.6875
1772913250.019688,14.363321001359145,1.3795642770681624,-8.576596934426751,-0.08399024424104441,-1.1577309224389891,9.700957946706234,0.0545415391248228,-0.02181661564992912,0.11562806294462433,-1.25,33.375,15.875
1772913250.0466776,14.363321001359145,1.3795642770681624,-8.576596934426751,-0.08399024424104441,-1.1577309224389891,9.700957946706234,0.0545415391248228,-0.02181661564992912,0.11562806294462433,-1.25,33.375,15.875
1772913250.1047034,14.277429691824189,1.3845624413535462,-8.667835078295589,-0.10962341184802055,-1.0321408763768258,9.789564189912452,-0.007635815477475192,0.016362461737446838,0.030543261909900768,-2.6875,31.1875,17.5
1772913250.1193144,14.277429691824189,1.3845624413535462,-8.667835078295589,-0.10962341184802055,-1.0321408763768258,9.789564189912452,-0.007635815477475192,0.016362461737446838,0.030543261909900768,-2.6875,31.1875,17.5
1772913250.1477323,14.248834275114879,1.390181492284007,-8.617703271912516,-0.11643960820626174,-1.3291396712650467,9.716117515694028,0.017453292519943295,-0.001090830782496456,-0.037088246604879506,-2.6875,31.1875,17.5
1772913250.2027826,14.214012153939803,1.3866705980419252,-8.611319524992254,0.08307610340571352,-1.526789051569234,9.667239574454777,-0.016362461737446838,0.014180800172453928,0.0,-1.875,32.0,17.875
1772913250.2381725,14.255409330041624,1.4002504687729078,-8.637835928892708,-0.15545581876550046,-1.6482871711514673,9.664817855928309,-0.003272492347489368,-0.002181661564992912,0.0,-1.875,32.0,17.875
1772913250.3035293,14.24881606454167,1.391053024976104,-8.624705671870313,-0.05666882545659473,-1.6102427070012504,9.66881211320572,-0.004363323129985824,-0.002181661564992912,0.0,-2.25,33.5,17.875
1772913250.3438659,14.24881606454167,1.391053024976104,-8.624705671870313,-0.05666882545659473,-1.6102427070012504,9.66881211320572,-0.004363323129985824,-0.002181661564992912,0.0,-2.25,33.5,17.875
1772913250.3658526,14.242658427613081,1.3784207429661977,-8.640440848918342,-0.03771247030910536,-1.600126183676159,9.672554586315291,0.004363323129985824,-0.002181661564992912,0.008726646259971648,-3.0625,33.5,17.875
1772913250.3932073,14.242658427613081,1.3784207429661977,-8.640440848918342,-0.06189345649532628,-1.5465621865098098,9.675045160363547,0.004363323129985824,0.0,0.001090830782496456,-3.0625,33.5,17.875
1772913250.4165254,14.244708286526718,1.349865874130712,-8.636862598737642,-0.05122473902438654,-1.510915944744658,9.693428168107722,-0.001090830782496456,0.001090830782496456,-0.008726646259971648,-1.875,33.875,16.6875
1772913250.4574583,14.244708286526718,1.349865874130712,-8.636862598737642,-0.05122473902438654,-1.510915944744658,9.693428168107722,-0.001090830782496456,0.001090830782496456,-0.008726646259971648,-1.875,33.875,16.6875
1772913250.4917388,14.246205848455512,1.3308454230518996,-8.653437274502629,-0.05416016184681729,-1.4871937690445611,9.70566185440982,-0.002181661564992912,0.001090830782496456,0.00545415391248228,-1.875,33.875,16.6875
1772913250.513524,14.247736730823005,1.310082964421466,-8.656007845181552,-0.05611365294432348,-1.5082031548907255,9.727183682813912,0.00545415391248228,-0.002181661564992912,-0.003272492347489368,-1.5625,33.5,17.0625
1772913250.5368218,14.247736730823005,1.310082964421466,-8.656007845181552,-0.05611365294432348,-1.5082031548907255,9.727183682813912,0.00545415391248228,-0.002181661564992912,-0.003272492347489368,-1.5625,33.5,17.0625
1772913250.5538082,14.242120948516241,1.2896575768739538,-8.665594405106338,-0.0674490145697466,-1.5221846664811305,9.734815995787622,-0.004363323129985824,-0.001090830782496456,0.00545415391248228,-1.5625,33.5,17.0625
1772913250.574768,14.242120948516241,1.2896575768739538,-8.665594405106338,-0.0674490145697466,-1.5221846664811305,9.734815995787622,-0.004363323129985824,-0.001090830782496456,0.00545415391248228,-1.5625,33.5,17.0625
1772913250.6059196,14.243133510271052,1.2766867831276478,-8.674311327171175,-0.07499257110717955,-1.531489206260827,9.739895214813103,-0.001090830782496456,0.0,0.0,-2.25,33.875,17.0625
1772913250.631243,14.244671911576193,1.2559247675918408,-8.676883493824718,-0.08335783542311262,-1.5376812735456953,9.743275378335968,0.0,-0.001090830782496456,0.003272492347489368,-2.25,33.875,17.0625
1772913250.6727717,14.245689444651308,1.242954142648171,-8.685601660882282,-0.07888949025728266,-1.5451471368611707,9.732144392572255,-0.003272492347489368,0.0,0.002181661564992912,-2.6875,33.875,16.6875
1772913250.7028992,14.245689444651308,1.242954142648171,-8.685601660882282,-0.07888949025728266,-1.5451471368611707,9.732144392572255,-0.003272492347489368,0.0,0.002181661564992912,-2.6875,33.875,16.6875
1772913250.734731,14.246717740237337,1.2291129587199894,-8.687317521449232,-0.08260607987874764,-1.5300449152545454,9.731427069302402,0.001090830782496456,0.0,0.0,-2.6875,33.875,16.6875
1772913250.763638,14.246717740237337,1.2291129587199894,-8.687317521449232,-0.08260607987874764,-1.5300449152545454,9.731427069302402,0.001090830782496456,0.0,0.0,-2.6875,33.875,16.6875
1772913250.7930517,14.241634121414144,1.2017659851354126,-8.697760283294297,-0.07504409363284806,-1.540065225722122,9.72760458697202,-0.002181661564992912,-0.002181661564992912,0.003272492347489368,-1.5625,33.875,17.0625
1772913250.8293147,14.242665771428577,1.1879250123102492,-8.69947676012358,-0.07670189967376193,-1.5300080718674949,9.725060767681077,0.002181661564992912,-0.002181661564992912,-0.002181661564992912,-1.5625,33.875,17.0625
1772913250.8490021,14.243181907701022,1.1810045519479135,-8.700335185817343,-0.07111492766044444,-1.5233151483230105,9.723367884359277,0.002181661564992912,-0.001090830782496456,0.003272492347489368,-0.875,33.5,16.6875
1772913250.8630202,14.243181907701022,1.1810045519479135,-8.700335185817343,-0.07111492766044444,-1.5233151483230105,9.723367884359277,0.002181661564992912,-0.001090830782496456,0.003272492347489368,-0.875,33.5,16.6875
1772913250.8773131,14.243693285301228,1.1749542869891567,-8.708196591717888,-0.06739686019614836,-1.518861082469011,9.722241289419365,-0.001090830782496456,-0.001090830782496456,0.001090830782496456,-0.875,33.5,16.6875
1772913250.8897257,14.244210250542489,1.1680338588413168,-8.709055250141104,-0.0649225278321943,-1.525932286520308,9.724836664779064,-0.002181661564992912,-0.001090830782496456,0.001090830782496456,-0.875,33.5,16.6875
1772913250.9014192,14.244210250542489,1.1680338588413168,-8.709055250141104,-0.0649225278321943,-1.525932286520308,9.724836664779064,-0.002181661564992912,-0.001090830782496456,0.001090830782496456,-0.875,33.5,16.6875
1772913250.9158344,14.24472742335906,1.1611134477360514,-8.709914033639299,-0.0699661106987252,-1.5306380938259212,9.726563858088701,0.0,0.0,0.002181661564992912,-1.875,34.1875,18.6875
1772913250.9305527,14.24472742335906,1.1611134477360514,-8.709914033639299,-0.0733225587558893,-1.5304246443131755,9.72771328594225,0.0,0.0,0.0,-1.875,34.1875,18.6875
1772913250.945613,14.245244803771751,1.1541930535722749,-8.710772942249113,-0.0755562374439505,-1.5269374843395112,9.735168440753476,-0.001090830782496456,0.0,0.0,-1.875,34.1875,18.6875
1772913250.9705935,14.245244803771751,1.1541930535722749,-8.710772942249113,-0.0755562374439505,-1.5269374843395112,9.735168440753476,-0.001090830782496456,0.0,0.0,-1.875,34.1875,18.6875
1772913250.9891694,14.246277290581347,1.1412224834840814,-8.719494037761455,-0.07704272565902937,-1.5246168183311668,9.74012976300081,0.001090830782496456,0.0,0.0,-0.875,33.1875,19.0625
1772913251.0140896,14.246277290581347,1.1412224834840814,-8.719494037761455,-0.07704272565902937,-1.5246168183311668,9.74012976300081,0.001090830782496456,0.0,0.0,-0.875,33.1875,19.0625
1772913251.0443141,14.247314332614398,1.1273818079692728,-8.721212698203233,-0.0746868552536836,-1.5331077761481098,9.730051020705535,0.0,-0.001090830782496456,0.0,-0.875,33.1875,19.0625
1772913251.0667272,14.240697503581673,1.1199252225955756,-8.722073904622075,-0.07311904981572276,-1.5387584137250716,9.723343730294957,0.0,0.001090830782496456,0.0,-1.25,33.5,17.0625
1772913251.0808468,14.240697503581673,1.1199252225955756,-8.722073904622075,-0.07311904981572276,-1.5387584137250716,9.723343730294957,0.0,0.001090830782496456,0.0,-1.25,33.5,17.0625
1772913251.096267,14.241215319253582,1.1138746598525928,-8.729936095311936,-0.06873058110297472,-1.5324835147888238,9.725570326866698,-0.002181661564992912,0.0,0.0,-1.25,33.5,17.0625
1772913251.116036,14.241734997951893,1.1069543786327791,-8.730795426246686,-0.06581010419704851,-1.5283076396419648,9.727052102012479,0.0,-0.002181661564992912,-0.001090830782496456,-1.25,33.5,17.0625
1772913251.133804,14.241734997951893,1.1069543786327791,-8.730795426246686,-0.06581010419704851,-1.5283076396419648,9.727052102012479,0.0,-0.002181661564992912,-0.001090830782496456,-1.25,33.5,17.0625
1772913251.1467156,14.242254884303746,1.1000341135634282,-8.731654882790767,-0.06386655944001926,-1.525528641379312,9.728038206819484,-0.001090830782496456,-0.001090830782496456,-0.002181661564992912,-2.6875,33.875,17.875
1772913251.158525,14.242254884303746,1.1000341135634282,-8.731654882790767,-0.06591826382235318,-1.5236792490789615,9.73538467196767,-0.001090830782496456,-0.002181661564992912,-0.001090830782496456,-2.6875,33.875,17.875
1772913251.1702445,14.242254884303746,1.1000341135634282,-8.731654882790767,-0.06591826382235318,-1.5236792490789615,9.73538467196767,-0.001090830782496456,-0.002181661564992912,-0.001090830782496456,-2.6875,33.875,17.875
1772913251.181927,14.24277497833014,1.093113864543474,-8.732514464980898,-0.06728365016975672,-1.525793610869463,9.740273662458396,0.001090830782496456,-0.002181661564992912,0.001090830782496456,-2.6875,33.875,17.875
1772913251.1940088,14.24277497833014,1.093113864543474,-8.732514464980898,-0.06728365016975672,-1.525793610869463,9.740273662458396,0.001090830782496456,-0.002181661564992912,0.001090830782496456,-2.6875,33.875,17.875
1772913251.2191732,14.243295280052084,1.0861936314718525,-8.733374172853807,-0.06819229953158891,-1.5272006950220731,9.743527231016373,0.001090830782496456,-0.002181661564992912,-0.001090830782496456,-2.25,33.5,17.5
1772913251.2364671,14.24381661716458,1.0801431371269616,-8.741237027443473,-0.06879699553160978,-1.5281370938074752,9.739002221132324,0.002181661564992912,0.002181661564992912,0.0,-2.25,33.5,17.5
1772913251.262473,14.24381661716458,1.0801431371269616,-8.741237027443473,-0.06879699553160978,-1.5281370938074752,9.739002221132324,0.002181661564992912,0.002181661564992912,0.0,-2.25,33.5,17.5
1772913251.2901914,14.244337748172041,1.0732229336754102,-8.7420969710513,-0.06919941396472674,-1.5287602567389005,9.735990877602163,0.001090830782496456,-0.002181661564992912,0.0,-1.875,33.1875,17.5
1772913251.3128037,14.244859086934435,1.0663027458817125,-8.742957040552255,-0.06946721893665764,-1.529174964708578,9.733986862121752,0.0,-0.001090830782496456,-0.001090830782496456,-1.875,33.1875,17.5
1772913251.3299801,14.244859086934435,1.0663027458817125,-8.742957040552255,-0.06946721893665764,-1.529174964708578,9.733986862121752,0.0,-0.001090830782496456,-0.001090830782496456,-1.875,33.1875,17.5
1772913251.3488727,14.245380633472859,1.059382573644812,-8.743817235983103,-0.0696454401539001,-1.5294509482298067,9.732653212205857,0.001090830782496456,0.001090830782496456,-0.001090830782496456,-1.25,33.875,17.875
1772913251.3628855,14.245902387808437,1.0524624168636545,-8.744677557380626,-0.06976404438311352,-1.5296346121802464,9.738455906499315,0.001090830782496456,-0.001090830782496456,0.001090830782496456,-1.25,33.875,17.875
1772913251.3776414,14.245902387808437,1.0524624168636545,-8.744677557380626,-0.06649786246543961,-1.5297568384876035,9.742317534731267,0.0,-0.001090830782496456,0.0,-1.25,33.875,17.875
1772913251.3972762,14.245902387808437,1.0524624168636545,-8.744677557380626,-0.06649786246543961,-1.5297568384876035,9.742317534731267,0.0,-0.001090830782496456,0.0,-1.25,33.875,17.875
1772913251.4191475,14.1514652807942,-28.623513667502728,149.25637579096713,-0.06766936659218967,-1.5264930670224728,9.744887405182418,0.001090830782496456,0.001090830782496456,0.0,-1.875,33.1875,18.25
1772913251.4313264,14.1514652807942,-28.623513667502728,149.25637579096713,-0.06766936659218967,-1.5264930670224728,9.744887405182418,0.001090830782496456,0.001090830782496456,0.0,-1.875,33.1875,18.25
1772913251.4438264,14.239814571771182,1.0389543218049586,-8.753398262560484,-0.07179410120930266,-1.527666175278464,9.746597625260325,0.001090830782496456,-0.001090830782496456,0.0,-1.875,33.1875,18.25
1772913251.4562342,14.239814571771182,1.0389543218049586,-8.753398262560484,-0.07179410120930266,-1.527666175278464,9.746597625260325,0.001090830782496456,-0.001090830782496456,0.0,-1.875,33.1875,18.25
1772913251.4697764,14.239814571771182,1.0389543218049586,-8.753398262560484,-0.07453906602068662,-1.5251017540110288,9.747735757617763,0.001090830782496456,-0.001090830782496456,0.0,-1.875,33.1875,18.25
1772913251.4860096,14.239814571771182,1.0389543218049586,-8.753398262560484,-0.07453906602068662,-1.5251017540110288,9.747735757617763,0.001090830782496456,-0.001090830782496456,0.0,-1.875,33.1875,18.25
1772913251.5198286,14.239814571771182,1.0389543218049586,-8.753398262560484,-0.06643899441609848,-1.52448557572977,9.748997222790296,0.0,-0.002181661564992912,0.0,-1.25,33.1875,17.5
1772913251.5503297,14.239814571771182,1.0389543218049586,-8.753398262560484,-0.06643899441609848,-1.52448557572977,9.748997222790296,0.0,-0.002181661564992912,0.0,-1.25,33.1875,17.5
1772913251.577967,14.239814571771182,1.0389543218049586,-8.753398262560484,-0.06763019056295234,-1.5229851005409978,9.745987551261377,0.0,-0.001090830782496456,0.001090830782496456,-2.25,33.875,17.875
1772913251.6033967,14.239814571771182,1.0389543218049586,-8.753398262560484,-0.06842291829215075,-1.521986551064276,9.743984648479117,0.002181661564992912,0.003272492347489368,0.001090830782496456,-2.25,33.875,17.875
1772913251.6312683,14.239814571771182,1.0389543218049586,-8.753398262560484,-0.06842291829215075,-1.521986551064276,9.743984648479117,0.002181661564992912,0.003272492347489368,0.001090830782496456,-2.25,33.875,17.875
1772913251.6456902,14.239814571771182,1.0389543218049586,-8.753398262560484,-0.06895046974058333,-1.5213220275420463,9.742651739051412,-0.001090830782496456,0.001090830782496456,-0.001090830782496456,-1.5625,33.1875,17.875
1772913251.6587365,14.239814571771182,1.0389543218049586,-8.753398262560484,-0.0693015493363794,-1.5242249062685358,9.741764702716848,0.0,0.0,-0.002181661564992912,-1.5625,33.1875,17.875
1772913251.6756017,14.239814571771182,1.0389543218049586,-8.753398262560484,-0.0693015493363794,-1.5242249062685358,9.741764702716848,0.0,0.0,-0.002181661564992912,-1.5625,33.1875,17.875
1772913251.6951451,14.239814571771182,1.0389543218049586,-8.753398262560484,-0.06284496547092686,-1.5295018513410539,9.737829278237722,0.0,0.001090830782496456,-0.002181661564992912,-1.5625,33.1875,17.875
1772913251.7118418,14.239814571771182,1.0389543218049586,-8.753398262560484,-0.06284496547092686,-1.5295018513410539,9.737829278237722,0.0,0.001090830782496456,-0.002181661564992912,-1.5625,33.1875,17.875
1772913251.7389252,14.239814571771182,1.0389543218049586,-8.753398262560484,-0.06523840444787456,-1.5330135993394758,9.735210297208436,0.002181661564992912,0.002181661564992912,0.0,-1.25,33.5,17.0625
1772913251.7607489,14.239814571771182,1.0389543218049586,-8.753398262560484,-0.06683121135056803,-1.5353506284036302,9.73346739458938,-0.001090830782496456,0.003272492347489368,0.0,-1.25,33.5,17.0625
1772913251.7774723,14.239814571771182,1.0389543218049586,-8.753398262560484,-0.0678912065514916,-1.5335607834321803,9.735652624073216,0.0,0.002181661564992912,-0.001090830782496456,-1.25,33.5,17.0625
1772913251.796759,14.239814571771182,1.0389543218049586,-8.753398262560484,-0.0678912065514916,-1.5335607834321803,9.735652624073216,0.0,0.002181661564992912,-0.001090830782496456,-1.25,33.5,17.0625
1772913251.822404,14.239814571771182,1.0389543218049586,-8.753398262560484,-0.06859662151678399,-1.5323696615975588,9.733761758176778,0.001090830782496456,0.0,0.0,-1.875,33.1875,17.5
1772913251.8574548,14.239814571771182,1.0389543218049586,-8.753398262560484,-0.06906606729618459,-1.5349220950296403,9.735848519752373,0.001090830782496456,0.002181661564992912,0.001090830782496456,-1.875,33.1875,17.5
1772913251.8806098,14.239814571771182,1.0389543218049586,-8.753398262560484,-0.06906606729618459,-1.5349220950296403,9.735848519752373,0.001090830782496456,0.002181661564992912,0.001090830782496456,-1.875,33.1875,17.5
1772913251.90431,14.239814571771182,1.0389543218049586,-8.753398262560484,-0.06603336651100333,-1.536620710966141,9.733892124562958,0.001090830782496456,0.003272492347489368,-0.001090830782496456,-1.875,33.1875,17.875
1772913251.9446576,14.239814571771182,1.0389543218049586,-8.753398262560484,-0.06401513801595274,-1.5377511208970986,9.735935277126089,0.001090830782496456,0.001090830782496456,0.0,-1.875,33.1875,17.875
1772913251.9743636,14.239814571771182,1.0389543218049586,-8.753398262560484,-0.06401513801595274,-1.5377511208970986,9.735935277126089,0.001090830782496456,0.001090830782496456,0.0,-1.875,33.1875,17.875
1772913252.0099497,14.239814571771182,1.0389543218049586,-8.753398262560484,-0.06267202949758607,-1.5385033960786447,9.737294972333341,0.0,0.003272492347489368,-0.002181661564992912,-2.6875,32.75,17.5
1772913252.028466,14.239814571771182,1.0389543218049586,-8.753398262560484,-0.06512331748943767,-1.5390040268084992,9.738199834304977,0.001090830782496456,0.003272492347489368,0.001090830782496456,-2.6875,32.75,17.5
1772913252.0431933,14.239814571771182,1.0389543218049586,-8.753398262560484,-0.06512331748943767,-1.5390040268084992,9.738199834304977,0.001090830782496456,0.003272492347489368,0.001090830782496456,-2.6875,32.75,17.5
1772913252.0762153,14.239814571771182,1.0389543218049586,-8.753398262560484,-0.06340951055801446,-1.5359920792594863,9.735456898131812,0.0,0.002181661564992912,0.0,-1.875,33.5,17.0625
1772913252.0890265,14.239814571771182,1.0389543218049586,-8.753398262560484,-0.062268991189630134,-1.533987661811277,9.733631504749175,0.0,0.001090830782496456,0.0,-1.875,33.5,17.0625
1772913252.1113267,14.239814571771182,1.0389543218049586,-8.753398262560484,-0.062268991189630134,-1.533987661811277,9.733631504749175,0.0,0.001090830782496456,0.0,-1.875,33.5,17.0625
1772913252.1352174,14.239814571771182,1.0389543218049586,-8.753398262560484,-0.061509988290406506,-1.5293086326829843,9.739106949258648,0.0,-0.002181661564992912,0.0,-1.875,33.5,17.0625
1772913252.1646197,14.239814571771182,1.0389543218049586,-8.753398262560484,-0.05765976863227172,-1.529539902773605,9.74275079641498,-0.002181661564992912,0.0,0.0,-2.25,33.1875,18.6875
1772913252.1767945,14.239814571771182,1.0389543218049586,-8.753398262560484,-0.05765976863227172,-1.529539902773605,9.74275079641498,-0.002181661564992912,0.0,0.0,-2.25,33.1875,18.6875
1772913252.1983225,0.00030200099791789076,1.0389765834294635,-8.753585102681292,-0.43616486231668966,-1.4674948341137728,9.73848551257844,-0.0002683236354524167,-0.0010573146280551636,0.002181661564992912,-2.25,33.1875,18.6875
1772913252.5237713,0.00030200099791789076,1.0389765834294635,-8.753585102681292,-0.44255370034200825,-1.466096276997441,9.741417281295652,-0.0005206673571503302,0.002382952891562744,0.002181661564992912,6.951900778921009,32.47527877955842,17.5
1772913252.8995388,0.00030200099791789076,1.0389765834294635,-8.753585102681292,-0.4397315999750851,-1.4676504423076164,9.738582999140656,0.0,0.0,-0.001090830782496456,5.195090470575855,32.9211193233543,18.25
1772913252.9274154,0.00030200099791789076,1.0389765834294635,-8.753585102681292,-0.4397315999750851,-1.4676504423076164,9.738582999140656,0.0,0.0,-0.001090830782496456,5.195090470575855,32.9211193233543,18.25
1772913252.9830513,0.00030200099791789076,1.0389765834294635,-8.753585102681292,-0.43599823198466264,-1.4647317536019435,9.739372445203292,-0.002114629256110327,0.0005366472709048334,0.001090830782496456,7.315378773751041,32.38303590842824,16.6875
1772913253.090164,0.00030200099791789076,1.0389765834294635,-8.753585102681292,-0.4419841937968794,-1.4642567430998834,9.739582369293037,-0.0013256382635075804,-0.0007889909926027469,-0.001090830782496456,7.02876983819616,32.77817710858345,17.5
1772913253.1241493,0.00030200099791789076,1.0389765834294635,-8.753585102681292,-0.4459677845153349,-1.4639406289169774,9.739722071429757,-0.002114629256110327,0.0005366472709048334,0.001090830782496456,7.02876983819616,32.77817710858345,17.5
1772913253.1830394,0.00030200099791789076,1.0389765834294635,-8.753585102681292,-0.4459677845153349,-1.4639406289169774,9.739722071429757,-0.002114629256110327,0.0005366472709048334,0.001090830782496456,7.02876983819616,32.77817710858345,17.5
1772913253.2287009,0.00030200099791789076,1.0389765834294635,-8.753585102681292,-0.44498298619114834,-1.464960679919412,9.734305666097123,0.0005366472709048334,0.002114629256110327,0.003272492347489368,5.635437524681039,33.13177478124914,17.5
1772913253.264704,0.00030200099791789076,1.0389765834294635,-8.753585102681292,-0.44498298619114834,-1.464960679919412,9.734305666097123,0.0005366472709048334,0.002114629256110327,0.003272492347489368,5.635437524681039,33.13177478124914,17.5
1772913253.2874656,0.00030200099791789076,1.0389765834294635,-8.753585102681292,-0.4479634473550149,-1.4644090910068843,9.732865372690194,0.001309658349753077,-0.0037085911550703244,0.002181661564992912,6.649002449895982,32.55214783883357,17.0625
1772913253.3023365,0.00030200099791789076,1.0389765834294635,-8.753585102681292,-0.4499469109656354,-1.464042014747249,9.738597096931652,-0.002382952891562744,-0.0005206673571503302,0.0,6.649002449895982,32.55214783883357,17.0625
1772913253.3357732,0.00030200099791789076,1.0389765834294635,-8.753585102681292,-0.45126688384176294,-1.463797729596972,9.742411495386788,-0.0013256382635075804,-0.0007889909926027469,0.003272492347489368,6.649002449895982,32.55214783883357,17.0625
1772913253.3757114,0.00030200099791789076,1.0389765834294635,-8.753585102681292,-0.4464834809562067,-1.4685231603239803,9.744949934949059,0.002114629256110327,-0.0005366472709048334,0.0,6.346104120870955,32.62901689810872,17.5
1772913253.3987923,0.00030200099791789076,1.0389765834294635,-8.753585102681292,-0.44330017976998043,-1.4716678816862843,9.743294126414202,0.0010573146280551636,-0.0002683236354524167,0.0,6.346104120870955,32.62901689810872,17.5
1772913253.4297242,0.00030200099791789076,1.0389765834294635,-8.753585102681292,-0.4411817283903511,-1.4737606586240584,9.742192204330848,-0.0005366472709048334,-0.002114629256110327,0.001090830782496456,6.346104120870955,32.62901689810872,17.5
1772913253.47998,0.00030200099791789076,1.0389765834294635,-8.753585102681292,-0.4411817283903511,-1.4737606586240584,9.742192204330848,-0.0005366472709048334,-0.002114629256110327,0.001090830782496456,6.346104120870955,32.62901689810872,17.5
1772913253.5272884,0.00030200099791789076,1.0389765834294635,-8.753585102681292,-0.443961440772765,-1.4736366575844986,9.737625761622866,-0.001593961898959997,-0.0018463056206579104,0.003272492347489368,6.054001695625379,31.47800324781362,17.5
1772913253.565548,0.00030200099791789076,1.0389765834294635,-8.753585102681292,-0.4440412883015337,-1.4710056911143368,9.738419970881997,-0.0015779819852054938,0.0026512765270151604,0.002181661564992912,6.818114380301316,33.21852416268863,17.5
1772913253.5867305,0.00030200099791789076,1.0389765834294635,-8.753585102681292,-0.44249776172773325,-1.4765623101845375,9.742293619979371,-0.0002683236354524167,-0.0010573146280551636,0.0,6.818114380301316,33.21852416268863,17.5
1772913253.620074,0.00030200099791789076,1.0389765834294635,-8.753585102681292,-0.4398248942584742,-1.47377551412634,9.744871490182177,-0.0002683236354524167,-0.0010573146280551636,0.001090830782496456,5.558568465405887,32.828876452224115,17.5
1772913253.6677706,0.00030200099791789076,1.0389765834294635,-8.753585102681292,-0.4398248942584742,-1.47377551412634,9.744871490182177,-0.0002683236354524167,-0.0010573146280551636,0.001090830782496456,5.558568465405887,32.828876452224115,17.5
1772913253.7053666,0.00030200099791789076,1.0389765834294635,-8.753585102681292,-0.4380461308155683,-1.4719209324801612,9.746587034005447,0.0007889909926027469,-0.0013256382635075802,0.001090830782496456,5.558568465405887,32.828876452224115,17.5
1772913253.7588437,0.00030200099791789076,1.0389765834294635,-8.753585102681292,-0.43686238361440405,-1.4706867291116636,9.747728709255954,-0.002651276527015161,-0.0015779819852054938,-0.002181661564992912,6.151738056446257,33.38763609309396,16.375
1772913253.7734587,0.00030200099791789076,1.0389765834294635,-8.753585102681292,-0.43686238361440405,-1.4706867291116636,9.747728709255954,-0.002651276527015161,-0.0015779819852054938,-0.002181661564992912,6.151738056446257,33.38763609309396,16.375
1772913253.7914135,0.00030200099791789076,1.0389765834294635,-8.753585102681292,-0.4393169450643091,-1.4690425466685253,9.748488481381818,0.0010573146280551636,-0.0002683236354524167,0.001090830782496456,6.151738056446257,33.38763609309396,16.375
1772913253.8064868,0.00030200099791789076,1.0389765834294635,-8.753585102681292,-0.4393169450643091,-1.4690425466685253,9.748488481381818,0.0010573146280551636,-0.0002683236354524167,0.001090830782496456,6.151738056446257,33.38763609309396,16.375
1772913253.8409605,0.00030200099791789076,1.0389765834294635,-8.753585102681292,-0.44095042828997283,-1.467948361619338,9.748994101244369,-0.0013256382635075804,-0.0007889909926027469,-0.001090830782496456,7.121012709326343,33.14165510341348,16.375
1772913253.862035,0.00030200099791789076,1.0389765834294635,-8.753585102681292,-0.44527982511840597,-1.4663973598035938,9.749330585614754,0.0,0.0,-0.001090830782496456,7.121012709326343,33.14165510341348,16.375
1772913253.8823626,0.00030200099791789076,1.0389765834294635,-8.753585102681292,-0.44527982511840597,-1.4663973598035938,9.749330585614754,0.0,0.0,-0.001090830782496456,7.121012709326343,33.14165510341348,16.375
1772913253.9053845,0.00030200099791789076,1.0389765834294635,-8.753585102681292,-0.44167632636728255,-1.4670108531977577,9.749554512204467,-0.0013256382635075804,-0.0007889909926027469,0.001090830782496456,5.875009443055712,32.29720210860387,17.5
1772913253.936719,0.00030200099791789076,1.0389765834294635,-8.753585102681292,-0.43927823820212847,-1.4674191261984035,9.749703532848498,0.0007889909926027469,-0.0013256382635075802,-0.002181661564992912,5.875009443055712,32.29720210860387,17.5
1772913253.958715,0.00030200099791789076,1.0389765834294635,-8.753585102681292,-0.43768233731661854,-1.4676908273196252,9.74980270442243,-0.0005366472709048334,-0.002114629256110327,0.0,6.0594951853160754,33.02415809826393,17.875
1772913253.9760034,0.00030200099791789076,1.0389765834294635,-8.753585102681292,-0.44068544898200795,-1.4702911394812967,9.749868701997064,-0.0018622855344124138,-0.0029036202487130744,0.001090830782496456,6.0594951853160754,33.02415809826393,17.875
1772913254.0012407,0.00030200099791789076,1.0389765834294635,-8.753585102681292,-0.44268398624836924,-1.472021618177499,9.749912622645741,-0.001593961898959997,-0.0018463056206579104,0.003272492347489368,6.0594951853160754,33.02415809826393,17.875
1772913254.0163155,0.00030200099791789076,1.0389765834294635,-8.753585102681292,-0.44268398624836924,-1.472021618177499,9.749912622645741,-0.001593961898959997,-0.0018463056206579104,0.003272492347489368,6.0594951853160754,33.02415809826393,17.875
1772913254.0451086,0.00030200099791789076,1.0389765834294635,-8.753585102681292,-0.4440139904740086,-1.4731732324191078,9.746596739639491,0.0,0.0,0.0,6.422973180146108,32.93191522713375,18.6875
1772913254.0687294,0.00030200099791789076,1.0389765834294635,-8.753585102681292,-0.4375915955627785,-1.472342954620284,9.74773516824699,-0.0005366472709048334,-0.002114629256110327,0.001090830782496456,6.422973180146108,32.93191522713375,18.6875
1772913254.0868843,0.00030200099791789076,1.0389765834294635,-8.753585102681292,-0.439802227470121,-1.470144746243261,9.74514766806088,-0.0002523437216979134,0.0034402675196179076,-0.002181661564992912,6.422973180146108,32.93191522713375,18.6875
1772913254.1074398,0.00030200099791789076,1.0389765834294635,-8.753585102681292,-0.441273378310081,-1.4686818631239487,9.746770827298615,0.0010573146280551636,-0.0002683236354524167,0.0,6.346104120870955,32.62901689810872,17.875
1772913254.1362824,0.00030200099791789076,1.0389765834294635,-8.753585102681292,-0.441273378310081,-1.4686818631239487,9.746770827298615,0.0010573146280551636,-0.0002683236354524167,0.0,6.346104120870955,32.62901689810872,17.875
1772913254.1719127,0.00030200099791789076,1.0389765834294635,-8.753585102681292,-0.4422524127602427,-1.4677083307495216,9.741160798224813,-0.0018463056206579104,0.001593961898959997,-0.001090830782496456,6.346104120870955,32.62901689810872,17.875
1772913254.1962867,0.00030200099791789076,1.0389765834294635,-8.753585102681292,-0.44372678313865216,-1.4703027878183665,9.744117609958966,-0.0010573146280551636,0.0002683236354524167,-0.001090830782496456,6.422973180146108,32.93191522713375,17.5
1772913254.2364275,0.00030200099791789076,1.0389765834294635,-8.753585102681292,-0.44470796015568737,-1.4720293700156986,9.746085335138295,0.0002683236354524167,0.0010573146280551636,-0.001090830782496456,6.422973180146108,32.93191522713375,17.5
1772913254.2508032,0.00030200099791789076,1.0389765834294635,-8.753585102681292,-0.44470796015568737,-1.4720293700156986,9.746085335138295,0.0002683236354524167,0.0010573146280551636,-0.001090830782496456,6.422973180146108,32.93191522713375,17.5
1772913254.2742984,0.00030200099791789076,1.0389765834294635,-8.753585102681292,-0.44453808861170063,-1.4699360591918789,9.747394834264208,0.0010573146280551636,-0.0002683236354524167,-0.001090830782496456,6.422973180146108,32.93191522713375,17.5
1772913254.2951488,0.00030200099791789076,1.0389765834294635,-8.753585102681292,-0.4444250409967669,-1.468542984222441,9.748266291304438,-0.0005206673571503302,0.002382952891562744,-0.001090830782496456,5.875009443055712,32.29720210860387,17.875
1772913254.3300762,0.00030200099791789076,1.0389765834294635,-8.753585102681292,-0.4443498090718532,-1.467615908391947,9.752191347937218,-0.0005206673571503302,0.002382952891562744,0.0,5.875009443055712,32.29720210860387,17.875
1772913254.3666465,0.00030200099791789076,1.0389765834294635,-8.753585102681292,-0.4442997430662187,-1.466998949782869,9.754803429280578,-0.001593961898959997,-0.0018463056206579104,0.0,6.422973180146108,32.93191522713375,16.6875
1772913254.4060643,0.00030200099791789076,1.0389765834294635,-8.753585102681292,-0.4442664246987429,-1.4665883707204068,9.759886851943042,-0.0005366472709048334,-0.002114629256110327,0.001090830782496456,6.422973180146108,32.93191522713375,16.6875
1772913254.4647913,0.00030200099791789076,1.0389765834294635,-8.753585102681292,-0.44424425169737836,-1.466315134940807,9.76326981293936,-0.0002683236354524167,-0.0010573146280551636,0.0,6.346104120870955,32.62901689810872,17.875
1772913254.4909942,0.00030200099791789076,1.0389765834294635,-8.753585102681292,-0.44505232970101705,-1.4693756315706838,9.75883091227762,-0.0002683236354524167,-0.0010573146280551636,-0.001090830782496456,6.346104120870955,32.62901689810872,17.875
1772913254.5166006,0.00030200099791789076,1.0389765834294635,-8.753585102681292,-0.4455900965856159,-1.4714123578898797,9.749186650058364,0.0013256382635075804,0.0007889909926027469,0.0,6.346104120870955,32.62901689810872,17.875
1772913254.5393858,0.00030200099791789076,1.0389765834294635,-8.753585102681292,-0.4455900965856159,-1.4714123578898797,9.749186650058364,0.0013256382635075804,0.0007889909926027469,0.0,6.346104120870955,32.62901689810872,17.875
1772913254.560191,0.00030200099791789076,1.0389765834294635,-8.753585102681292,-0.44270564245110955,-1.4735906103919387,9.749458724699556,0.0002683236354524167,0.0010573146280551636,0.001090830782496456,6.5152160512762896,33.29539322196378,18.25
1772913254.5774934,0.00030200099791789076,1.0389765834294635,-8.753585102681292,-0.4399632365577013,-1.4717978811104273,9.749639787333995,0.0013256382635075804,0.0007889909926027469,0.002181661564992912,6.5152160512762896,33.29539322196378,18.25
1772913254.606075,0.00030200099791789076,1.0389765834294635,-8.753585102681292,-0.43813819607031923,-1.4706048397996796,9.749760282494613,0.0013256382635075804,0.0007889909926027469,0.0,6.5152160512762896,33.29539322196378,18.25
1772913254.6405108,0.00030200099791789076,1.0389765834294635,-8.753585102681292,-0.43692365201300454,-1.4698108841345217,9.749840470677984,-0.0018463056206579104,0.001593961898959997,-0.001090830782496456,6.844284095935796,32.05122111892338,17.875
1772913254.6651497,0.00030200099791789076,1.0389765834294635,-8.753585102681292,-0.4393577184991648,-1.4684596816200668,9.749893835018257,-0.0029196001624675776,-0.0026352966132606576,0.001090830782496456,6.844284095935796,32.05122111892338,17.875
1772913254.6826603,0.00030200099791789076,1.0389765834294635,-8.753585102681292,-0.4377352305664431,-1.4683833053289765,9.739894013268632,-0.0013256382635075804,-0.0007889909926027469,-0.001090830782496456,6.844284095935796,32.05122111892338,17.875
1772913254.7096407,0.00030200099791789076,1.0389765834294635,-8.753585102681292,-0.4377352305664431,-1.4683833053289765,9.739894013268632,-0.0013256382635075804,-0.0007889909926027469,-0.001090830782496456,6.844284095935796,32.05122111892338,17.875
1772913254.735573,0.00030200099791789076,1.0389765834294635,-8.753585102681292,-0.43665548297159457,-1.4683324777604347,9.743274578721543,-0.0002683236354524167,-0.0010573146280551636,-0.001090830782496456,5.804549455086373,33.7981511051042,17.875
1772913254.7752545,0.00030200099791789076,1.0389765834294635,-8.753585102681292,-0.43665548297159457,-1.4683324777604347,9.743274578721543,-0.0002683236354524167,-0.0010573146280551636,-0.001090830782496456,5.804549455086373,33.7981511051042,17.875
1772913254.8140836,0.00030200099791789076,1.0389765834294635,-8.753585102681292,-0.43593692300879383,-1.4682986525813515,9.738834083852426,-0.0002683236354524167,-0.0010573146280551636,0.001090830782496456,5.804549455086373,33.7981511051042,17.875
1772913254.8382118,0.00030200099791789076,1.0389765834294635,-8.753585102681292,-0.43545872938039065,-1.4682761423025235,9.735878984120607,-0.0005206673571503302,0.002382952891562744,0.002181661564992912,4.969061200825981,33.30088671165448,17.875
1772913254.8541677,0.00030200099791789076,1.0389765834294635,-8.753585102681292,-0.43838282885141827,-1.4674383280750616,9.733912398259708,0.0007889909926027469,-0.0013256382635075802,-0.002181661564992912,4.969061200825981,33.30088671165448,17.875
1772913254.870085,0.00030200099791789076,1.0389765834294635,-8.753585102681292,-0.44032878438505585,-1.466880772065684,9.732603657337483,0.0010573146280551636,-0.0002683236354524167,0.001090830782496456,4.969061200825981,33.30088671165448,17.875
1772913254.8980784,0.00030200099791789076,1.0389765834294635,-8.753585102681292,-0.44032878438505585,-1.466880772065684,9.732603657337483,0.0010573146280551636,-0.0002683236354524167,0.001090830782496456,4.969061200825981,33.30088671165448,17.875
1772913254.9289749,0.00030200099791789076,1.0389765834294635,-8.753585102681292,-0.441623796054944,-1.4665097247697518,9.735077816580656,0.0,0.0,-0.002181661564992912,5.271959529851007,33.224017652379324,17.875
1772913254.9486098,0.00030200099791789076,1.0389765834294635,-8.753585102681292,-0.44006611375442745,-1.4703279628164942,9.733379230211499,-0.0010573146280551636,0.0002683236354524167,0.001090830782496456,5.271959529851007,33.224017652379324,17.875
1772913254.962498,0.00030200099791789076,1.0389765834294635,-8.753585102681292,-0.44006611375442745,-1.4703279628164942,9.733379230211499,-0.0010573146280551636,0.0002683236354524167,0.001090830782496456,5.271959529851007,33.224017652379324,17.875
1772913254.9858158,0.00030200099791789076,1.0389765834294635,-8.753585102681292,-0.43902949358388516,-1.4728689575840876,9.735593951664598,0.0007889909926027469,-0.0013256382635075802,0.0,5.271959529851007,33.224017652379324,17.875
1772913255.044788,0.00030200099791789076,1.0389765834294635,-8.753585102681292,-0.437516800551837,-1.4713176292281922,9.740412935758894,-0.0005366472709048334,-0.002114629256110327,0.0,6.422973180146108,32.93191522713375,17.5
1772913255.071131,0.00030200099791789076,1.0389765834294635,-8.753585102681292,-0.4365101202368974,-1.4702852375368172,9.743619915842068,0.0013256382635075804,0.0007889909926027469,0.0,6.422973180146108,32.93191522713375,17.5
1772913255.1040363,0.00030200099791789076,1.0389765834294635,-8.753585102681292,-0.4365101202368974,-1.4702852375368172,9.743619915842068,0.0013256382635075804,0.0007889909926027469,0.0,6.422973180146108,32.93191522713375,17.5
1772913255.1425004,0.00030200099791789076,1.0389765834294635,-8.753585102681292,-0.43215201981479334,-1.469963805422568,9.747174417792126,-0.0002683236354524167,-0.0010573146280551636,0.0,6.8949834395764675,33.52142249171366,17.5
1772913255.1740716,0.00030200099791789076,1.0389765834294635,-8.753585102681292,-0.43215201981479334,-1.469963805422568,9.747174417792126,-0.0002683236354524167,-0.0010573146280551636,0.0,6.8949834395764675,33.52142249171366,17.5
1772913255.1938381,0.00030200099791789076,1.0389765834294635,-8.753585102681292,-0.4386017486744784,-1.4644962831517039,9.744774494897161,-0.0010573146280551636,0.0002683236354524167,0.0,5.450951782420675,32.40481879158908,17.5
1772913255.2253876,0.00030200099791789076,1.0389765834294635,-8.753585102681292,-0.4331669752155352,-1.4633262098217437,9.743177373019458,-0.0018463056206579104,0.001593961898959997,-0.001090830782496456,5.450951782420675,32.40481879158908,17.5
1772913255.251026,0.00030200099791789076,1.0389765834294635,-8.753585102681292,-0.43768052594363666,-1.4673865352924287,9.732079171128909,-0.001593961898959997,-0.0018463056206579104,0.001090830782496456,5.450951782420675,32.40481879158908,17.5
1772913255.2720613,0.00030200099791789076,1.0389765834294635,-8.753585102681292,-0.43768052594363666,-1.4673865352924287,9.732079171128909,-0.001593961898959997,-0.0018463056206579104,0.001090830782496456,5.450951782420675,32.40481879158908,17.5
1772913255.3074307,0.00030200099791789076,1.0389765834294635,-8.753585102681292,-0.43744191154456574,-1.4709114704247201,9.741419000282384,-0.0002683236354524167,-0.0010573146280551636,-0.001090830782496456,6.818114380301316,33.21852416268863,16.6875
1772913255.3496082,0.00030200099791789076,1.0389765834294635,-8.753585102681292,-0.4397026144280805,-1.4691921095018394,9.744289440543975,0.0,0.0,0.001090830782496456,6.818114380301316,33.21852416268863,16.6875
1772913255.3941853,0.00030200099791789076,1.0389765834294635,-8.753585102681292,-0.4379647549543966,-1.4688707279025406,9.749544798180464,-0.0013256382635075804,-0.0007889909926027469,0.001090830782496456,7.121012709326343,33.14165510341348,16.375
1772913255.4629111,0.00030200099791789076,1.0389765834294635,-8.753585102681292,-0.43686140759811787,-1.4717568520287132,9.74979840232034,-0.0013256382635075804,-0.0007889909926027469,0.001090830782496456,6.5152160512762896,33.29539322196378,17.0625
1772913255.4968402,0.00030200099791789076,1.0389765834294635,-8.753585102681292,-0.4368967974357744,-1.4738198673930807,9.743175615581542,-0.0010573146280551636,0.0002683236354524167,0.001090830782496456,6.5152160512762896,33.29539322196378,17.0625
1772913255.5281327,0.00030200099791789076,1.0389765834294635,-8.753585102681292,-0.4368967974357744,-1.4738198673930807,9.743175615581542,-0.0010573146280551636,0.0002683236354524167,0.001090830782496456,6.5152160512762896,33.29539322196378,17.0625
1772913255.5785835,0.00030200099791789076,1.0389765834294635,-8.753585102681292,-0.43692034897740456,-1.475192781072676,9.745458448402886,-0.0008049709063572502,-0.003171943884165491,0.0,6.98722631070665,33.884900486543685,17.0625
1772913255.6074028,0.00030200099791789076,1.0389765834294635,-8.753585102681292,-0.43204802249959795,-1.4704446097004398,9.740287424729937,-0.0005366472709048334,-0.002114629256110327,0.001090830782496456,6.98722631070665,33.884900486543685,17.0625
1772913255.6532807,0.00030200099791789076,1.0389765834294635,-8.753585102681292,-0.43204802249959795,-1.4704446097004398,9.740287424729937,-0.0005366472709048334,-0.002114629256110327,0.001090830782496456,6.98722631070665,33.884900486543685,17.0625
1772913255.7072325,0.00030200099791789076,1.0389765834294635,-8.753585102681292,-0.42880554365607065,-1.4672847546927663,9.740191277947028,0.0002683236354524167,0.0010573146280551636,-0.002181661564992912,6.592085110551442,33.598291550988804,19.0625
1772913255.7792583,0.00030200099791789076,1.0389765834294635,-8.753585102681292,-0.4274705440949234,-1.4684242384720099,9.740127293337032,1.5979913754503327e-05,0.004497582147673071,-0.002181661564992912,6.592085110551442,33.598291550988804,19.0625
1772913255.81707,0.00030200099791789076,1.0389765834294635,-8.753585102681292,-0.4265821167999021,-1.4691825521982285,9.740084712293836,-0.001593961898959997,-0.0018463056206579104,0.002181661564992912,5.271959529851007,33.224017652379324,17.5
1772913255.9159389,0.00030200099791789076,1.0389765834294635,-8.753585102681292,-0.42923321034840567,-1.4688643676237494,9.74340148679257,-0.0007889909926027469,0.0013256382635075802,0.001090830782496456,5.271959529851007,33.224017652379324,17.5
1772913255.9350893,0.00030200099791789076,1.0389765834294635,-8.753585102681292,-0.42923321034840567,-1.4688643676237494,9.74340148679257,-0.0007889909926027469,0.0013256382635075802,0.001090830782496456,5.271959529851007,33.224017652379324,17.5
1772913255.9688003,0.00030200099791789076,1.0389765834294635,-8.753585102681292,-0.42923321034840567,-1.4688643676237494,9.74340148679257,-0.0007889909926027469,0.0013256382635075802,0.001090830782496456,5.271959529851007,33.224017652379324,17.5
1772913256.0040364,0.00030200099791789076,1.0389765834294635,-8.753585102681292,-0.4309974834902795,-1.4686526193437883,9.745608763170678,-0.0002683236354524167,-0.0010573146280551636,0.0,6.818114380301316,33.21852416268863,17.5
1772913256.0942857,0.00030200099791789076,1.0389765834294635,-8.753585102681292,-0.428929255569017,-1.4693345371172155,9.747077680943416,-0.0005206673571503302,0.002382952891562744,-0.001090830782496456,6.818114380301316,33.21852416268863,17.5
1772913256.148867,0.00030200099791789076,1.0389765834294635,-8.753585102681292,-0.4275528729910366,-1.4697883457779108,9.748055229312286,-0.001593961898959997,-0.0018463056206579104,0.0,6.0594951853160754,33.02415809826393,17.875
1772913256.1946394,0.00030200099791789076,1.0389765834294635,-8.753585102681292,-0.42663690576059143,-1.4700903503722287,9.742015553417199,0.0005206673571503302,-0.002382952891562744,0.0,6.0594951853160754,33.02415809826393,17.875
1772913256.229109,0.00030200099791789076,1.0389765834294635,-8.753585102681292,-0.42685017368911277,-1.473533663045092,9.741341328283939,-0.0010573146280551636,0.0002683236354524167,0.0,6.951900778921009,32.47527877955842,17.0625
1772913256.2535605,0.00030200099791789076,1.0389765834294635,-8.753585102681292,-0.42685017368911277,-1.473533663045092,9.741341328283939,-0.0010573146280551636,0.0002683236354524167,0.0,6.951900778921009,32.47527877955842,17.0625
1772913256.298692,0.00030200099791789076,1.0389765834294635,-8.753585102681292,-0.42941159921378375,-1.4717599832872441,9.740892638989342,-0.0013256382635075804,-0.0007889909926027469,0.001090830782496456,6.951900778921009,32.47527877955842,17.0625
1772913256.3189063,0.00030200099791789076,1.0389765834294635,-8.753585102681292,-0.42941159921378375,-1.4717599832872441,9.740892638989342,-0.0013256382635075804,-0.0007889909926027469,0.001090830782496456,6.951900778921009,32.47527877955842,17.0625
1772913256.3407323,0.00030200099791789076,1.0389765834294635,-8.753585102681292,-0.4351813651647697,-1.4729991173222965,9.743939152983296,0.0013256382635075804,0.0007889909926027469,0.0,5.635437524681039,33.13177478124914,17.0625
1772913256.4106774,0.00030200099791789076,1.0389765834294635,-8.753585102681292,-0.4351813651647697,-1.4729991173222965,9.743939152983296,0.0013256382635075804,0.0007889909926027469,0.0,5.635437524681039,33.13177478124914,17.0625
1772913256.4577427,0.00030200099791789076,1.0389765834294635,-8.753585102681292,-0.43577874796368493,-1.474646581068948,9.745966574014481,-0.002114629256110327,0.0005366472709048334,-0.001090830782496456,5.635437524681039,33.13177478124914,17.0625
1772913256.4919503,0.00030200099791789076,1.0389765834294635,-8.753585102681292,-0.439418631532117,-1.4749201159006102,9.737280464941,0.0,0.0,0.0,4.692332587435434,32.21045272716438,17.875
1772913256.545945,0.00043086880835268285,1.038117015671136,-8.746663604633603,-0.4377757675094296,-1.4726826521748986,9.731499956382795,0.00978415528794889,-0.0013575980910165869,-0.004363323129985824,4.692332587435434,32.21045272716438,17.875
1772913256.5916317,0.00043086880835268285,1.038117015671136,-8.746663604633603,-0.4377757675094296,-1.4726826521748986,9.731499956382795,0.00978415528794889,-0.0013575980910165869,-0.004363323129985824,4.692332587435434,32.21045272716438,17.875
1772913256.6452012,0.00043086880835268285,1.038117015671136,-8.746663604633603,-0.44372543806740905,-1.4509749790866706,9.736235539937029,0.004229258512220654,-0.0010732945418096668,-0.003272492347489368,5.982626126040924,32.721259769238905,17.5
1772913256.6628087,0.00043086880835268285,1.038117015671136,-8.746663604633603,-0.44372543806740905,-1.4509749790866706,9.736235539937029,0.004229258512220654,-0.0010732945418096668,-0.003272492347489368,5.982626126040924,32.721259769238905,17.5
1772913256.6860068,0.0005596339339451762,1.0372574242969455,-8.739742045524133,-0.43551619712668593,-1.4349264042316068,9.77847415379987,-0.002114629256110327,0.0005366472709048334,0.002181661564992912,5.364202400981189,33.58749564720936,17.0625
1772913256.7133136,0.0005596339339451762,1.0372574242969455,-8.739742045524133,-0.41727240971968627,-1.4299046274378993,9.805745460057187,-0.006612211403783398,0.0005526271846593368,0.004363323129985824,5.364202400981189,33.58749564720936,17.0625
1772913256.7567792,0.0005596339339451762,1.0372574242969455,-8.739742045524133,-0.41485836896365796,-1.4240941894135344,9.783752869243148,-0.002903620248713074,0.0018622855344124138,0.0,5.558568465405887,32.828876452224115,17.875
1772913256.7789168,0.0005596339339451762,1.0372574242969455,-8.739742045524133,-0.41485836896365796,-1.4240941894135344,9.783752869243148,-0.002903620248713074,0.0018622855344124138,0.0,5.558568465405887,32.828876452224115,17.875
1772913256.8153183,0.0005596339339451762,1.0372574242969455,-8.739742045524133,-0.4084128556059255,-1.428357739569796,9.769117045729741,0.007669526031838562,-0.0008209508201117537,-0.004363323129985824,5.558568465405887,32.828876452224115,17.875
1772913256.8488274,0.0005596339339451762,1.0372574242969455,-8.739742045524133,-0.4073657704564136,-1.430372250683454,9.762722180381749,-0.005034229418577904,-0.002098649342355824,0.0,6.422973180146108,32.93191522713375,17.875
1772913256.8806303,0.0005596339339451762,1.0372574242969455,-8.739742045524133,-0.4034266149971638,-1.432535719214388,9.758466468927987,-0.0034402675196179076,-0.0002523437216979134,-0.004363323129985824,6.422973180146108,32.93191522713375,17.875
1772913256.921361,0.002644674437289923,1.0095756690328197,-8.743181510064808,-0.4130986558031801,-1.4688183013443674,9.75897945220224,0.013981453972660533,-0.011426056928172397,0.004363323129985824,6.54138576691077,32.12809017819853,17.0625
1772913256.950579,0.003687811041998091,0.9957348418533339,-8.744901608785453,-0.40656596295998043,-1.4962552900023027,9.759320836840857,0.009531811566250976,0.0020826694286013208,-0.008726646259971648,6.54138576691077,32.12809017819853,17.0625
1772913256.9934936,0.003687811041998091,0.9957348418533339,-8.744901608785453,-0.40656596295998043,-1.4962552900023027,9.759320836840857,0.009531811566250976,0.0020826694286013208,-0.008726646259971648,6.54138576691077,32.12809017819853,17.0625
1772913257.0336115,-0.0033599382777317593,0.9960727977572963,-8.75194935810518,-0.38411618330391123,-1.4431829957058568,9.782963806455575,-0.0033763478645998947,0.017737984868994368,-0.015271630954950384,6.951900778921009,32.47527877955842,17.0625
1772913257.058857,-0.004658380864287223,1.0116325041604344,-8.764073078321257,-0.36917610572326776,-1.4078639767079448,9.835494167405407,-0.005270593226521314,0.005839200324935154,-0.002181661564992912,6.951900778921009,32.47527877955842,17.0625
1772913257.0740807,-0.004658380864287223,1.0116325041604344,-8.764073078321257,-0.36917610572326776,-1.4078639767079448,9.835494167405407,-0.005270593226521314,0.005839200324935154,-0.002181661564992912,6.951900778921009,32.47527877955842,17.0625
1772913257.1037707,0.030470065643124444,1.0073255764912386,-8.764297283769002,-0.3575879832082349,-1.377874900126214,9.833656307034428,-0.008742820573648228,-0.0034083076921089003,0.020725784867432664,6.54138576691077,32.12809017819853,17.5
1772913257.1278837,0.12321210576298176,1.000535213316788,-8.765417585088798,-0.44260120197666036,-1.4241157908300117,9.869229460268299,0.0017504261381308906,-0.028579454784998425,0.09599310885968812,6.54138576691077,32.12809017819853,17.5
1772913257.1487129,0.47006270965485797,0.8980103553773942,-8.693935552054644,-0.505759220514035,-1.4808272429604514,9.912973666611197,0.022529180682880585,-0.1373903168905274,0.24870941840919197,6.54138576691077,32.12809017819853,17.5
1772913257.1803622,1.1455975700411358,0.6541309918438802,-8.494699094643654,-0.6546013444147732,-1.6674703345144777,9.985571399472747,0.06161452719503849,-0.23171503758,0.3785182815262702,6.356900024650406,31.40113418853847,17.5
1772913257.2126777,2.1019000933802423,0.4202046497462443,-8.043943546989354,-0.9430712436523503,-1.8989109737539727,10.070680608502807,0.23583507701619708,-0.26805058776235774,0.5803219762881145,6.356900024650406,31.40113418853847,17.5
1772913257.2312589,3.1574907246850388,0.2692507522637721,-7.54224241769629,-1.2355570308327113,-2.0274242832674116,10.271159639794886,0.2576138963307322,-0.24431693832925735,0.6130468997630083,6.356900024650406,31.40113418853847,17.5
1772913257.2479002,3.1574907246850388,0.2692507522637721,-7.54224241769629,-1.2355570308327113,-2.0274242832674116,10.271159639794886,0.2576138963307322,-0.24431693832925735,0.6130468997630083,6.356900024650406,31.40113418853847,17.5
1772913257.2872539,4.963274909241627,0.38219577360298207,-6.997749597296612,-1.5543898243431884,-2.0355449300202566,10.498934669345967,0.17307069060895053,0.012348862449443254,0.6981317007977318,5.727680395811221,33.49525277607918,17.0625
1772913257.307728,4.963274909241627,0.38219577360298207,-6.997749597296612,-1.5543898243431884,-2.0355449300202566,10.498934669345967,0.17307069060895053,0.012348862449443254,0.6981317007977318,5.727680395811221,33.49525277607918,17.0625
1772913257.3274834,6.188949724226116,0.7946862840151625,-6.6548287228141145,-1.577046041982571,-1.9968877141866221,10.278513661667185,0.2566052160220567,0.14195445901347642,0.779944009484966,5.727680395811221,33.49525277607918,17.0625
1772913257.351189,7.439969503596675,1.3678078555833724,-6.243503916861412,-1.5921235017350464,-1.9711617688787342,9.998021475028171,0.2925093085330429,0.19474029084746206,0.7853981633974483,0.9696966004785719,29.73767340854056,12.375
1772913257.3655393,8.261658681618549,1.8000696764034938,-5.956848013320091,-1.622483212160634,-1.966138930156968,9.801321723000976,0.308324423110981,0.25262427175504365,0.7744898555724837,0.9696966004785719,29.73767340854056,12.375
1772913257.378166,9.043846963289779,2.572235413381934,-6.230977116709865,-1.6761294283445076,-2.0129789275785392,9.67042023530708,0.2962212345864874,0.27145153107960224,0.770126532442498,0.9696966004785719,29.73767340854056,12.375
1772913257.3929567,9.043846963289779,2.572235413381934,-6.230977116709865,-1.6761294283445076,-2.0129789275785392,9.67042023530708,0.2962212345864874,0.27145153107960224,0.770126532442498,0.9696966004785719,29.73767340854056,12.375
1772913257.419207,10.18384126948758,3.4313126267697873,-6.21290179132396,-1.7443517129658974,-2.0635064074303306,9.623448098000054,0.21805985167917782,0.31379539084144636,0.7341291166201148,-8.142889555495474,24.828355884693668,2.0625
1772913257.4444203,10.18384126948758,3.4313126267697873,-6.21290179132396,-1.7443517129658974,-2.0635064074303306,9.623448098000054,0.21805985167917782,0.31379539084144636,0.7341291166201148,-8.142889555495474,24.828355884693668,2.0625
1772913257.4763706,11.624553687374611,4.317549812294046,-6.121850089369184,-1.7897528812885786,-2.097131880842765,9.602224000457342,0.061433467503223066,0.3130290495593464,0.681769239060285,-8.142889555495474,24.828355884693668,2.0625
1772913257.5298135,13.741411535169295,5.470775110586502,-6.246832941008949,-1.743453526733458,-2.049196802166795,9.58809960063137,-0.02304317824328265,0.2905764335468642,0.6643159465403417,-12.710894118877063,23.343887357265423,-5.0
1772913257.5503619,14.762727319410681,5.954108010506385,-6.284153437088582,-1.5760228478582243,-1.9277261094912161,9.565319523497793,-0.02274622967869535,0.2252273305878785,0.6381360077604268,-12.710894118877063,23.343887357265423,-5.0
1772913257.5648072,15.828177114358155,6.40041049919143,-6.241760547347588,-1.3010231217155908,-1.7054899788866915,9.5100182961477,0.0062739928946808875,0.2021068930960813,0.6599526234103559,-12.710894118877063,23.343887357265423,-5.0
1772913257.6077845,15.828177114358155,6.40041049919143,-6.241760547347588,-1.035113894157345,-1.516511852363917,9.4732159471014,0.02828584111878528,0.14250111097950366,0.7243116395776468,-18.179544510399626,20.089065872867227,-21.25
1772913257.6417077,17.37553185464708,6.911858953806242,-6.071600662336014,-1.035113894157345,-1.516511852363917,9.4732159471014,0.02828584111878528,0.14250111097950366,0.7243116395776468,-18.179544510399626,20.089065872867227,-21.25
1772913257.6698956,18.858820088584935,7.090333817865991,-5.952006500988141,-0.8515716025111681,-1.3648103642753473,9.542387522725205,0.0026865712528983086,0.08597472816293869,0.6697701004528239,-18.179544510399626,20.089065872867227,-21.25
1772913257.7154505,20.280559374853336,6.615195072926825,-5.870795229325487,-0.7075037641235594,-1.2590647259323402,9.58842043360572,0.021906658624571154,0.05971430661448499,0.6523168079328807,-20.043971501729995,20.11084875602807,-36.5
1772913257.7370055,21.888720220773525,6.337756102979636,-5.694393002133375,-0.5856895711081527,-1.1952748559781141,9.619054821575393,0.02697284787065806,0.07080812025218694,0.7733990247899872,-20.043971501729995,20.11084875602807,-36.5
1772913257.7546747,21.888720220773525,6.337756102979636,-5.694393002133375,-0.5856895711081527,-1.1952748559781141,9.619054821575393,0.02697284787065806,0.07080812025218694,0.7733990247899872,-20.043971501729995,20.11084875602807,-36.5
1772913257.7912207,23.656890702303908,6.414079354269091,-5.458520338404158,-0.4819272624873961,-1.1585832473216218,9.652822111389952,0.05012191029159013,0.03342192523852229,0.806123948264881,-19.42901902752878,22.534035388228283,-45.875
1772913257.8597753,25.497224339053403,5.689322644711129,-5.29537483908474,-0.3925487758146411,-1.1220679011298562,9.675293865556199,0.03209628697501471,-0.050910901284192886,0.8333947178272924,-19.42901902752878,22.534035388228283,-45.875
1772913257.9235249,30.058588368564738,4.2443022874517595,-4.780524025367635,-0.3038874034564243,-1.1051728511376042,9.633381667903466,0.025288981707803124,-0.17973084175399745,0.9064803802545549,-16.361963460647527,23.948043927687188,-54.0625
1772913257.9870818,32.91754768675472,3.747827623273934,-4.7878331165988675,-0.23186591904415083,-1.0834285578070808,9.605489568555496,-0.11798514035054879,-0.1456217802240315,0.8453938564347534,-16.361963460647527,23.948043927687188,-54.0625
1772913258.0241706,35.33931943635742,3.5715573240854526,-5.159484763270052,-0.10093843681298084,-1.000291185661211,9.583582576307268,-0.2400011104515159,-0.08539611636940242,0.8628471489546967,-16.21902124587667,25.781723295307494,-59.0625
1772913258.056868,36.75283380180069,3.1250246342847934,-5.427571638711468,-0.013807659943944601,-0.9449641932034327,9.589074387927127,-0.2563368923866043,-0.14089714438542125,0.830122225479803,-16.21902124587667,25.781723295307494,-59.0625
1772913258.0842738,36.75283380180069,3.1250246342847934,-5.427571638711468,-0.013807659943944601,-0.9449641932034327,9.589074387927127,-0.2563368923866043,-0.14089714438542125,0.830122225479803,-16.21902124587667,25.781723295307494,-59.0625
1772913258.1227083,39.49957952142894,2.3469942262200183,-6.037758708852747,-0.017623423300240703,-0.9476795012637236,9.62618024428578,-0.2983485088579781,-0.20001088407398343,0.7952156404399164,-16.233288400514642,30.29902851504841,-64.5625
1772913258.1386962,39.49957952142894,2.3469942262200183,-6.037758708852747,-0.017623423300240703,-0.9476795012637236,9.62618024428578,-0.2983485088579781,-0.20001088407398343,0.7952156404399164,-16.233288400514642,30.29902851504841,-64.5625
1772913258.1574101,41.23141033764036,1.5911755222247836,-6.256336126189096,-0.020162771188986184,-0.9494865084458688,9.65087377719289,-0.23372781213495122,-0.2557995505375833,0.7461282552275759,-16.233288400514642,30.29902851504841,-64.5625
1772913258.1913052,42.908573781460824,0.8295441066074456,-6.30590548722742,0.0644366455983593,-0.8690529357500864,9.68737771774165,-0.19277684519000676,-0.27181906909595577,0.7155849933176751,-15.99260982492291,34.04234072794905,-66.875
1772913258.2110252,44.114398474246734,0.28227232653228723,-6.31847180788277,0.13046360839980192,-0.817993793287997,9.711670682401117,-0.15155755460960987,-0.2867812730262731,0.6915867161027531,-15.99260982492291,34.04234072794905,-66.875
1772913258.248288,45.61040103671684,-0.2806892372461792,-6.3300822246708695,0.17028964513286882,-0.8002261642922557,9.788049389743543,-0.1286734809257561,-0.24982320078560588,0.6370451769779303,-15.833378216681913,36.19429223644942,-69.25
1772913258.2742891,45.61040103671684,-0.2806892372461792,-6.3300822246708695,0.17028964513286882,-0.8002261642922557,9.788049389743543,-0.1286734809257561,-0.24982320078560588,0.6370451769779303,-15.833378216681913,36.19429223644942,-69.25
1772913258.3154988,46.9238352981478,-0.697078497969866,-6.345298898084813,0.15464311183630194,-0.7777051651243538,9.838878566273863,-0.12054387229341107,-0.19561585120558564,0.5606870222031783,-15.833378216681913,36.19429223644942,-69.25
1772913258.3492126,48.53275148998393,-0.9064539384933462,-6.430022843706977,0.11582336113393457,-0.7658620166141655,9.819183028138575,-0.05670549676623867,-0.09927571564090386,0.5672320068981571,-16.365777066315335,39.940351194195415,-72.0
1772913258.394819,48.53275148998393,-0.9064539384933462,-6.430022843706977,0.11582336113393457,-0.7658620166141655,9.819183028138575,-0.05670549676623867,-0.09927571564090386,0.5672320068981571,-16.365777066315335,39.940351194195415,-72.0
1772913258.4403832,52.22678593364832,-0.5608875169317824,-6.256835330616033,0.03242140669094026,-0.780439505454367,9.635787059295476,0.051303729331307196,-0.006267323097932605,0.5465062220307244,-14.957795446958356,43.70983312273054,-75.875
1772913258.4929912,53.461304314714845,-0.3713303211088636,-6.129894943729009,0.004384352747678015,-0.7911028402413129,9.650576781852047,0.031326610794540605,0.030313901009374814,0.5672320068981571,-14.957795446958356,43.70983312273054,-75.875
1772913258.551064,54.99107074187558,-0.21169104392619692,-6.01267931361965,-0.0012556619368449535,-0.7876983441340172,9.687180070659975,-0.027490180329434254,0.006976414521762835,0.559596191420682,-14.225345967607593,45.07150223092049,-75.875
1772913258.5949054,56.11456090139561,-0.1456418386714882,-6.060768061596423,-0.0033633609295863997,-0.7789480260274111,9.738300044134679,-0.01907960304625645,-0.008662921004875713,0.4799655442984406,-14.225345967607593,45.07150223092049,-75.875
1772913258.631869,57.18841330067078,-0.022515797791340646,-5.902313979318781,0.007576497260657639,-0.7244898072405661,9.772319815434575,0.06880535039235813,0.005046874433958267,0.4908738521234052,-13.518150622276197,47.85816685795073,-79.75
1772913258.6609955,58.03555531038549,0.12842355749495454,-5.728337897520817,0.014709839986614622,-0.7296249565086446,9.811685151745506,0.10461356342081733,0.030847213381905502,0.5137812985558308,-13.518150622276197,47.85816685795073,-79.75
1772913258.7094495,58.03555531038549,0.12842355749495454,-5.728337897520817,0.014709839986614622,-0.7296249565086446,9.811685151745506,0.10461356342081733,0.030847213381905502,0.5137812985558308,-13.518150622276197,47.85816685795073,-79.75
1772913258.7647314,60.08011143478975,0.6716524644925881,-5.681172662033609,-0.0098071381196482,-0.7270882332927068,9.855316281672371,-0.020574350564315287,0.09187784814289185,0.3567016658763411,-12.359812319060168,49.62760423330556,-79.75
1772913258.7898169,60.08011143478975,0.6716524644925881,-5.681172662033609,-0.0098071381196482,-0.7270882332927068,9.855316281672371,-0.020574350564315287,0.09187784814289185,0.3567016658763411,-12.359812319060168,49.62760423330556,-79.75
1772913258.8231976,61.263158226630395,0.998756082439985,-5.643210058155935,-0.051835405901138026,-0.758289387377973,9.835640711732253,0.006110858858761711,0.08172948973696352,0.19962203319685143,-11.828137975439919,49.94404521095539,-82.5625
1772913258.865024,61.41072128564819,1.046555132883707,-5.637003434215677,-0.06398111958297996,-0.8112050020846742,9.87055005942745,0.00440503756352019,0.04840010908259411,0.11999138607461016,-11.828137975439919,49.94404521095539,-82.5625
1772913258.882601,61.41072128564819,1.046555132883707,-5.637003434215677,-0.06398111958297996,-0.8112050020846742,9.87055005942745,0.00440503756352019,0.04840010908259411,0.11999138607461016,-11.828137975439919,49.94404521095539,-82.5625
1772913258.9181075,61.57466023758288,0.9759644620075699,-5.546088695522796,-0.07826582783515007,-0.8730971076254693,9.909242331047349,0.031939822735843816,-0.02048514087853655,0.018544123302439753,-9.94375926417894,51.27130436897481,-84.5
1772913258.9672558,61.48601495965242,0.8702923269110844,-5.518922776600554,-0.07431177583110984,-0.8998037550550615,9.859319104165936,0.01982065429759569,-0.006155463701651082,-0.039269908169872414,-7.867761233338615,51.06686690678383,-86.0625
1772913259.033673,61.31302384650165,0.9585168639502776,-5.427805709619372,-0.042499410491462095,-0.9249822355818795,9.826095754355341,0.029480305173882695,0.031907862908334805,-0.030543261909900768,-7.867761233338615,51.06686690678383,-86.0625
1772913259.0730038,61.17172805841801,0.7705112213476465,-5.480574708563527,-0.03531681282742151,-0.9968578769226911,9.89095889057583,-0.005839200324935155,-0.005270593226521315,-0.05235987755982989,-10.17783769286292,53.65203189207039,-86.0625
1772913259.1008978,61.175562352091,0.6782904022937221,-5.578314468245476,-0.03218254209359201,-1.0511749773093932,9.934124583161857,-0.019616250317161285,-0.01077755026098604,0.0,-10.17783769286292,53.65203189207039,-86.0625
1772913259.1412027,61.362768247056316,0.5902439223620156,-5.714725541417925,-0.09436554364548906,-1.1365842003197872,9.875877964995173,-0.028122707082866107,-0.02212370762038592,0.07526732399225546,-10.183331182553616,52.10587704162008,-87.1875
1772913259.1609719,61.494542910058996,0.5268221870063492,-5.795216798614191,-0.18438261638299158,-1.1810805758242962,9.837115491262603,-0.06502019456688944,-0.05665088722822688,0.10799224746714914,-10.183331182553616,52.10587704162008,-87.1875
1772913259.1832366,61.62247818885084,0.4529601712777999,-5.919094098507068,-0.27022662864486696,-1.2041097455585983,9.80797438629146,-0.10868635769386707,-0.06019967924575216,0.10690141668465268,-10.183331182553616,52.10587704162008,-87.1875
1772913259.2035778,61.62247818885084,0.4529601712777999,-5.919094098507068,-0.27022662864486696,-1.2041097455585983,9.80797438629146,-0.10868635769386707,-0.06019967924575216,0.10690141668465268,-10.183331182553616,52.10587704162008,-87.1875
1772913259.2503734,61.83747257236211,0.3782643708450927,-6.17258266884693,-0.35005118378739525,-1.213675563545587,9.77854597133868,-0.12422981373797862,-0.04162476364289154,0.13199052468207118,-9.624571541683771,51.51270745057971,-86.5
1772913259.284678,62.2766749183358,0.5368761297610914,-6.760417229986035,-0.4154180347324618,-1.2410921647047228,9.75896168992454,-0.11153870330294251,0.0305569346140665,0.12217304763960307,-9.624571541683771,51.51270745057971,-86.5
1772913259.302037,62.2766749183358,0.5368761297610914,-6.760417229986035,-0.4154180347324618,-1.2410921647047228,9.75896168992454,-0.11153870330294251,0.0305569346140665,0.12217304763960307,-9.624571541683771,51.51270745057971,-86.5
1772913259.3259242,62.33666640806722,0.7104436236023188,-7.05486117778136,-0.5140385876531048,-1.245349430410536,9.72585789917027,-0.07494149928188058,0.05503163529850615,-0.007635815477475192,-13.50167015320411,52.496631409301656,-85.6875
1772913259.3458545,62.33666640806722,0.7104436236023188,-7.05486117778136,-0.5140385876531048,-1.245349430410536,9.72585789917027,-0.07494149928188058,0.05503163529850615,-0.007635815477475192,-13.50167015320411,52.496631409301656,-85.6875
1772913259.3635473,62.19500225667714,0.7928103405359894,-7.1714649291922905,-0.5747324606278833,-1.2287286012472383,9.74062392499739,-0.0304703652485457,0.06175237120019694,-0.09272061651219876,-13.50167015320411,52.496631409301656,-85.6875
1772913259.3845978,61.930374583513995,0.8746038758764072,-7.185087404371105,-0.5721014017883367,-1.2113299718214037,9.76048588535998,0.004941684834425025,0.05051473833870444,-0.11562806294462433,-12.129014065632772,54.856491630851515,-86.0
1772913259.428132,61.680539551442074,0.8761558914148743,-7.208955578279802,-0.5614953030074342,-1.2192543737921544,9.787084244937926,-0.0073852224826316416,0.006375847595839988,-0.16580627893946132,-12.129014065632772,54.856491630851515,-86.0
1772913259.4490187,61.33863246324288,0.8281835982518502,-7.2232461957617815,-0.5259809016054228,-1.2075914880781264,9.804785156113905,-0.009279467844553062,-0.005522936948219228,-0.21271200258680892,-12.129014065632772,54.856491630851515,-86.0
1772913259.4656475,61.11093302099608,0.7903655801415548,-7.251775444505235,-0.5023464641942421,-1.1998299679184106,9.799839356232788,-0.02171489965951711,-0.005743320842408134,-0.21707532571679475,-12.129014065632772,54.856491630851515,-86.0
1772913259.4843643,61.11093302099608,0.7903655801415548,-7.251775444505235,-0.5023464641942421,-1.1998299679184106,9.799839356232788,-0.02171489965951711,-0.005743320842408134,-0.21707532571679475,-12.129014065632772,54.856491630851515,-86.0
1772913259.518065,60.812914974907585,0.7513469367693274,-7.330886704271538,-0.45738801864597667,-1.1882781061050183,9.766441976294235,-0.04256090875765896,0.009675630790041505,-0.17235126363444003,-12.129014065632772,54.856491630851515,-86.0
1772913259.5582232,60.47642636264581,0.6813001776808165,-7.396600041372485,-0.42664584146399137,-1.1773481391220002,9.734181057896349,-0.027774483878641173,0.0014215177460346006,-0.15707963267948966,-13.65979510422805,54.922564786347216,-86.375
1772913259.584003,60.25763532506414,0.5721074742959092,-7.435098607890283,-0.41586525836439625,-1.1538137046812718,9.712711777080626,-0.03904407656764268,-0.04298569663228227,-0.14180800172453928,-13.65979510422805,54.922564786347216,-86.375
1772913259.60626,60.073309116397816,0.4707711161200974,-7.50371139502641,-0.4045767312968287,-1.12194014151304,9.698424210525344,-0.05963774194408661,-0.03100701251945054,-0.09599310885968812,-13.65979510422805,54.922564786347216,-86.375
1772913259.6353793,60.00755463874604,0.4034718650731378,-7.525217327906494,-0.3938220106455152,-1.10155147516397,9.6922611062927,-0.018875199065822048,-0.02559593496751283,-0.018544123302439753,-13.13269866868338,53.95054338862178,-86.75
1772913259.6549418,60.01962578114105,0.369224491473709,-7.525421950259251,-0.38666486419016755,-1.0879830454649901,9.755061863418648,-0.009848074942966903,-0.0166327304996757,0.003272492347489368,-13.13269866868338,53.95054338862178,-86.75
1772913259.6799269,60.01962578114105,0.369224491473709,-7.525421950259251,-0.38666486419016755,-1.0879830454649901,9.755061863418648,-0.009848074942966903,-0.0166327304996757,0.003272492347489368,-13.13269866868338,53.95054338862178,-86.75
1772913259.7071114,59.98661897003604,0.33638630500655176,-7.566146350203961,-0.4144721937576963,-1.1121015537185879,9.806890400877501,-0.029684709154317097,-0.014974848945697686,-0.022907446432425576,-14.006983705587933,55.33307979835745,-86.25
1772913259.749753,59.94764733451551,0.3100938248658387,-7.593160809349843,-0.43380049484502037,-1.131394483528924,9.84138171359367,-0.009816115115457895,-0.007637566204329554,-0.007635815477475192,-14.006983705587933,55.33307979835745,-86.25
1772913259.7741346,60.01565992891937,0.3399917513119663,-7.626340492997001,-0.44584042941900603,-1.1409913808125982,9.86433529691307,-0.003912995135504728,0.015623355612884044,0.038179077387375956,-14.283712318978479,54.242645813867355,-88.0
1772913259.811657,60.01565992891937,0.3399917513119663,-7.626340492997001,-0.44584042941900603,-1.1409913808125982,9.86433529691307,-0.003912995135504728,0.015623355612884044,0.038179077387375956,-14.283712318978479,54.242645813867355,-88.0
1772913259.878977,60.389051305997256,0.24230622677143218,-7.90384363351249,-0.40872928762337485,-1.247248217657486,9.92320370426908,-0.052300459202718474,-0.05087560655830974,0.07417649320975901,-13.93011464631278,55.63597812738248,-87.0625
1772913259.9193516,60.51637292742801,0.12328334526231662,-8.03629137180993,-0.4133361896477563,-1.3325422108994323,9.92213202940335,-0.06572928599071967,-0.03283733822635394,0.039269908169872414,-13.93011464631278,55.63597812738248,-87.0625
1772913259.9494631,60.602936780095575,0.010154425644435977,-8.180404650855927,-0.4034327035266862,-1.392595746159046,9.877932389556449,-0.06937395749077199,-0.016156667985414732,0.02945243112740431,-14.673360029442991,55.50219172876279,-87.5625
1772913259.9823992,60.602936780095575,0.010154425644435977,-8.180404650855927,-0.4034327035266862,-1.392595746159046,9.877932389556449,-0.06937395749077199,-0.016156667985414732,0.02945243112740431,-14.673360029442991,55.50219172876279,-87.5625
1772913260.0234447,60.664540524438856,-0.04359386782188121,-8.392938272293124,-0.3406545486192953,-1.3743457379245736,9.81841201761479,-0.09388061800272066,0.011445371740301044,0.025089107997418487,-14.673360029442991,55.50219172876279,-87.5625
1772913260.0515907,60.68025254986921,0.12450039971050011,-8.530360674531664,-0.29887638780636666,-1.3622005613104822,9.778801874973736,-0.026745794179720873,0.06755961169762309,0.009817477042468103,-14.140770104207625,56.07632518148766,-87.5625
1772913260.0676937,60.68025254986921,0.12450039971050011,-8.530360674531664,-0.29887638780636666,-1.3622005613104822,9.778801874973736,-0.026745794179720873,0.06755961169762309,0.009817477042468103,-14.140770104207625,56.07632518148766,-87.5625
1772913260.0868475,60.70323666687754,0.154413074870278,-8.543867920785916,-0.3340886729302496,-1.5072325121847072,9.762477102642357,-0.002050709601092314,0.018526975861597118,0.022907446432425576,-14.140770104207625,56.07632518148766,-87.5625
1772913260.110566,60.7569345401628,0.16826132349014114,-8.54524716011076,-0.3737337152779811,-1.5996354859366673,9.751613149015482,0.006912494866744822,0.009499851738741969,0.031634092692397225,-14.140770104207625,56.07632518148766,-87.5625
1772913260.129087,60.7569345401628,0.16826132349014114,-8.54524716011076,-0.3737337152779811,-1.5996354859366673,9.751613149015482,0.006912494866744822,0.009499851738741969,0.031634092692397225,-14.140770104207625,56.07632518148766,-87.5625
1772913260.165729,60.810039727913214,0.26371787769664207,-8.571873870848862,-0.37378636366879325,-1.5573740091131194,9.700896857039957,-0.006452412266238366,0.045528448661390046,0.015271630954950384,-14.304388544922263,56.956103708082914,-88.0
1772913260.193513,60.7875395948833,0.41165573529890553,-8.651801833745688,-0.3803060645626719,-1.5276038006019608,9.653765284439071,-0.023493950726782866,0.08924255152963119,-0.00545415391248228,-14.304388544922263,56.956103708082914,-88.0
1772913260.2272239,60.73833319841556,0.5746290506516286,-8.754183831491813,-0.38953285244339064,-1.5134538894823597,9.635780196196622,-0.029725979098832327,0.12233556837605719,-0.016362461737446838,-14.504248099037657,56.16856805261784,-88.0
1772913260.243627,60.73833319841556,0.5746290506516286,-8.754183831491813,-0.38953285244339064,-1.5134538894823597,9.635780196196622,-0.029725979098832327,0.12233556837605719,-0.016362461737446838,-14.504248099037657,56.16856805261784,-88.0
1772913260.2670333,60.67788945359173,0.7520663233270937,-8.853735139198802,-0.3981416783731095,-1.5137642776640006,9.660607549658385,-0.01683379958173596,0.10218267078799106,-0.02399827721492203,-14.504248099037657,56.16856805261784,-88.0
1772913260.2909997,60.71865828209417,0.7509233690180829,-8.84757653556656,-0.4161152570588722,-1.5350214936776025,9.677129876047479,0.04440721437831687,-0.011269592689001504,0.026179938779914945,-14.530417814672138,57.335871096383094,-88.0
1772913260.3228831,60.68492002768,0.7342144292323393,-8.840996702076515,-0.4280764728962178,-1.549167933475993,9.711541081644176,-0.012751695191679976,-0.014770444965263283,-0.002181661564992912,-14.530417814672138,57.335871096383094,-88.0
1772913260.3747985,60.694733958909886,0.7336808689540127,-8.850810633306402,-0.5058201715297268,-1.5615795453023134,9.670884232131357,-0.005538916861973732,0.004781885696879992,0.002181661564992912,-14.438174943541956,57.69934909121312,-88.25
1772913260.3991225,60.694407278995726,0.7366222556869885,-8.866124192780374,-0.5275049091628619,-1.5602103454880212,9.670588446605898,-0.0015620020714509904,0.0071488586746882325,0.0,-14.438174943541956,57.69934909121312,-88.25
1772913260.4417734,60.73076703907869,0.7210651673749459,-8.853504912905272,-0.541935859823322,-1.5592991583065738,9.670391604642845,-0.002635296613260657,0.002919600162467577,0.018544123302439753,-13.137085501157017,56.982273423717395,-88.0
1772913260.5023646,60.74195527483097,0.7061576397835402,-8.821623865589988,-0.5034823325152,-1.5053168045093455,9.670260608515303,-0.010336782472608226,-0.005254613312766812,0.004363323129985824,-13.137085501157017,56.982273423717395,-88.0
1772913260.5357141,60.722519856841686,0.7007482866745228,-8.850876048756705,-0.4778919396456904,-1.4693921510796935,9.70027943742162,-0.01686909430761911,0.01778592461025788,-0.020725784867432664,-13.044842630026835,57.34575141854743,-88.6875
1772913260.56532,60.73257875967554,0.6998601188458122,-8.825826129797603,-0.45989197447266544,-1.4008658780054168,9.660044621994736,0.010052478923401305,-0.0003002834629614233,0.0,-13.044842630026835,57.34575141854743,-88.6875
1772913260.5816376,60.72905917408768,0.6910171669677292,-8.814353623659963,-0.45764019468967443,-1.3527939070980382,9.723586817878104,0.01106185381019296,-0.014061353541433053,0.002181661564992912,-13.044842630026835,57.34575141854743,-88.6875
1772913260.6100013,60.72905917408768,0.6910171669677292,-8.814353623659963,-0.44641466443125094,-1.323271049123353,9.695626093571942,-0.008474496938195812,-0.002350993064053737,0.007635815477475192,-13.940910550092232,56.86386083695273,-87.5625
1772913260.6456954,60.738435557198905,0.69731350230994,-8.810152284452426,-0.47737237437211644,-1.3870527111931834,9.677018543887948,0.0023989328053172472,0.005018249504823401,-0.004363323129985824,-13.940910550092232,56.86386083695273,-87.5625
1772913260.666784,60.738435557198905,0.69731350230994,-8.810152284452426,-0.47737237437211644,-1.3870527111931834,9.677018543887948,0.0023989328053172472,0.005018249504823401,-0.004363323129985824,-13.940910550092232,56.86386083695273,-87.5625
1772913260.6998384,60.738836204044446,0.6917784734287814,-8.814394015198342,-0.49797438451748327,-1.429498694812806,9.664635427433199,0.00897918438159164,-0.004529541975182077,-0.008726646259971648,-13.940910550092232,56.86386083695273,-87.5625
1772913260.7320585,60.738836204044446,0.6917784734287814,-8.814394015198342,-0.510861958241334,-1.4545036907700026,9.709916389078147,-0.006075564132878565,0.002667256440769664,0.002181661564992912,-13.940910550092232,56.86386083695273,-88.0
1772913260.7500222,60.73811434260457,0.7002611919222543,-8.82546479781638,-0.5324078225467536,-1.4678529007019774,9.740050363231378,-0.0021306091698648304,-0.003960934876768238,0.001090830782496456,-13.940910550092232,56.86386083695273,-88.0
1772913260.7723145,60.73815418545656,0.6989675287277548,-8.835241720141816,-0.5297118607257921,-1.477608488244095,9.72999818104593,0.003960934876768238,-0.0021306091698648304,-0.004363323129985824,-13.940910550092232,56.86386083695273,-88.0
1772913260.7882874,60.73815418545656,0.6989675287277548,-8.835241720141816,-0.5297118607257921,-1.477608488244095,9.72999818104593,0.003960934876768238,-0.0021306091698648304,-0.004363323129985824,-13.940910550092232,56.86386083695273,-88.0
1772913260.8290648,60.73815418545656,0.6989675287277548,-8.835241720141816,-0.524675396260852,-1.4849235566646788,9.723308566091747,0.005018249504823402,-0.0023989328053172472,-0.002181661564992912,-14.048527233077444,56.439803176317696,-88.75
1772913260.8531559,60.73779234672824,0.7032087338822668,-8.840777016785477,-0.5196780176437125,-1.483306989005995,9.725546925482272,-0.002114629256110327,0.0005366472709048334,0.0,-14.048527233077444,56.439803176317696,-88.75
1772913260.8759236,60.73229669522153,0.7015128251026016,-8.850916066452031,-0.516352317998383,-1.4822311812873847,9.727036528652553,-0.0021306091698648304,-0.003960934876768238,0.001090830782496456,-14.048527233077444,56.439803176317696,-88.75
1772913260.907799,60.73229669522153,0.7015128251026016,-8.850916066452031,-0.5173814340238725,-1.480692409379851,9.728027842922419,0.0029196001624675776,0.0026352966132606576,-0.002181661564992912,-14.893895809502173,57.428113967513276,-87.5625
1772913260.9395828,60.73229669522153,0.7015128251026016,-8.850916066452031,-0.5115326317004667,-1.4675218797971257,9.728687551495309,-0.002114629256110327,0.0005366472709048334,0.0,-14.893895809502173,57.428113967513276,-87.5625
1772913260.9730804,60.73229669522153,0.7015128251026016,-8.850916066452031,-0.5115326317004667,-1.4675218797971257,9.728687551495309,-0.002114629256110327,0.0005366472709048334,0.0,-14.893895809502173,57.428113967513276,-87.5625
1772913261.019965,60.731934164201355,0.7057538003501174,-8.856451681524716,-0.5108826510786001,-1.4579342055959192,9.729126580181138,-0.0010573146280551636,0.0002683236354524167,0.001090830782496456,-14.60728687394729,57.03297276735807,-88.75
1772913261.0497663,60.73157122596073,0.7099947069037141,-8.861987284571665,-0.50720776424655,-1.4523765494047127,9.736108972281924,-0.0010573146280551636,0.0002683236354524167,0.001090830782496456,-14.60728687394729,57.03297276735807,-88.75
1772913261.0856612,60.731973930219034,0.7044595640035893,-8.86622848839121,-0.5105220053295039,-1.471374315215252,9.73406545281193,-0.0005366472709048334,-0.002114629256110327,0.001090830782496456,-13.638012221067205,56.78699177767758,-88.25
1772913261.1117005,60.731973930219034,0.7044595640035893,-8.86622848839121,-0.5102590940826363,-1.4742901201763454,9.739395736846895,0.001593961898959997,0.0018463056206579104,-0.001090830782496456,-13.638012221067205,56.78699177767758,-88.25
1772913261.1453311,60.7358520434609,0.7090638624189222,-8.872167038562548,-0.510084129584757,-1.4762305558062776,9.742942981328989,0.0,0.0,0.0,-14.304388544922263,56.956103708082914,-88.75
1772913261.1714907,60.7358520434609,0.7090638624189222,-8.872167038562548,-0.510084129584757,-1.4762305558062776,9.742942981328989,0.0,0.0,0.0,-14.304388544922263,56.956103708082914,-88.75
1772913261.1970234,60.7358520434609,0.7090638624189222,-8.872167038562548,-0.5099676926658998,-1.477521894041911,9.745303632906506,-0.0013256382635075804,-0.0007889909926027469,0.0,-14.304388544922263,56.956103708082914,-88.75
1772913261.2239478,60.7358520434609,0.7090638624189222,-8.872167038562548,-0.5090673713087278,-1.4751389332235747,9.750219731868457,0.0002683236354524167,0.0010573146280551636,-0.002181661564992912,-14.227519485647111,57.25900203710794,-88.25
1772913261.2379625,60.7358520434609,0.7090638624189222,-8.872167038562548,-0.5090673713087278,-1.4751389332235747,9.750219731868457,0.0002683236354524167,0.0010573146280551636,-0.002181661564992912,-14.227519485647111,57.25900203710794,-88.25
1772913261.2686985,60.7358520434609,0.7090638624189222,-8.872167038562548,-0.5052258855138213,-1.4743759333067468,9.746801117396574,0.0002683236354524167,0.0010573146280551636,0.0,-14.227519485647111,57.25900203710794,-88.25
1772913261.291905,60.73548833601388,0.7133050553239074,-8.877702662817809,-0.5026694196295189,-1.4738681653853651,9.744526067653961,-0.002114629256110327,0.0005366472709048334,-0.001090830782496456,-12.773607506326986,56.89003055258721,-88.0
1772913261.3143895,60.73548833601388,0.7133050553239074,-8.877702662817809,-0.5034366218061855,-1.4832572474726964,9.736321824049584,0.0002683236354524167,0.0010573146280551636,0.001090830782496456,-12.773607506326986,56.89003055258721,-88.0
1772913261.330727,60.73548833601388,0.7133050553239074,-8.877702662817809,-0.5034366218061855,-1.4832572474726964,9.736321824049584,0.0002683236354524167,0.0010573146280551636,0.001090830782496456,-12.773607506326986,56.89003055258721,-88.0
1772913261.3580263,60.73548833601388,0.7133050553239074,-8.877702662817809,-0.5039471862845473,-1.4895055767188963,9.737552214992917,-0.0005366472709048334,-0.002114629256110327,-0.001090830782496456,-12.773607506326986,56.89003055258721,-88.0
1772913261.3860798,60.73548833601388,0.7133050553239074,-8.877702662817809,-0.5018184595764436,-1.4839367740669598,9.748406361543294,-0.002651276527015161,-0.0015779819852054938,0.001090830782496456,-13.638012221067205,56.78699177767758,-87.5625
1772913261.4055371,60.735527675312845,0.7120110363552354,-8.887479703194678,-0.5101288116985072,-1.477762296444623,9.755629674823808,0.002382952891562744,0.0005206673571503302,-0.002181661564992912,-13.638012221067205,56.78699177767758,-87.5625
1772913261.42764,60.735527675312845,0.7120110363552354,-8.887479703194678,-0.5101288116985072,-1.477762296444623,9.755629674823808,0.002382952891562744,0.0005206673571503302,-0.002181661564992912,-13.638012221067205,56.78699177767758,-87.5625
1772913261.4617326,60.735527675312845,0.7120110363552354,-8.887479703194678,-0.5220805498714532,-1.4817188618422603,9.754719378861333,-0.0018622855344124138,-0.0029036202487130744,-0.001090830782496456,-14.590997480477146,57.35124490823812,-88.0
1772913261.5021174,60.735527675312845,0.7120110363552354,-8.887479703194678,-0.5228391761235744,-1.4868361304900182,9.749795582205982,0.0005366472709048334,0.002114629256110327,-0.002181661564992912,-14.590997480477146,57.35124490823812,-88.0
1772913261.5414734,60.735527675312845,0.7120110363552354,-8.887479703194678,-0.5233440334199506,-1.4902416156114644,9.746518850534258,0.0,0.0,0.0,-14.590997480477146,57.35124490823812,-88.0
1772913261.568033,60.735527675312845,0.7120110363552354,-8.887479703194678,-0.5236800103110635,-1.4925079279180258,9.754373557332174,-0.002382952891562744,-0.0005206673571503302,0.004363323129985824,-13.771798619686898,57.53023716080779,-87.5625
1772913261.5862136,60.735527675312845,0.7120110363552354,-8.887479703194678,-0.5236800103110635,-1.4925079279180258,9.754373557332174,-0.002382952891562744,-0.0005206673571503302,0.004363323129985824,-13.771798619686898,57.53023716080779,-87.5625
1772913261.613972,60.735527675312845,0.7120110363552354,-8.887479703194678,-0.5271949347324241,-1.5069854613975036,9.759600776963364,0.0007889909926027469,-0.0013256382635075802,-0.002181661564992912,-13.771798619686898,57.53023716080779,-87.5625
1772913261.6352596,60.735527675312845,0.7120110363552354,-8.887479703194678,-0.529534077670561,-1.5166200982034501,9.76307943323605,0.003171943884165491,-0.0008049709063572502,0.001090830782496456,-13.86404149081708,57.16675916597776,-88.0
1772913261.6673503,60.735527675312845,0.7120110363552354,-8.887479703194678,-0.5180724196456483,-1.5125310150811089,9.762049328419069,-0.0002683236354524167,-0.0010573146280551636,0.001090830782496456,-13.86404149081708,57.16675916597776,-88.0
1772913261.6813707,60.735527675312845,0.7120110363552354,-8.887479703194678,-0.5180724196456483,-1.5125310150811089,9.762049328419069,-0.0002683236354524167,-0.0010573146280551636,0.001090830782496456,-13.86404149081708,57.16675916597776,-88.0
1772913261.6958513,60.735527675312845,0.7120110363552354,-8.887479703194678,-0.5104448142651783,-1.509809775941242,9.761363805170392,-0.002114629256110327,0.0005366472709048334,0.0,-13.86404149081708,57.16675916597776,-88.0
1772913261.709147,60.735527675312845,0.7120110363552354,-8.887479703194678,-0.5104448142651783,-1.509809775941242,9.761363805170392,-0.002114629256110327,0.0005366472709048334,0.0,-13.86404149081708,57.16675916597776,-88.0
1772913261.7229233,60.735527675312845,0.7120110363552354,-8.887479703194678,-0.5086110600793676,-1.5071759878035356,9.744182038569598,-0.0008049709063572502,-0.003171943884165491,-0.002181661564992912,-13.638012221067205,56.78699177767758,-88.75
1772913261.741573,60.735527675312845,0.7120110363552354,-8.887479703194678,-0.5065678832647289,-1.5021808992302759,9.732747764829677,-0.0005366472709048334,-0.002114629256110327,0.0,-13.638012221067205,56.78699177767758,-88.75
1772913261.763694,60.735527675312845,0.7120110363552354,-8.887479703194678,-0.5065678832647289,-1.5021808992302759,9.732747764829677,-0.0005366472709048334,-0.002114629256110327,0.0,-13.638012221067205,56.78699177767758,-88.75
1772913261.7867768,60.735527675312845,0.7120110363552354,-8.887479703194678,-0.5052081719183673,-1.4988567235835673,9.738518830214245,0.0,0.0,0.002181661564992912,-14.048527233077444,56.439803176317696,-88.25
1772913261.8075547,60.735527675312845,0.7120110363552354,-8.887479703194678,-0.5052081719183673,-1.4988567235835673,9.738518830214245,0.0,0.0,0.002181661564992912,-14.048527233077444,56.439803176317696,-88.25
1772913261.8339317,60.735527675312845,0.7120110363552354,-8.887479703194678,-0.5051261330946928,-1.4998868538131147,9.74235940976065,0.0,0.0,-0.004363323129985824,-14.048527233077444,56.439803176317696,-88.25
1772913261.8542647,60.735527675312845,0.7120110363552354,-8.887479703194678,-0.5051261330946928,-1.4998868538131147,9.74235940976065,0.0,0.0,-0.004363323129985824,-14.048527233077444,56.439803176317696,-88.25
1772913261.8770518,60.735527675312845,0.7120110363552354,-8.887479703194678,-0.5115562011518854,-1.4989267261968535,9.741570160839379,-0.0018463056206579104,0.001593961898959997,0.001090830782496456,-13.745628904052417,56.36293411704254,-88.75
1772913261.8980808,60.735527675312845,0.7120110363552354,-8.887479703194678,-0.5158353396153804,-1.49828777199356,9.74104492449876,-0.0005206673571503302,0.002382952891562744,0.0,-13.745628904052417,56.36293411704254,-88.75
1772913261.9190807,60.735527675312845,0.7120110363552354,-8.887479703194678,-0.5178602245733696,-1.4946202231198973,9.737350273874034,-0.0005206673571503302,0.002382952891562744,0.0,-14.60728687394729,57.03297276735807,-89.0625
1772913261.9523075,60.735527675312845,0.7120110363552354,-8.887479703194678,-0.5178602245733696,-1.4946202231198973,9.737350273874034,-0.0005206673571503302,0.002382952891562744,0.0,-14.60728687394729,57.03297276735807,-89.0625
1772913261.9778037,60.735527675312845,0.7120110363552354,-8.887479703194678,-0.515965430904507,-1.493002344202038,9.73489152515523,0.032767443352703846,0.1379875489180761,-0.001090830782496456,-14.60728687394729,57.03297276735807,-89.0625
1772913262.0093834,60.735527675312845,0.7120110363552354,-8.887479703194678,-0.5147044668841112,-1.4919256638550944,9.73325525534889,-0.0013256382635075804,-0.0007889909926027469,0.0,-14.304388544922263,56.956103708082914,-88.0
1772913262.0246506,60.735527675312845,0.7120110363552354,-8.887479703194678,-0.5147044668841112,-1.4919256638550944,9.73325525534889,-0.0013256382635075804,-0.0007889909926027469,0.0,-14.304388544922263,56.956103708082914,-88.0
1772913262.0553846,60.735527675312845,0.7120110363552354,-8.887479703194678,-0.5138653094144289,-1.491209145111511,9.735511447778421,0.0002683236354524167,0.0010573146280551636,0.0,-14.304388544922263,56.956103708082914,-88.0
1772913262.077139,60.735527675312845,0.7120110363552354,-8.887479703194678,-0.5133068594923583,-1.4907323098916951,9.740358030344272,0.0005366472709048334,0.002114629256110327,0.001090830782496456,-14.048527233077444,56.439803176317696,-89.0625
1772913262.0949814,60.735527675312845,0.7120110363552354,-8.887479703194678,-0.513758051195873,-1.4936573133684632,9.740238265194652,0.0013256382635075804,0.0007889909926027469,-0.001090830782496456,-14.048527233077444,56.439803176317696,-89.0625
1772913262.1119854,60.735527675312845,0.7120110363552354,-8.887479703194678,-0.513758051195873,-1.4936573133684632,9.740238265194652,0.0013256382635075804,0.0007889909926027469,-0.001090830782496456,-14.048527233077444,56.439803176317696,-89.0625
1772913262.1303763,60.735527675312845,0.7120110363552354,-8.887479703194678,-0.5140583142344205,-1.4956038705078225,9.736813451118126,0.0005366472709048334,0.002114629256110327,0.001090830782496456,-14.048527233077444,56.439803176317696,-89.0625
1772913262.1598752,60.735527675312845,0.7120110363552354,-8.887479703194678,-0.5134353020440577,-1.4936569505506412,9.734534275607876,-0.0002683236354524167,-0.0010573146280551636,0.001090830782496456,-13.93011464631278,55.63597812738248,-87.5625
1772913262.1834524,60.735527675312845,0.7120110363552354,-8.887479703194678,-0.5130206943908734,-1.4923612970676576,9.736362621473184,-0.0007889909926027469,0.0013256382635075802,0.0,-13.93011464631278,55.63597812738248,-87.5625
1772913262.2115183,60.735527675312845,0.7120110363552354,-8.887479703194678,-0.5159871096181073,-1.4906762202597719,9.740924476929903,0.0010573146280551636,-0.0002683236354524167,-0.001090830782496456,-13.93011464631278,55.63597812738248,-87.5625
1772913262.2354634,60.735527675312845,0.7120110363552354,-8.887479703194678,-0.5171383919264441,-1.4863124884787082,9.740615229069766,0.0008049709063572502,0.003171943884165491,-0.001090830782496456,-13.468900290661871,57.45336810153264,-89.5625
1772913262.2595298,60.735527675312845,0.7120110363552354,-8.887479703194678,-0.5171383919264441,-1.4863124884787082,9.740615229069766,0.0008049709063572502,0.003171943884165491,-0.001090830782496456,-13.468900290661871,57.45336810153264,-89.5625
1772913262.2879503,60.735527675312845,0.7120110363552354,-8.887479703194678,-0.5187273913303342,-1.486650805713445,9.74040942807337,0.0002683236354524167,0.0010573146280551636,-0.002181661564992912,-13.468900290661871,57.45336810153264,-89.5625
1772913262.316053,60.735527675312845,0.7120110363552354,-8.887479703194678,-0.5189620187949786,-1.4836336200649545,9.740272469809216,0.0010573146280551636,-0.0002683236354524167,-0.002181661564992912,-14.412005227907475,56.53204604744788,-88.25
1772913262.3526661,60.735527675312845,0.7120110363552354,-8.887479703194678,-0.5189620187949786,-1.4836336200649545,9.740272469809216,0.0010573146280551636,-0.0002683236354524167,-0.002181661564992912,-14.412005227907475,56.53204604744788,-88.25
1772913262.376437,60.735527675312845,0.7120110363552354,-8.887479703194678,-0.5158758287627817,-1.4824485506084142,9.733491102199707,-0.0007889909926027469,0.0013256382635075802,0.001090830782496456,-14.412005227907475,56.53204604744788,-88.25
1772913262.3981977,60.735527675312845,0.7120110363552354,-8.887479703194678,-0.5170643357603134,-1.4808370662348216,9.728978177808418,-0.0002683236354524167,-0.0010573146280551636,0.002181661564992912,-13.86404149081708,57.16675916597776,-88.0
1772913262.4256778,60.735527675312845,0.7120110363552354,-8.887479703194678,-0.5154357757900788,-1.4838298072629712,9.725974877038684,0.0,0.0,-0.001090830782496456,-13.86404149081708,57.16675916597776,-88.0
1772913262.4514987,60.735527675312845,0.7120110363552354,-8.887479703194678,-0.5154357757900788,-1.4838298072629712,9.725974877038684,0.0,0.0,-0.001090830782496456,-13.86404149081708,57.16675916597776,-88.0
1772913262.4849935,60.735527675312845,0.7120110363552354,-8.887479703194678,-0.5143519873220945,-1.4858214429860968,9.727321325632815,0.0007889909926027469,-0.0013256382635075802,0.0,-13.638012221067205,56.78699177767758,-89.0625
1772913262.5094411,60.735527675312845,0.7120110363552354,-8.887479703194678,-0.5136307382033615,-1.4871468543118083,9.731562483838712,0.0,0.0,0.002181661564992912,-13.638012221067205,56.78699177767758,-89.0625
1772913262.5227666,60.735527675312845,0.7120110363552354,-8.887479703194678,-0.5136307382033615,-1.4871468543118083,9.731562483838712,0.0,0.0,0.002181661564992912,-13.638012221067205,56.78699177767758,-89.0625
1772913262.5437498,60.735527675312845,0.7120110363552354,-8.887479703194678,-0.5131507549717251,-1.4880289007432543,9.734384927247893,0.0002683236354524167,0.0010573146280551636,0.002181661564992912,-13.638012221067205,56.78699177767758,-89.0625
1772913262.5648255,60.735527675312845,0.7120110363552354,-8.887479703194678,-0.5128313314928352,-1.4886158927902777,9.736263231807946,0.0010573146280551636,-0.0002683236354524167,0.0,-13.940910550092232,56.86386083695273,-88.25
1772913262.5805967,60.735527675312845,0.7120110363552354,-8.887479703194678,-0.5128313314928352,-1.4886158927902777,9.736263231807946,0.0010573146280551636,-0.0002683236354524167,0.0,-13.940910550092232,56.86386083695273,-88.25
1772913262.6030083,60.735527675312845,0.7120110363552354,-8.887479703194678,-0.515861090724785,-1.4881836955520826,9.734168110803305,-0.0005206673571503302,0.002382952891562744,0.002181661564992912,-13.940910550092232,56.86386083695273,-88.25
1772913262.6213114,60.735527675312845,0.7120110363552354,-8.887479703194678,-0.5146350296600624,-1.4887189070063815,9.73277383117875,0.0,0.0,0.0,-13.940910550092232,56.86386083695273,-88.25
1772913262.645089,60.735527675312845,0.7120110363552354,-8.887479703194678,-0.513819099717489,-1.4890750842505138,9.738536177078373,0.0002683236354524167,0.0010573146280551636,-0.001090830782496456,-13.638012221067205,56.78699177767758,-88.75
1772913262.6594527,60.735527675312845,0.7120110363552354,-8.887479703194678,-0.513819099717489,-1.4890750842505138,9.738536177078373,0.0002683236354524167,0.0010573146280551636,-0.001090830782496456,-13.638012221067205,56.78699177767758,-88.75
1772913262.6736755,60.735527675312845,0.7120110363552354,-8.887479703194678,-0.5124532735668829,-1.4860697842387662,9.74237095390495,-0.0002683236354524167,-0.0010573146280551636,0.002181661564992912,-13.638012221067205,56.78699177767758,-88.75
1772913262.6896665,60.735527675312845,0.7120110363552354,-8.887479703194678,-0.5115443315209323,-1.484069790652349,9.744922955045773,0.0,0.0,0.001090830782496456,-13.638012221067205,56.78699177767758,-88.75
1772913262.7111151,60.735527675312845,0.7120110363552354,-8.887479703194678,-0.5115443315209323,-1.484069790652349,9.744922955045773,0.0,0.0,0.001090830782496456,-13.638012221067205,56.78699177767758,-88.75
1772913262.7492008,60.735527675312845,0.7120110363552354,-8.887479703194678,-0.5085199426423012,-1.4868039831392958,9.743276171589951,-0.0018463056206579104,0.001593961898959997,0.0,-14.140770104207625,56.07632518148766,-88.75
1772913262.7785885,60.735527675312845,0.7120110363552354,-8.887479703194678,-0.5129919096061238,-1.4869778899197112,9.745525367303197,0.0005366472709048334,0.002114629256110327,0.002181661564992912,-14.140770104207625,56.07632518148766,-88.75
1772913262.8131933,60.735527675312845,0.7120110363552354,-8.887479703194678,-0.5129919096061238,-1.4869778899197112,9.745525367303197,0.0005366472709048334,0.002114629256110327,0.002181661564992912,-14.140770104207625,56.07632518148766,-88.75
1772913262.8688312,60.735527675312845,0.7120110363552354,-8.887479703194678,-0.5049906066060613,-1.4904590700310532,9.743566026387878,-0.002382952891562744,-0.0005206673571503302,0.0,-14.807146428062683,56.245437111893,-88.0
1772913262.8923905,60.735527675312845,0.7120110363552354,-8.887479703194678,-0.5049906066060613,-1.4904590700310532,9.743566026387878,-0.002382952891562744,-0.0005206673571503302,0.0,-14.807146428062683,56.245437111893,-88.0
1772913262.92256,60.735527675312845,0.7120110363552354,-8.887479703194678,-0.5041585119213589,-1.4910559771928962,9.739028039018688,0.001593961898959997,0.0018463056206579104,0.002181661564992912,-13.940910550092232,56.86386083695273,-87.875
1772913262.952541,60.735527675312845,0.7120110363552354,-8.887479703194678,-0.5036047622037959,-1.491453212241213,9.742698282531771,-0.0005366472709048334,-0.002114629256110327,-0.001090830782496456,-13.940910550092232,56.86386083695273,-87.875
1772913262.9857397,60.735527675312845,0.7120110363552354,-8.887479703194678,-0.5036047622037959,-1.491453212241213,9.742698282531771,-0.0005366472709048334,-0.002114629256110327,-0.001090830782496456,-13.940910550092232,56.86386083695273,-87.875
1772913263.036004,60.735527675312845,0.7120110363552354,-8.887479703194678,-0.5064785799415046,-1.4908947338401033,9.745140788590422,-0.0002683236354524167,-0.0010573146280551636,0.0,-14.304388544922263,56.956103708082914,-88.75
1772913263.0791833,60.735527675312845,0.7120110363552354,-8.887479703194678,-0.5116334055322592,-1.4897002388144192,9.746766249087875,0.0,0.0,0.0,-14.304388544922263,56.956103708082914,-88.75
1772913263.0993273,60.735527675312845,0.7120110363552354,-8.887479703194678,-0.510175884614058,-1.483243485628654,9.744502863184026,0.0,0.0,0.0,-15.317953470137208,57.535730650498486,-88.25
1772913263.1138875,60.735527675312845,0.7120110363552354,-8.887479703194678,-0.510175884614058,-1.483243485628654,9.744502863184026,0.0,0.0,0.0,-15.317953470137208,57.535730650498486,-88.25
1772913263.136859,60.735527675312845,0.7120110363552354,-8.887479703194678,-0.5092059207245706,-1.4789465885101862,9.742996605148692,0.0002683236354524167,0.0010573146280551636,-0.001090830782496456,-15.317953470137208,57.535730650498486,-88.25
1772913263.151407,60.735527675312845,0.7120110363552354,-8.887479703194678,-0.5085604205913234,-1.4760870514773319,9.741994207252182,-0.0007889909926027469,0.0013256382635075802,0.001090830782496456,-15.317953470137208,57.535730650498486,-88.25
1772913263.1787157,60.735527675312845,0.7120110363552354,-8.887479703194678,-0.5015971799209664,-1.4620375674576187,9.74467223435689,0.006327907854576478,-0.006107523960387572,0.0,-14.227519485647111,57.25900203710794,-88.0
1772913263.2083287,60.735527675312845,0.7120110363552354,-8.887479703194678,-0.501900224369488,-1.4721417847192622,9.746454431479552,0.0029196001624675776,0.0026352966132606576,0.0,-14.227519485647111,57.25900203710794,-88.0
