timestamp,yaw,pitch,roll,ax,ay,az,gx,gy,gz,mx,my,mz
1772907942.275382,0.0,0.0,0.0,-0.16149690601752142,-1.5734474580840596,9.607806816732221,-0.001090830782496456,0.0,-0.001090830782496456,-7.5625,9.75,-101.5625
1772907942.2909384,-0.07693556147119229,0.9481076761128442,-9.27841829867347,-0.16434128594044403,-1.575639356551631,9.662062248351866,-0.001090830782496456,0.0,0.001090830782496456,-7.5625,9.75,-101.5625
1772907942.3028736,-0.07693556147119229,0.9481076761128442,-9.27841829867347,-0.16434128594044403,-1.575639356551631,9.662062248351866,-0.001090830782496456,0.0,0.001090830782496456,-7.5625,9.75,-101.5625
1772907942.3145936,-0.07693556147119229,0.9481076761128442,-9.27841829867347,-0.16957930071266275,-1.5804431522040088,9.701513743729176,0.0,0.0,0.001090830782496456,-7.5625,9.75,-101.5625
1772907942.325949,-0.07693556147119229,0.9481076761128442,-9.27841829867347,-0.16957930071266275,-1.5804431522040088,9.701513743729176,0.0,0.0,0.001090830782496456,-7.5625,9.75,-101.5625
1772907942.33747,-0.07693556147119229,0.9481076761128442,-9.27841829867347,-0.16972002932379604,-1.5836400245487527,9.727768273200697,-0.001090830782496456,0.002181661564992912,0.001090830782496456,-6.1875,11.6875,-100.75
1772907942.3556223,-0.07693556147119229,0.9481076761128442,-9.27841829867347,-0.16972002932379604,-1.5836400245487527,9.727768273200697,-0.001090830782496456,0.002181661564992912,0.001090830782496456,-6.1875,11.6875,-100.75
1772907942.3909643,-0.07693556147119229,0.9481076761128442,-9.27841829867347,-0.173158794349783,-1.585767507382776,9.745240369281682,0.0,0.001090830782496456,0.001090830782496456,-6.1875,11.6875,-100.75
1772907942.4264655,-0.07693556147119229,0.9481076761128442,-9.27841829867347,-0.173158794349783,-1.585767507382776,9.745240369281682,0.0,0.001090830782496456,0.001090830782496456,-6.1875,11.6875,-100.75
1772907942.4494162,-0.07693556147119229,0.9481076761128442,-9.27841829867347,-0.17210214235373567,-1.587183323443278,9.756867854047476,0.0,0.0,-0.001090830782496456,-6.1875,11.6875,-100.375
1772907942.4744663,-0.07693556147119229,0.9481076761128442,-9.27841829867347,-0.17139895225394236,-1.5914706449231597,9.767950926978916,0.001090830782496456,0.0,0.0,-6.1875,11.6875,-100.375
1772907942.4923546,-0.07693556147119229,0.9481076761128442,-9.27841829867347,-0.17139895225394236,-1.5914706449231597,9.767950926978916,0.001090830782496456,0.0,0.0,-6.1875,11.6875,-100.375
1772907942.5162992,-0.07693556147119229,0.9481076761128442,-9.27841829867347,-0.16758587539035863,-1.594323809475502,9.771981476501432,0.001090830782496456,0.001090830782496456,0.001090830782496456,-6.1875,12.1875,-99.5625
1772907942.5305407,-0.07693556147119229,0.9481076761128442,-9.27841829867347,-0.16758587539035863,-1.594323809475502,9.771981476501432,0.001090830782496456,0.001090830782496456,0.001090830782496456,-6.1875,12.1875,-99.5625
1772907942.5624063,-0.07693556147119229,0.9481076761128442,-9.27841829867347,-0.16504831533250316,-1.5962225586131493,9.771318650477161,0.0,0.0,0.002181661564992912,-6.1875,12.1875,-99.5625
1772907942.6207867,-0.07693556147119229,0.9481076761128442,-9.27841829867347,-0.16335959746040354,-1.5941410432465166,9.76753243545494,0.001090830782496456,0.001090830782496456,0.0,-6.5,11.75,-100.375
1772907942.6484654,-0.07693556147119229,0.9481076761128442,-9.27841829867347,-0.16335959746040354,-1.5941410432465166,9.76753243545494,0.001090830782496456,0.001090830782496456,0.0,-6.5,11.75,-100.375
1772907942.6901116,-0.07693556147119229,0.9481076761128442,-9.27841829867347,-0.1622357745807359,-1.5927558180220729,9.765012751652446,0.0,0.001090830782496456,0.0,-6.5,11.75,-100.375
1772907942.7400284,-0.07693556147119229,0.9481076761128442,-9.27841829867347,-0.16148788300824124,-1.5918339661091852,9.766681041935916,-0.001090830782496456,0.001090830782496456,0.001090830782496456,-6.875,12.5,-100.375
1772907942.7872417,-0.07693556147119229,0.9481076761128442,-9.27841829867347,-0.16099016952124232,-1.5945655956662383,9.771136382190862,-0.001090830782496456,0.001090830782496456,-0.001090830782496456,-6.875,12.5,-100.375
1772907942.8219469,-0.07693556147119229,0.9481076761128442,-9.27841829867347,-0.16065894675546846,-1.5963834646221557,9.774101361361117,0.0,0.001090830782496456,-0.002181661564992912,-6.875,12.1875,-100.0
1772907942.8406277,-0.07693556147119229,0.9481076761128442,-9.27841829867347,-0.16065894675546846,-1.5963834646221557,9.774101361361117,0.0,0.001090830782496456,-0.002181661564992912,-6.875,12.1875,-100.0
1772907942.8633444,-0.07693556147119229,0.9481076761128442,-9.27841829867347,-0.1604385217048467,-1.5942481243980726,9.776074521877934,0.0,-0.003272492347489368,0.0,-6.875,12.1875,-100.0
1772907942.9161277,-0.07693556147119229,0.9481076761128442,-9.27841829867347,-0.1604385217048467,-1.5942481243980726,9.776074521877934,0.0,-0.003272492347489368,0.0,-6.875,12.1875,-100.0
1772907942.9787977,-0.07693556147119229,0.9481076761128442,-9.27841829867347,-0.16363694300328646,-1.5928270793322585,9.77738763816023,0.0,0.0,-0.002181661564992912,-6.1875,12.1875,-99.1875
1772907943.009951,-0.07693556147119229,0.9481076761128442,-9.27841829867347,-0.16242034494137178,-1.5918813897150728,9.781606614084946,0.0,0.001090830782496456,0.0,-6.1875,12.1875,-99.1875
1772907943.035812,-0.07693556147119229,0.9481076761128442,-9.27841829867347,-0.16242034494137178,-1.5918813897150728,9.781606614084946,0.0,0.001090830782496456,0.0,-6.1875,12.1875,-99.1875
1772907943.0710375,-0.07693556147119229,0.9481076761128442,-9.27841829867347,-0.1616107125214584,-1.6012873789608388,9.784414295433796,0.0,0.001090830782496456,0.001090830782496456,-6.5,11.75,-100.375
1772907943.0959165,-0.07693556147119229,0.9481076761128442,-9.27841829867347,-0.16107191119019276,-1.6075469597321117,9.7862827760076,0.0,-0.001090830782496456,0.0,-6.5,11.75,-100.375
1772907943.1118658,-0.07693556147119229,0.9481076761128442,-9.27841829867347,-0.16107191119019276,-1.6075469597321117,9.7862827760076,0.0,-0.001090830782496456,0.0,-6.5,11.75,-100.375
1772907943.1307127,-0.07693556147119229,0.9481076761128442,-9.27841829867347,-0.1607133449230407,-1.6083675291039756,9.784181117249851,-0.001090830782496456,0.001090830782496456,0.002181661564992912,-6.875,12.1875,-100.0
1772907943.1593702,-0.07693556147119229,0.9481076761128442,-9.27841829867347,-0.16716494649233743,-1.602223385439952,9.782782486823635,0.0,0.001090830782496456,0.0,-6.875,12.1875,-100.0
1772907943.1863654,-0.07693556147119229,0.9481076761128442,-9.27841829867347,-0.16716494649233743,-1.602223385439952,9.782782486823635,0.0,0.001090830782496456,0.0,-6.875,12.1875,-100.0
1772907943.2255747,-0.07693556147119229,0.9481076761128442,-9.27841829867347,-0.1714584152675927,-1.6014796381734453,9.778506602191396,-0.001090830782496456,-0.002181661564992912,0.001090830782496456,-7.1875,12.875,-100.5
1772907943.2679772,-0.07693556147119229,0.9481076761128442,-9.27841829867347,-0.17097055906901693,-1.6009846826757865,9.772315937026082,0.0,0.0,-0.001090830782496456,-7.1875,12.875,-100.5
1772907943.3212876,-0.07693556147119229,0.9481076761128442,-9.27841829867347,-0.17064589621857557,-1.604000407028429,9.768196118512826,0.0,0.001090830782496456,0.0,-8.0,12.5,-100.75
1772907943.3453014,-0.07693556147119229,0.9481076761128442,-9.27841829867347,-0.17042983671832854,-1.6060073378972644,9.765454425313642,0.001090830782496456,0.001090830782496456,0.0,-8.0,12.5,-100.75
1772907943.3827188,-0.07693556147119229,0.9481076761128442,-9.27841829867347,-0.17042983671832854,-1.6060073378972644,9.765454425313642,0.001090830782496456,0.001090830782496456,0.0,-8.0,12.5,-100.75
1772907943.4014926,-0.07693556147119229,0.9481076761128442,-9.27841829867347,-0.17363116324177627,-1.6073429279715876,9.763629859116305,0.0,0.002181661564992912,-0.002181661564992912,-7.1875,12.5,-100.75
1772907943.415858,-0.07693556147119229,0.9481076761128442,-9.27841829867347,-0.1724164985746509,-1.6048866365392116,9.762415630693718,-0.001090830782496456,0.003272492347489368,0.0,-7.1875,12.5,-100.75
1772907943.4350116,-0.07693556147119229,0.9481076761128442,-9.27841829867347,-0.1724164985746509,-1.6048866365392116,9.762415630693718,-0.001090830782496456,0.003272492347489368,0.0,-7.1875,12.5,-100.75
1772907943.446937,-0.07693556147119229,0.9481076761128442,-9.27841829867347,-0.17495326451469176,-1.599906890322219,9.764952686949625,-0.001090830782496456,0.001090830782496456,0.0,-7.1875,12.5,-100.75
1772907943.4595046,-0.07693556147119229,0.9481076761128442,-9.27841829867347,-0.17495326451469176,-1.599906890322219,9.764952686949625,-0.001090830782496456,0.001090830782496456,0.0,-7.1875,12.5,-100.75
1772907943.479903,-0.07693556147119229,0.9481076761128442,-9.27841829867347,-0.17329634220293724,-1.5965929248422208,9.766641069547157,-0.001090830782496456,0.001090830782496456,0.0,-8.0,12.5,-100.0
1772907943.4921298,-0.07693556147119229,0.9481076761128442,-9.27841829867347,-0.17553879062081898,-1.5943875178347018,9.767764669305345,-0.001090830782496456,0.001090830782496456,0.001090830782496456,-8.0,12.5,-100.0
1772907943.5041392,-0.07693556147119229,0.9481076761128442,-9.27841829867347,-0.17553879062081898,-1.5943875178347018,9.767764669305345,-0.001090830782496456,0.001090830782496456,0.001090830782496456,-8.0,12.5,-100.0
1772907943.5159206,-0.07693556147119229,0.9481076761128442,-9.27841829867347,-0.17368600328580974,-1.589574732399889,9.761822188978348,0.001090830782496456,0.001090830782496456,0.0,-8.0,12.5,-100.0
1772907943.5325215,-0.07693556147119229,0.9481076761128442,-9.27841829867347,-0.17368600328580974,-1.589574732399889,9.761822188978348,0.001090830782496456,0.001090830782496456,0.0,-8.0,12.5,-100.0
1772907943.5486016,-0.07693556147119229,0.9481076761128442,-9.27841829867347,-0.17245299401135175,-1.5897169891626766,9.764557758117226,0.0,-0.002181661564992912,0.003272492347489368,-6.875,12.1875,-100.375
1772907943.5663476,-0.07693556147119229,0.9481076761128442,-9.27841829867347,-0.16828732840549665,-1.5898116594491996,9.75634291369888,0.0,-0.002181661564992912,0.0,-6.875,12.1875,-100.375
1772907943.5786562,-0.07693556147119229,0.9481076761128442,-9.27841829867347,-0.16828732840549665,-1.5898116594491996,9.75634291369888,0.0,-0.002181661564992912,0.0,-6.875,12.1875,-100.375
1772907943.6142097,-0.07693556147119229,0.9481076761128442,-9.27841829867347,-0.1688602361856533,-1.596564884881983,9.760911361626254,0.001090830782496456,-0.001090830782496456,0.001090830782496456,-6.875,12.1875,-100.375
1772907943.7268836,-0.07693556147119229,0.9481076761128442,-9.27841829867347,-0.1692414999135483,-1.6010590809690293,9.760606500981696,0.0,0.001090830782496456,-0.001090830782496456,-6.875,11.75,-100.375
1772907943.7420795,-0.07693556147119229,0.9481076761128442,-9.27841829867347,-0.16949522666546754,-1.5940145831395407,9.760403619628258,0.001090830782496456,-0.002181661564992912,0.001090830782496456,-6.875,11.75,-100.375
1772907943.7942836,-0.07693556147119229,0.9481076761128442,-9.27841829867347,-0.16966407898455627,-1.589326548526213,9.760268604353879,-0.001090830782496456,0.002181661564992912,0.001090830782496456,-6.875,12.1875,-101.5625
1772907943.807912,-0.07693556147119229,0.9481076761128442,-9.27841829867347,-0.16966407898455627,-1.589326548526213,9.760268604353879,-0.001090830782496456,0.002181661564992912,0.001090830782496456,-6.875,12.1875,-101.5625
1772907943.825063,-0.07693556147119229,0.9481076761128442,-9.27841829867347,-0.16977644831670582,-1.5895518255671406,9.760178753197,0.002181661564992912,0.0,0.001090830782496456,-6.875,12.1875,-101.5625
1772907943.8458054,-0.07693556147119229,0.9481076761128442,-9.27841829867347,-0.16977644831670582,-1.5895518255671406,9.760178753197,0.002181661564992912,0.0,0.001090830782496456,-6.875,12.1875,-101.5625
1772907943.9024687,-0.07693556147119229,0.9481076761128442,-9.27841829867347,-0.16650611714468427,-1.5897017449213686,9.763464069963119,0.001090830782496456,0.002181661564992912,0.0,-6.875,11.75,-99.25
1772907943.9412146,-0.07693556147119229,0.9481076761128442,-9.27841829867347,-0.16767485998901618,-1.5898015145768984,9.765650411571578,0.0,0.003272492347489368,0.0,-6.875,11.75,-99.25
1772907943.9799225,-0.07693556147119229,0.9481076761128442,-9.27841829867347,-0.16510753358888666,-1.596558133582792,9.76710539748897,0.001090830782496456,0.001090830782496456,-0.001090830782496456,-6.875,12.5,-100.375
1772907943.9943888,-0.07693556147119229,0.9481076761128442,-9.27841829867347,-0.16674411825583488,-1.6010545880548346,9.764728562656419,0.0,0.001090830782496456,-0.002181661564992912,-6.875,12.5,-100.375
1772907944.0124424,-0.07693556147119229,0.9481076761128442,-9.27841829867347,-0.16674411825583488,-1.6010545880548346,9.764728562656419,0.0,0.001090830782496456,-0.002181661564992912,-6.875,12.5,-100.375
1772907944.0472655,-0.07693556147119229,0.9481076761128442,-9.27841829867347,-0.1678332470698403,-1.6040469282772913,9.763146805626342,0.001090830782496456,-0.001090830782496456,0.0,-6.875,12.5,-100.375
1772907944.0992105,-0.07693556147119229,0.9481076761128442,-9.27841829867347,-0.17190316183651425,-1.6026931855613864,9.762094163992208,0.001090830782496456,0.001090830782496456,-0.001090830782496456,-6.875,11.75,-100.375
1772907944.1262012,-0.07693556147119229,0.9481076761128442,-9.27841829867347,-0.1746116446498089,-1.605137396613568,9.761393642743469,0.001090830782496456,0.001090830782496456,-0.003272492347489368,-6.875,11.75,-100.375
1772907944.161384,-0.07693556147119229,0.9481076761128442,-9.27841829867347,-0.1746116446498089,-1.605137396613568,9.761393642743469,0.001090830782496456,0.001090830782496456,-0.003272492347489368,-6.875,11.75,-100.375
1772907944.192053,-0.07693556147119229,0.9481076761128442,-9.27841829867347,-0.17306899799900166,-1.603418880057849,9.76092745367777,0.002181661564992912,0.0,0.002181661564992912,-7.1875,12.5,-101.1875
1772907944.2224333,-0.07693556147119229,0.9481076761128442,-9.27841829867347,-0.17306899799900166,-1.603418880057849,9.76092745367777,0.002181661564992912,0.0,0.002181661564992912,-7.1875,12.5,-101.1875
1772907944.2422392,-0.07693556147119229,0.9481076761128442,-9.27841829867347,-0.17204238388538165,-1.6022752264871059,9.763962321769538,0.0,0.0,0.0,-7.1875,12.5,-101.1875
1772907944.2841537,-0.07693556147119229,0.9481076761128442,-9.27841829867347,-0.1680140719534792,-1.6015141378112239,9.765981992582912,-0.001090830782496456,0.001090830782496456,0.0,-6.5,11.0,-101.1875
1772907944.3244298,-0.07693556147119229,0.9481076761128442,-9.27841829867347,-0.16867838706931026,-1.601007641799342,9.767326060948012,0.0,0.0,0.002181661564992912,-6.5,11.0,-101.1875
1772907944.3697245,-0.07693556147119229,0.9481076761128442,-9.27841829867347,-0.16912048135800975,-1.6006705743613656,9.76487541172344,0.001090830782496456,-0.001090830782496456,0.002181661564992912,-7.1875,12.1875,-99.5625
1772907944.3983154,-0.07693556147119229,0.9481076761128442,-9.27841829867347,-0.16912048135800975,-1.6006705743613656,9.76487541172344,0.001090830782496456,-0.001090830782496456,0.002181661564992912,-7.1875,12.1875,-99.5625
1772907944.4208558,-0.07693556147119229,0.9481076761128442,-9.27841829867347,-0.16941469016862248,-1.6004462597466824,9.763244532040032,0.0,-0.002181661564992912,0.001090830782496456,-7.1875,12.1875,-99.5625
1772907944.4497664,-0.07693556147119229,0.9481076761128442,-9.27841829867347,-0.1696104828455575,-1.5969518691690499,9.762159199828844,0.002181661564992912,-0.001090830782496456,0.002181661564992912,-6.875,12.5,-100.75
1772907944.4878628,-0.07693556147119229,0.9481076761128442,-9.27841829867347,-0.1696104828455575,-1.5969518691690499,9.762159199828844,0.002181661564992912,-0.001090830782496456,0.002181661564992912,-6.875,12.5,-100.75
1772907944.5039382,-0.07693556147119229,0.9481076761128442,-9.27841829867347,-0.16974078068491022,-1.597971502981855,9.754746699951614,0.001090830782496456,0.0,0.001090830782496456,-6.875,12.5,-100.75
1772907944.5190198,-0.07693556147119229,0.9481076761128442,-9.27841829867347,-0.16982749244147724,-1.5953049461869016,9.749813764086367,0.0,-0.002181661564992912,0.001090830782496456,-7.1875,12.5,-99.5625
1772907944.5589035,-0.07693556147119229,0.9481076761128442,-9.27841829867347,-0.16982749244147724,-1.5953049461869016,9.749813764086367,0.0,-0.002181661564992912,0.001090830782496456,-7.1875,12.5,-99.5625
1772907944.5902715,-0.07693556147119229,0.9481076761128442,-9.27841829867347,-0.16435235446794771,-1.5979206762495743,9.762178990294462,0.001090830782496456,0.001090830782496456,0.001090830782496456,-6.875,11.75,-100.0
1772907944.6182373,2.1684193454464813e-06,0.9480809550260137,-9.278157929006662,-0.16435235446794771,-1.5979206762495743,9.762178990294462,0.001090830782496456,0.001090830782496456,0.001090830782496456,-6.875,11.75,-100.0
1772907945.0395648,2.1684193454464813e-06,0.9480809550260137,-9.278157929006662,-0.16428584646465413,-1.5931239766681218,9.760427384114216,0.0010937592872304314,-0.0021801948540913336,0.002181661564992912,-6.891778532699463,12.490757129022356,-100.0
1772907945.3072875,2.1684193454464813e-06,0.9480809550260137,-9.278157929006662,-0.16716219395024562,-1.5912854117078892,9.760574159209138,0.0,0.0,-0.001090830782496456,-6.891778532699463,12.490757129022356,-99.1875
1772907945.3381703,2.1684193454464813e-06,0.9480809550260137,-9.278157929006662,-0.16739723322175123,-1.5909313072816151,9.760382096539903,0.0010893650550087139,0.0010922945431565253,0.0,-5.767786630759805,13.242267078639838,-100.0
1772907945.3897858,2.1684193454464813e-06,0.9480809550260137,-9.278157929006662,-0.16739723322175123,-1.5909313072816151,9.760382096539903,0.0010893650550087139,0.0010922945431565253,0.0,-5.767786630759805,13.242267078639838,-100.0
1772907945.4411063,2.1684193454464813e-06,0.9480809550260137,-9.278157929006662,-0.16755364923137753,-1.5906956547415354,9.760254280979007,1.4647440739058361e-06,-0.0010908297990826197,0.001090830782496456,-5.767786630759805,13.242267078639838,-100.0
1772907945.4868193,2.1684193454464813e-06,0.9480809550260137,-9.278157929006662,-0.1676577423385025,-1.590538830608524,9.760169221151024,-0.0010922945431565256,0.0010893650550087139,-0.001090830782496456,-6.892785616541483,13.240756452876807,-100.0
1772907945.5137289,2.1684193454464813e-06,0.9480809550260137,-9.278157929006662,-0.1676577423385025,-1.590538830608524,9.760169221151024,-0.0010922945431565256,0.0010893650550087139,-0.001090830782496456,-6.892785616541483,13.240756452876807,-100.0
1772907945.577315,2.1684193454464813e-06,0.9480809550260137,-9.278157929006662,-0.1677225233945644,-1.5937795745914545,9.763457726493002,-0.0010864355668609021,-0.003273954141321765,0.0,-6.892785616541483,13.240756452876807,-100.0
1772907945.6338556,2.1684193454464813e-06,0.9480809550260137,-9.278157929006662,-0.1677225233945644,-1.5937795745914545,9.763457726493002,-0.0010864355668609021,-0.003273954141321765,0.0,-6.892785616541483,13.240756452876807,-100.0
1772907945.6550994,2.1684193454464813e-06,0.9480809550260137,-9.278157929006662,-0.16776563446372175,-1.5959362535106127,9.765646190063077,2.9294881478116722e-06,-0.0021816595981652394,0.0,-6.51635925250473,12.178760952670677,-100.75
1772907945.675962,2.1684193454464813e-06,0.9480809550260137,-9.278157929006662,-0.1711394330902733,-1.5973759909835639,9.760412364707582,-0.0010922945431565256,0.0010893650550087139,0.001090830782496456,-6.51635925250473,12.178760952670677,-100.75
1772907945.740885,2.1684193454464813e-06,0.9480809550260137,-9.278157929006662,-0.1733891501323769,-1.594989011497282,9.75692931239916,-1.4647440739058361e-06,0.0010908297990826197,0.0,-8.703269814839038,11.738324019216357,-100.75
1772907945.8056312,2.1684193454464813e-06,0.9480809550260137,-9.278157929006662,-0.16819609430969176,-1.5933915198256021,9.75461137999615,-0.0010908297990826197,-1.4647440739058361e-06,-0.001090830782496456,-6.891778532699463,12.490757129022356,-100.0
1772907945.878697,2.1684193454464813e-06,0.9480809550260137,-9.278157929006662,-0.16819609430969176,-1.5933915198256021,9.75461137999615,-0.0010908297990826197,-1.4647440739058361e-06,-0.001090830782496456,-6.891778532699463,12.490757129022356,-100.0
1772907945.914589,2.1684193454464813e-06,0.9480809550260137,-9.278157929006662,-0.16473568192599577,-1.59567351565486,9.759759045289588,-0.0010908297990826197,-1.4647440739058361e-06,0.0,-6.891778532699463,12.490757129022356,-100.0
1772907945.9635937,2.1684193454464813e-06,0.9480809550260137,-9.278157929006662,-0.16473568192599577,-1.59567351565486,9.759759045289588,-0.0010908297990826197,-1.4647440739058361e-06,0.0,-6.891778532699463,12.490757129022356,-100.0
1772907946.0056353,2.1684193454464813e-06,0.9480809550260137,-9.278157929006662,-0.16243281613998517,-1.5971921583876674,9.76318475903918,-1.4647440739058361e-06,0.0010908297990826197,0.0,-7.203858632704644,12.17783779248216,-100.375
1772907946.061653,2.1684193454464813e-06,0.9480809550260137,-9.278157929006662,-0.16090028468409154,-1.598202798162,9.765464533271805,-0.0010893650550087139,-0.0010922945431565253,0.0,-7.203858632704644,12.17783779248216,-100.375
1772907946.1277342,2.1684193454464813e-06,0.9480809550260137,-9.278157929006662,-0.15653529342808287,-1.5988708758982983,9.766981697556869,1.4647440739058361e-06,-0.0010908297990826197,0.0,-6.891778532699463,12.490757129022356,-101.1875
1772907946.155788,2.1684193454464813e-06,0.9480809550260137,-9.278157929006662,-0.15697554919896584,-1.5993199659128214,9.761301130026105,1.4647440739058361e-06,-0.0010908297990826197,-0.001090830782496456,-6.891778532699463,12.490757129022356,-101.1875
1772907946.2055624,2.1684193454464813e-06,0.9480809550260137,-9.278157929006662,-0.16061364318811883,-1.599623322044756,9.760865887497799,-0.0010937592872304314,0.0021801948540913336,-0.003272492347489368,-7.203271167130132,11.740338186900397,-100.0
1772907946.2582288,2.1684193454464813e-06,0.9480809550260137,-9.278157929006662,-0.16637537104540334,-1.6031748025973915,9.760576238457189,-0.0010937592872304314,0.0021801948540913336,-0.001090830782496456,-7.203271167130132,11.740338186900397,-100.0
1772907946.2869456,2.1684193454464813e-06,0.9480809550260137,-9.278157929006662,-0.1702097365717088,-1.6055382732325332,9.760383480256253,-0.0010908297990826197,-1.4647440739058361e-06,0.001090830782496456,-7.57885829463187,12.17733425056115,-100.0
1772907946.3355193,2.1684193454464813e-06,0.9480809550260137,-9.278157929006662,-0.17276146399679562,-1.6071111365385229,9.756910090119462,0.0010908297990826197,1.4647440739058361e-06,-0.001090830782496456,-7.57885829463187,12.17733425056115,-100.0
1772907946.3610551,2.1684193454464813e-06,0.9480809550260137,-9.278157929006662,-0.17276146399679562,-1.6071111365385229,9.756910090119462,0.0010908297990826197,1.4647440739058361e-06,-0.001090830782496456,-7.57885829463187,12.17733425056115,-100.0
1772907946.3758378,2.1684193454464813e-06,0.9480809550260137,-9.278157929006662,-0.17445961009352787,-1.608157859498625,9.7479083643691,1.4647440739058361e-06,-0.0010908297990826197,0.001090830782496456,-7.202767625209122,11.36533852497317,-101.1875
1772907946.3989108,2.1684193454464813e-06,0.9480809550260137,-9.278157929006662,-0.17445961009352787,-1.608157859498625,9.7479083643691,1.4647440739058361e-06,-0.0010908297990826197,0.001090830782496456,-7.202767625209122,11.36533852497317,-101.1875
1772907946.4361303,2.1684193454464813e-06,0.9480809550260137,-9.278157929006662,-0.16889948996814927,-1.608845458448044,9.748608039852737,-0.0010922945431565256,0.0010893650550087139,0.0,-7.202767625209122,11.36533852497317,-101.1875
1772907946.4904256,2.1684193454464813e-06,0.9480809550260137,-9.278157929006662,-0.1685444008269308,-1.6093075396118324,9.75241877777853,-0.0010922945431565256,0.0010893650550087139,-0.002181661564992912,-6.890771448857444,11.740757805167904,-100.0
1772907946.5617697,2.1684193454464813e-06,0.9480809550260137,-9.278157929006662,-0.1683170764579227,-1.6029248320813296,9.754954781299412,-0.0010937592872304314,0.0021801948540913336,0.0,-6.890771448857444,11.740757805167904,-100.0
1772907946.6144533,2.1684193454464813e-06,0.9480809550260137,-9.278157929006662,-0.16816130288579387,-1.6020223202109045,9.763332686728184,-0.0010922945431565256,0.0010893650550087139,-0.002181661564992912,-6.891358914431955,12.178257410749667,-100.5
1772907946.6539319,2.1684193454464813e-06,0.9480809550260137,-9.278157929006662,-0.1680576373136469,-1.6014217086428548,9.768908089203695,0.0,0.0,-0.001090830782496456,-6.891358914431955,12.178257410749667,-100.5
1772907946.7009,2.1684193454464813e-06,0.9480809550260137,-9.278157929006662,-0.16798415728946983,-1.604367117045198,9.765928233855183,-0.0010922945431565256,0.0010893650550087139,-0.001090830782496456,-6.515268245009208,11.366261685161687,-99.5625
1772907946.7182372,2.1684193454464813e-06,0.9480809550260137,-9.278157929006662,-0.16793525715420565,-1.6063272534345898,9.763945173407913,-0.0010893650550087139,-0.0010922945431565253,-0.001090830782496456,-6.515268245009208,11.366261685161687,-99.5625
1772907946.7340107,2.1684193454464813e-06,0.9480809550260137,-9.278157929006662,-0.16793525715420565,-1.6063272534345898,9.763945173407913,-0.0010893650550087139,-0.0010922945431565253,-0.001090830782496456,-6.515268245009208,11.366261685161687,-99.5625
1772907946.7598255,2.1684193454464813e-06,0.9480809550260137,-9.278157929006662,-0.16790720640437123,-1.604286593613962,9.762625468832491,0.0,0.0,0.0,-6.515268245009208,11.366261685161687,-99.5625
1772907946.7861342,2.1684193454464813e-06,0.9480809550260137,-9.278157929006662,-0.1678885389437038,-1.6029285572989984,9.761747220179615,-0.001087900310934808,-0.0021831243422391453,0.0,-7.578270829057359,11.739834644979387,-101.5625
1772907946.8254118,2.1684193454464813e-06,0.9480809550260137,-9.278157929006662,-0.1678885389437038,-1.6029285572989984,9.761747220179615,-0.001087900310934808,-0.0021831243422391453,0.0,-7.578270829057359,11.739834644979387,-101.5625
1772907946.8460872,2.1684193454464813e-06,0.9480809550260137,-9.278157929006662,-0.16452651552161573,-1.6053654162493256,9.764507867219125,-0.0010864355668609021,-0.003273954141321765,0.001090830782496456,-7.578270829057359,11.739834644979387,-101.5625
1772907946.8753753,2.1684193454464813e-06,0.9480809550260137,-9.278157929006662,-0.16452651552161573,-1.6053654162493256,9.764507867219125,-0.0010864355668609021,-0.003273954141321765,0.001090830782496456,-7.578270829057359,11.739834644979387,-101.5625
1772907946.8883796,2.1684193454464813e-06,0.9480809550260137,-9.278157929006662,-0.16228912649047852,-1.6069871186592704,9.766345046985471,-0.001087900310934808,-0.0021831243422391453,-0.001090830782496456,-5.766779546917785,12.492267754785384,-99.5625
1772907946.9018538,2.1684193454464813e-06,0.9480809550260137,-9.278157929006662,-0.16080466082746342,-1.6047212348058761,9.767567669597332,-1.4647440739058361e-06,0.0010908297990826197,-0.001090830782496456,-5.766779546917785,12.492267754785384,-99.5625
1772907946.916998,2.1684193454464813e-06,0.9480809550260137,-9.278157929006662,-0.16080466082746342,-1.6047212348058761,9.767567669597332,-1.4647440739058361e-06,0.0010908297990826197,-0.001090830782496456,-5.766779546917785,12.492267754785384,-99.5625
1772907946.934197,2.1684193454464813e-06,0.9480809550260137,-9.278157929006662,-0.15981676551129487,-1.6032133144130232,9.771726422995254,-0.0010937592872304314,0.0021801948540913336,-0.001090830782496456,-5.766779546917785,12.492267754785384,-99.5625
1772907946.9556544,2.1684193454464813e-06,0.9480809550260137,-9.278157929006662,-0.15916382395783202,-1.5988647015445447,9.771148915217934,-0.0010937592872304314,0.0021801948540913336,0.0,-6.515771786930218,11.741261347088914,-100.0
1772907946.9745345,2.1684193454464813e-06,0.9480809550260137,-9.278157929006662,-0.15916382395783202,-1.5988647015445447,9.771148915217934,-0.0010937592872304314,0.0021801948540913336,0.0,-6.515771786930218,11.741261347088914,-100.0
1772907947.0019565,2.1684193454464813e-06,0.9480809550260137,-9.278157929006662,-0.1620744073394471,-1.5959752400016947,9.764074366828671,2.9294881478116722e-06,-0.0021816595981652394,0.0,-6.515771786930218,11.741261347088914,-100.0
1772907947.0280228,2.1684193454464813e-06,0.9480809550260137,-9.278157929006662,-0.16401136806656522,-1.594052335622328,9.759366333903502,0.0,0.0,0.0,-6.891778532699463,12.490757129022356,-100.0
1772907947.0510411,2.1684193454464813e-06,0.9480809550260137,-9.278157929006662,-0.16401136806656522,-1.594052335622328,9.759366333903502,0.0,0.0,0.0,-6.891778532699463,12.490757129022356,-100.0
1772907947.0785844,2.1684193454464813e-06,0.9480809550260137,-9.278157929006662,-0.1652959020492597,-1.5961177729297185,9.756233190583975,-0.0010908297990826197,-1.4647440739058361e-06,-0.001090830782496456,-6.891778532699463,12.490757129022356,-100.0
1772907947.1048326,2.1684193454464813e-06,0.9480809550260137,-9.278157929006662,-0.16615074506555805,-1.5974922983853403,9.754148118704334,1.4647440739058361e-06,-0.0010908297990826197,0.0,-6.515771786930218,11.741261347088914,-99.5625
1772907947.1234329,2.1684193454464813e-06,0.9480809550260137,-9.278157929006662,-0.16615074506555805,-1.5974922983853403,9.754148118704334,1.4647440739058361e-06,-0.0010908297990826197,0.0,-6.515771786930218,11.741261347088914,-99.5625
1772907947.1538823,2.1684193454464813e-06,0.9480809550260137,-9.278157929006662,-0.17006025049135837,-1.6017566301571444,9.752760526660213,-0.001087900310934808,-0.0021831243422391453,-0.002181661564992912,-6.515771786930218,11.741261347088914,-99.5625
1772907947.1923409,2.1684193454464813e-06,0.9480809550260137,-9.278157929006662,-0.17106325959568797,-1.595336088816416,9.754567681006153,-0.0010893650550087139,-0.0010922945431565253,0.0,-6.891358914431955,12.178257410749667,-100.375
1772907947.2238245,2.1684193454464813e-06,0.9480809550260137,-9.278157929006662,-0.1699933488310345,-1.5936269876483118,9.756384852392573,-0.0010922945431565256,0.0010893650550087139,-0.002181661564992912,-6.891358914431955,12.178257410749667,-100.375
1772907947.239039,2.1684193454464813e-06,0.9480809550260137,-9.278157929006662,-0.1699933488310345,-1.5936269876483118,9.756384852392573,-0.0010922945431565256,0.0010893650550087139,-0.002181661564992912,-6.891358914431955,12.178257410749667,-100.375
1772907947.2675996,2.1684193454464813e-06,0.9480809550260137,-9.278157929006662,-0.1692768434249104,-1.5958347086044589,9.757594159651102,0.0010908297990826197,1.4647440739058361e-06,0.0,-6.891358914431955,12.178257410749667,-100.375
1772907947.3117328,2.1684193454464813e-06,0.9480809550260137,-9.278157929006662,-0.16291145331710474,-1.5982741865511099,9.762279624244057,0.0,0.0,-0.002181661564992912,-6.892282074620473,12.865756790949582,-100.0
1772907947.3486042,2.1684193454464813e-06,0.9480809550260137,-9.278157929006662,-0.16291145331710474,-1.5982741865511099,9.762279624244057,0.0,0.0,-0.002181661564992912,-6.892282074620473,12.865756790949582,-100.0
1772907947.386146,2.1684193454464813e-06,0.9480809550260137,-9.278157929006662,-0.16791352150588965,-1.5955867506139818,9.764862176176667,1.4647440739058361e-06,-0.0010908297990826197,0.0,-7.581292080583417,13.989832616542742,-100.0
1772907947.419468,2.1684193454464813e-06,0.9480809550260137,-9.278157929006662,-0.17123785026482954,-1.5971434007100591,9.766580835638825,0.0010937592872304314,-0.0021801948540913336,0.001090830782496456,-7.581292080583417,13.989832616542742,-100.0
1772907947.4691432,2.1684193454464813e-06,0.9480809550260137,-9.278157929006662,-0.17010953697104267,-1.5948297335245345,9.761034360897568,0.0010937592872304314,-0.0021801948540913336,-0.001090830782496456,-7.203271167130132,11.740338186900397,-100.0
1772907947.5048974,2.1684193454464813e-06,0.9480809550260137,-9.278157929006662,-0.16935865707811287,-1.5932900138579238,9.757343243915445,-0.0010922945431565256,0.0010893650550087139,-0.002181661564992912,-7.203271167130132,11.740338186900397,-100.0
1772907947.5308247,2.1684193454464813e-06,0.9480809550260137,-9.278157929006662,-0.16551384620563656,-1.5922608558756564,9.75488684679632,0.0010908297990826197,1.4647440739058361e-06,-0.001090830782496456,-6.891358914431955,12.178257410749667,-99.25
1772907947.545027,2.1684193454464813e-06,0.9480809550260137,-9.278157929006662,-0.16964089315864062,-1.5949300549143821,9.753252141953295,0.0021816595981652394,2.9294881478116722e-06,0.001090830782496456,-6.891358914431955,12.178257410749667,-99.25
1772907947.5679262,2.1684193454464813e-06,0.9480809550260137,-9.278157929006662,-0.16964089315864062,-1.5949300549143821,9.753252141953295,0.0021816595981652394,2.9294881478116722e-06,0.001090830782496456,-6.891358914431955,12.178257410749667,-99.25
1772907947.5971484,2.1684193454464813e-06,0.9480809550260137,-9.278157929006662,-0.16569717942051057,-1.59669739356988,9.755509375848431,-0.0010922945431565256,0.0010893650550087139,-0.002181661564992912,-6.891358914431955,12.178257410749667,-99.25
1772907947.6395671,2.1684193454464813e-06,0.9480809550260137,-9.278157929006662,-0.16307717372588762,-1.594528429011038,9.757011539790689,0.0010922945431565256,-0.0010893650550087139,-0.001090830782496456,-8.015770434639123,11.739247179404876,-99.5625
1772907947.6648607,2.1684193454464813e-06,0.9480809550260137,-9.278157929006662,-0.16133358920349733,-1.59308500732605,9.758011213113992,-0.0010893650550087139,-0.0010922945431565253,0.001090830782496456,-8.015770434639123,11.739247179404876,-99.5625
1772907947.6936429,2.1684193454464813e-06,0.9480809550260137,-9.278157929006662,-0.16016876143702832,-1.595469535010377,9.765366707958206,1.4647440739058361e-06,-0.0010908297990826197,0.0,-6.890771448857444,11.740757805167904,-100.75
1772907947.7334778,2.1684193454464813e-06,0.9480809550260137,-9.278157929006662,-0.1593935815704219,-1.597056411547377,9.770261707610768,1.4647440739058361e-06,-0.0010908297990826197,-0.001090830782496456,-6.890771448857444,11.740757805167904,-100.75
1772907947.761494,2.1684193454464813e-06,0.9480809550260137,-9.278157929006662,-0.15887770802852189,-1.5981124601561782,9.77351927519882,-0.0010908297990826197,-1.4647440739058361e-06,0.0,-6.890771448857444,11.740757805167904,-100.75
1772907947.799879,2.1684193454464813e-06,0.9480809550260137,-9.278157929006662,-0.15519378300139647,-1.5954656482729563,9.768996926624615,-0.0021816595981652394,-2.9294881478116722e-06,0.0,-7.203858632704644,12.17783779248216,-100.5
1772907947.8613832,2.1684193454464813e-06,0.9480809550260137,-9.278157929006662,-0.15274217204798352,-1.593704224531498,9.765987354166425,-0.0010893650550087139,-0.0010922945431565253,0.0,-7.203858632704644,12.17783779248216,-100.5
1772907947.8887384,2.1684193454464813e-06,0.9480809550260137,-9.278157929006662,-0.1544512692924519,-1.5958816171434933,9.763984517314627,0.0,0.0,-0.002181661564992912,-6.515771786930218,11.741261347088914,1947.5
1772907947.92502,2.1684193454464813e-06,0.9480809550260137,-9.278157929006662,-0.15558865441677844,-1.5973306476037068,9.76265165176291,1.4647440739058361e-06,-0.0010908297990826197,0.0,-6.515771786930218,11.741261347088914,1947.5
1772907947.961356,2.1684193454464813e-06,0.9480809550260137,-9.278157929006662,-0.1563455715115934,-1.5982949611882482,9.758419532920007,-2.9294881478116722e-06,0.0021816595981652394,-0.001090830782496456,-6.204279152499549,12.491680289210874,-100.5
1772907947.9951024,2.1684193454464813e-06,0.9480809550260137,-9.278157929006662,-0.1568537831268084,-1.5955915924150623,9.758948216813238,-0.0021831243422391453,0.001087900310934808,0.0,-6.204279152499549,12.491680289210874,-100.5
1772907948.0396085,2.1684193454464813e-06,0.9480809550260137,-9.278157929006662,-0.15719199227963823,-1.593792530695115,9.762645161745716,0.0010922945431565256,-0.0010893650550087139,-0.001090830782496456,-6.20327206865753,11.741680965356421,-100.375
1772907948.056825,2.1684193454464813e-06,0.9480809550260137,-9.278157929006662,-0.15719199227963823,-1.593792530695115,9.762645161745716,0.0010922945431565256,-0.0010893650550087139,-0.001090830782496456,-6.20327206865753,11.741680965356421,-100.375
1772907948.0817358,2.1684193454464813e-06,0.9480809550260137,-9.278157929006662,-0.16075768364047865,-1.5959448756528696,9.7651054373007,0.0010937592872304314,-0.0021801948540913336,-0.001090830782496456,-6.20327206865753,11.741680965356421,-100.375
1772907948.1137264,2.1684193454464813e-06,0.9480809550260137,-9.278157929006662,-0.1631306114097356,-1.5973772371789865,9.766742723199464,-1.4647440739058361e-06,0.0010908297990826197,0.001090830782496456,-6.20327206865753,11.741680965356421,-100.375
1772907948.1591706,2.1684193454464813e-06,0.9480809550260137,-9.278157929006662,-0.16019393021019113,-1.5956122257910061,9.765212320585752,0.0010922945431565256,-0.0010893650550087139,-0.001090830782496456,-6.204279152499549,12.491680289210874,-98.75
1772907948.2152498,2.1684193454464813e-06,0.9480809550260137,-9.278157929006662,-0.16275543979941767,-1.5971558624118587,9.763468741124381,-0.0021801948540913336,-0.0010937592872304312,0.0,-7.203858632704644,12.17783779248216,-100.0
1772907948.232286,2.1684193454464813e-06,0.9480809550260137,-9.278157929006662,-0.164460095817111,-1.5981831353394853,9.762308408469899,4.394232221717509e-06,-0.003272489397247859,-0.001090830782496456,-7.203858632704644,12.17783779248216,-100.0
1772907948.258066,2.1684193454464813e-06,0.9480809550260137,-9.278157929006662,-0.164460095817111,-1.5981831353394853,9.762308408469899,4.394232221717509e-06,-0.003272489397247859,-0.001090830782496456,-7.203858632704644,12.17783779248216,-100.0
1772907948.2994337,2.1684193454464813e-06,0.9480809550260137,-9.278157929006662,-0.16559452535463046,-1.5988667739974303,9.761536220050106,1.4647440739058361e-06,-0.0010908297990826197,-0.001090830782496456,-6.891358914431955,12.178257410749667,-99.25
1772907948.3575857,2.1684193454464813e-06,0.9480809550260137,-9.278157929006662,-0.1663494755394414,-1.5993217278875484,9.761022337282643,1.4647440739058361e-06,-0.0010908297990826197,-0.001090830782496456,-6.891358914431955,12.178257410749667,-99.25
1772907948.3891485,2.1684193454464813e-06,0.9480809550260137,-9.278157929006662,-0.16685188645408694,-1.5996244946192542,9.760680354041343,-1.4647440739058361e-06,0.0010908297990826197,0.001090830782496456,-6.890267906936434,11.365758143240678,-100.375
1772907948.4248288,2.1684193454464813e-06,0.9480809550260137,-9.278157929006662,-0.17053134399709544,-1.599830474241012,9.760452768014462,-2.9294881478116722e-06,0.0021816595981652394,0.0,-6.890267906936434,11.365758143240678,-100.375
1772907948.4641428,2.1684193454464813e-06,0.9480809550260137,-9.278157929006662,-0.17298447363366729,-1.5966224426867393,9.760301312055875,0.0021816595981652394,2.9294881478116722e-06,0.0,-6.891358914431955,12.178257410749667,-100.0
1772907948.5036807,2.1684193454464813e-06,0.9480809550260137,-9.278157929006662,-0.17298447363366729,-1.5966224426867393,9.760301312055875,0.0021816595981652394,2.9294881478116722e-06,0.0,-6.891358914431955,12.178257410749667,-100.0
1772907948.5345201,2.1684193454464813e-06,0.9480809550260137,-9.278157929006662,-0.17127189531194273,-1.5944830417794975,9.763545631514628,2.9294881478116722e-06,-0.0021816595981652394,0.001090830782496456,-6.891358914431955,12.178257410749667,-100.0
1772907948.5515242,2.1684193454464813e-06,0.9480809550260137,-9.278157929006662,-0.17013219356958842,-1.5930592943744022,9.755669354751047,0.0010937592872304314,-0.0021801948540913336,-0.001090830782496456,-6.516778870772237,12.491260670943365,-100.0
1772907948.592163,2.1684193454464813e-06,0.9480809550260137,-9.278157929006662,-0.16937373479135426,-1.592111806380612,9.760463115670618,-0.001087900310934808,-0.0021831243422391453,0.0,-6.516778870772237,12.491260670943365,-100.0
1772907948.6419244,2.1684193454464813e-06,0.9480809550260137,-9.278157929006662,-0.16937373479135426,-1.592111806380612,9.760463115670618,-0.001087900310934808,-0.0021831243422391453,0.0,-6.516778870772237,12.491260670943365,-100.0
1772907948.6811495,2.1684193454464813e-06,0.9480809550260137,-9.278157929006662,-0.17221409763858864,-1.5914857554488127,9.760308198305456,-0.0010908297990826197,-1.4647440739058361e-06,-0.001090830782496456,-7.203271167130132,11.740338186900397,-100.0
1772907948.7094712,2.1684193454464813e-06,0.9480809550260137,-9.278157929006662,-0.17410432738449116,-1.5910691255471472,9.760205102529481,-2.9294881478116722e-06,0.0021816595981652394,-0.003272492347489368,-7.203271167130132,11.740338186900397,-100.0
1772907948.7423854,2.1684193454464813e-06,0.9480809550260137,-9.278157929006662,-0.17410432738449116,-1.5910691255471472,9.760205102529481,-2.9294881478116722e-06,0.0021816595981652394,-0.003272492347489368,-7.203271167130132,11.740338186900397,-100.0
1772907948.7724106,2.1684193454464813e-06,0.9480809550260137,-9.278157929006662,-0.1753622541651395,-1.59079186300165,9.760136493442223,-0.0010893650550087139,-0.0010922945431565253,0.001090830782496456,-6.891358914431955,12.178257410749667,-100.0
1772907948.8022287,2.1684193454464813e-06,0.9480809550260137,-9.278157929006662,-0.17619489864176452,-1.5939524565664565,9.756745723153749,0.0010893650550087139,0.0010922945431565253,0.0,-6.891358914431955,12.178257410749667,-100.0
1772907948.8179207,2.1684193454464813e-06,0.9480809550260137,-9.278157929006662,-0.17619489864176452,-1.5939524565664565,9.756745723153749,0.0010893650550087139,0.0010922945431565253,0.0,-6.891358914431955,12.178257410749667,-100.0
1772907948.8331525,2.1684193454464813e-06,0.9480809550260137,-9.278157929006662,-0.17340839729203428,-1.5927061958421485,9.757834315111474,-1.4647440739058361e-06,0.0010908297990826197,-0.001090830782496456,-6.890771448857444,11.740757805167904,-101.1875
1772907948.8471014,2.1684193454464813e-06,0.9480809550260137,-9.278157929006662,-0.17340839729203428,-1.5927061958421485,9.757834315111474,-1.4647440739058361e-06,0.0010908297990826197,-0.001090830782496456,-6.890771448857444,11.740757805167904,-101.1875
1772907948.8898797,2.1684193454464813e-06,0.9480809550260137,-9.278157929006662,-0.16486379438782933,-1.591867839763899,9.76190387260629,0.0010893650550087139,0.0010922945431565253,0.002181661564992912,-6.890771448857444,11.740757805167904,-101.1875
1772907948.9130895,2.1684193454464813e-06,0.9480809550260137,-9.278157929006662,-0.15917745660454952,-1.591309923158875,9.764612117659155,0.0010893650550087139,0.0010922945431565253,-0.002181661564992912,-7.578270829057359,11.739834644979387,-100.5
1772907948.92732,2.1684193454464813e-06,0.9480809550260137,-9.278157929006662,-0.15873837102194144,-1.5909431276345019,9.763069312781438,0.0,0.0,-0.001090830782496456,-7.578270829057359,11.739834644979387,-100.5
1772907948.9514668,2.1684193454464813e-06,0.9480809550260137,-9.278157929006662,-0.15873837102194144,-1.5909431276345019,9.763069312781438,0.0,0.0,-0.001090830782496456,-7.578270829057359,11.739834644979387,-100.5
1772907948.9725966,2.1684193454464813e-06,0.9480809550260137,-9.278157929006662,-0.15845065621555665,-1.5873539206187965,9.762042593369577,-0.0010952240313043373,0.0032710246531739533,0.0,-7.578270829057359,11.739834644979387,-100.5
1772907948.9896195,2.1684193454464813e-06,0.9480809550260137,-9.278157929006662,-0.16494491086517807,-1.5883194356233907,9.76135932307019,0.0,0.0,-0.001090830782496456,-6.203859534232041,12.179180570938186,-100.375
1772907949.015914,2.1684193454464813e-06,0.9480809550260137,-9.278157929006662,-0.16592165609731374,-1.5889574833295055,9.760904614318578,0.0010908297990826197,1.4647440739058361e-06,0.0,-6.203859534232041,12.179180570938186,-100.375
1772907949.0391304,2.1684193454464813e-06,0.9480809550260137,-9.278157929006662,-0.1665716691383409,-1.5893820969504648,9.76060201072381,-1.4647440739058361e-06,0.0010908297990826197,0.0,-6.203859534232041,12.179180570938186,-100.375
1772907949.0697296,2.1684193454464813e-06,0.9480809550260137,-9.278157929006662,-0.16699975381208942,-1.593009781263578,9.760400631411795,-1.4647440739058361e-06,0.0010908297990826197,0.001090830782496456,-7.579781454820388,12.864833630761064,-99.25
1772907949.113377,2.1684193454464813e-06,0.9480809550260137,-9.278157929006662,-0.16728014763651636,-1.598769073341675,9.760266615729202,-0.0010937592872304314,0.0021801948540913336,0.0,-7.579781454820388,12.864833630761064,-99.25
1772907949.1303086,2.1684193454464813e-06,0.9480809550260137,-9.278157929006662,-0.16747123833840177,-1.5992567091925314,9.760177429789492,-1.4647440739058361e-06,0.0010908297990826197,0.001090830782496456,-7.579781454820388,12.864833630761064,-99.25
1772907949.1468337,2.1684193454464813e-06,0.9480809550260137,-9.278157929006662,-0.16747123833840177,-1.5992567091925314,9.760177429789492,-1.4647440739058361e-06,0.0010908297990826197,0.001090830782496456,-7.579781454820388,12.864833630761064,-99.25
1772907949.1655529,2.1684193454464813e-06,0.9480809550260137,-9.278157929006662,-0.16759391532194998,-1.6029263340956363,9.760118077542886,-0.0021801948540913336,-0.0010937592872304312,0.001090830782496456,-7.204278250972151,12.490337510754848,-99.5625
1772907949.188314,2.1684193454464813e-06,0.9480809550260137,-9.278157929006662,-0.16768004722804317,-1.602023319784647,9.763423690993097,-0.0021801948540913336,-0.0010937592872304312,0.001090830782496456,-7.204278250972151,12.490337510754848,-99.5625
1772907949.21775,2.1684193454464813e-06,0.9480809550260137,-9.278157929006662,-0.16768004722804317,-1.602023319784647,9.763423690993097,-0.0021801948540913336,-0.0010937592872304312,0.001090830782496456,-7.204278250972151,12.490337510754848,-99.5625
1772907949.259944,2.1684193454464813e-06,0.9480809550260137,-9.278157929006662,-0.1710824757410013,-1.6014268655919481,9.762278428110772,0.0,0.0,-0.002181661564992912,-7.203858632704644,12.17783779248216,-99.5625
1772907949.304178,2.1684193454464813e-06,0.9480809550260137,-9.278157929006662,-0.17335124565269164,-1.5976848232979273,9.76151626845601,2.9294881478116722e-06,-0.0021816595981652394,-0.002181661564992912,-7.203858632704644,12.17783779248216,-99.5625
1772907949.3317475,2.1684193454464813e-06,0.9480809550260137,-9.278157929006662,-0.17486108668510106,-1.5951945359526076,9.761009059719646,-0.0010937592872304314,0.0021801948540913336,0.001090830782496456,-6.891358914431955,12.178257410749667,-100.75
1772907949.344794,2.1684193454464813e-06,0.9480809550260137,-9.278157929006662,-0.17486108668510106,-1.5951945359526076,9.761009059719646,-0.0010937592872304314,0.0021801948540913336,0.001090830782496456,-6.891358914431955,12.178257410749667,-100.75
1772907949.376906,2.1684193454464813e-06,0.9480809550260137,-9.278157929006662,-0.1758613772822065,-1.5968823862342394,9.760671517971488,-0.001087900310934808,-0.0021831243422391453,-0.001090830782496456,-6.891358914431955,12.178257410749667,-100.75
1772907949.4124498,2.1684193454464813e-06,0.9480809550260137,-9.278157929006662,-0.17652705950060205,-1.5980056317421425,9.760446887708678,0.0010908297990826197,1.4647440739058361e-06,0.001090830782496456,-6.516778870772237,12.491260670943365,-101.25
1772907949.4296575,2.1684193454464813e-06,0.9480809550260137,-9.278157929006662,-0.17652705950060205,-1.5980056317421425,9.760446887708678,0.0010908297990826197,1.4647440739058361e-06,0.001090830782496456,-6.516778870772237,12.491260670943365,-101.25
1772907949.4613128,2.1684193454464813e-06,0.9480809550260137,-9.278157929006662,-0.17362495488917717,-1.5987486473362438,9.760297398778063,-1.4647440739058361e-06,0.0010908297990826197,-0.002181661564992912,-6.516778870772237,12.491260670943365,-101.25
1772907949.481518,2.1684193454464813e-06,0.9480809550260137,-9.278157929006662,-0.17169812843284013,-1.5958980072224807,9.760197915564639,0.0010864355668609021,0.003273954141321765,0.0,-6.890267906936434,11.365758143240678,-100.0
1772907949.5187097,2.1684193454464813e-06,0.9480809550260137,-9.278157929006662,-0.1704158469502097,-1.5940009380705078,9.760131710597406,-0.0021787301100174277,-0.0021845890863130507,-0.001090830782496456,-6.890267906936434,11.365758143240678,-100.0
1772907949.5623922,2.1684193454464813e-06,0.9480809550260137,-9.278157929006662,-0.16956250294754183,-1.5927384597415206,9.76008765193127,-1.4647440739058361e-06,0.0010908297990826197,0.0,-6.515268245009208,11.366261685161687,-100.0
1772907949.5777125,2.1684193454464813e-06,0.9480809550260137,-9.278157929006662,-0.16564501161070036,-1.595238911464063,9.760058331381124,-1.4647440739058361e-06,0.0010908297990826197,0.0,-6.515268245009208,11.366261685161687,-100.0
1772907949.5920541,2.1684193454464813e-06,0.9480809550260137,-9.278157929006662,-0.16564501161070036,-1.595238911464063,9.760058331381124,-1.4647440739058361e-06,0.0010908297990826197,0.0,-6.515268245009208,11.366261685161687,-100.0
1772907949.6089876,2.1684193454464813e-06,0.9480809550260137,-9.278157929006662,-0.1697326740144306,-1.5935668089497965,9.760038818882533,-0.0010893650550087139,-0.0010922945431565253,-0.001090830782496456,-6.515268245009208,11.366261685161687,-100.0
1772907949.6217644,2.1684193454464813e-06,0.9480809550260137,-9.278157929006662,-0.1697326740144306,-1.5935668089497965,9.760038818882533,-0.0010893650550087139,-0.0010922945431565253,-0.001090830782496456,-6.515268245009208,11.366261685161687,-100.0
1772907949.6355028,2.1684193454464813e-06,0.9480809550260137,-9.278157929006662,-0.16576275029871304,-1.592445059917294,9.76002583353269,1.4647440739058361e-06,-0.0010908297990826197,0.002181661564992912,-6.892282074620473,12.865756790949582,-100.75
1772907949.6692662,2.1684193454464813e-06,0.9480809550260137,-9.278157929006662,-0.1664659191044662,-1.5917030402108547,9.760017191927426,0.0,0.0,-0.001090830782496456,-6.892282074620473,12.865756790949582,-100.75
1772907949.695908,2.1684193454464813e-06,0.9480809550260137,-9.278157929006662,-0.1664659191044662,-1.5917030402108547,9.760017191927426,0.0,0.0,-0.001090830782496456,-6.892282074620473,12.865756790949582,-100.75
1772907949.7295284,2.1684193454464813e-06,0.9480809550260137,-9.278157929006662,-0.1669338700897847,-1.5912092343851227,9.760011441035656,-0.0010922945431565256,0.0010893650550087139,0.001090830782496456,-6.203859534232041,12.179180570938186,-100.0625
1772907949.7450163,2.1684193454464813e-06,0.9480809550260137,-9.278157929006662,-0.16724079449922552,-1.5942257208158803,9.763352725588744,-0.0010893650550087139,-0.0010922945431565253,0.001090830782496456,-6.203859534232041,12.179180570938186,-100.0625
1772907949.778466,2.1684193454464813e-06,0.9480809550260137,-9.278157929006662,-0.16744504926513812,-1.596233158839188,9.765576313134229,0.0010922945431565256,-0.0010893650550087139,0.0,-6.203859534232041,12.179180570938186,-100.0625
1772907949.8044553,2.1684193454464813e-06,0.9480809550260137,-9.278157929006662,-0.1709260872217872,-1.5975735781630809,9.767056085806649,0.0010893650550087139,0.0010922945431565253,0.0,-6.891358914431955,12.178257410749667,-100.75
1772907949.8349652,2.1684193454464813e-06,0.9480809550260137,-9.278157929006662,-0.1698975704045858,-1.598461120505733,9.761350634575363,0.0010908297990826197,1.4647440739058361e-06,0.001090830782496456,-6.891358914431955,12.178257410749667,-100.75
1772907949.8750622,2.1684193454464813e-06,0.9480809550260137,-9.278157929006662,-0.17255821264363344,-1.5990562617642041,9.757553720515007,2.9294881478116722e-06,-0.0021816595981652394,0.001090830782496456,-6.891358914431955,12.178257410749667,-100.75
1772907949.918935,2.1684193454464813e-06,0.9480809550260137,-9.278157929006662,-0.1709837316407889,-1.5994478298796193,9.75502691662215,-1.4647440739058361e-06,0.0010908297990826197,0.0,-6.891358914431955,12.178257410749667,-100.75
1772907949.9332275,2.1684193454464813e-06,0.9480809550260137,-9.278157929006662,-0.1709837316407889,-1.5994478298796193,9.75502691662215,-1.4647440739058361e-06,0.0010908297990826197,0.0,-6.891358914431955,12.178257410749667,-100.75
1772907949.951883,2.1684193454464813e-06,0.9480809550260137,-9.278157929006662,-0.1766261495047201,-1.5997173975741932,9.756690468565022,0.0,0.0,0.0,-6.891358914431955,12.178257410749667,-100.75
1772907949.970547,2.1684193454464813e-06,0.9480809550260137,-9.278157929006662,-0.17703600687161936,-1.5998923001197298,9.751107320385271,1.4647440739058361e-06,-0.0010908297990826197,0.001090830782496456,-6.203859534232041,12.179180570938186,-99.5625
1772907949.995806,2.1684193454464813e-06,0.9480809550260137,-9.278157929006662,-0.17730876237088403,-1.600008695809995,9.757427132761457,-2.9294881478116722e-06,0.0021816595981652394,-0.001090830782496456,-6.203859534232041,12.179180570938186,-99.5625
1772907950.0225625,2.1684193454464813e-06,0.9480809550260137,-9.278157929006662,-0.174140677673223,-1.6034267727893177,9.76163289730088,2.9294881478116722e-06,-0.0021816595981652394,0.0,-6.203859534232041,12.179180570938186,-99.5625
1772907950.0647342,2.1684193454464813e-06,0.9480809550260137,-9.278157929006662,-0.1720323526967545,-1.6057014648366348,9.764431786620397,-0.0010937592872304314,0.0021801948540913336,-0.002181661564992912,-8.016357900213633,12.176746784986639,-99.5625
1772907950.117967,2.1684193454464813e-06,0.9480809550260137,-9.278157929006662,-0.17063377772038146,-1.6038701382925398,9.766294416196894,-0.0010922945431565256,0.0010893650550087139,-0.001090830782496456,-8.016357900213633,12.176746784986639,-99.5625
1772907950.1686366,2.1684193454464813e-06,0.9480809550260137,-9.278157929006662,-0.16970753344064493,-1.599306302243093,9.767533975373116,-1.4647440739058361e-06,0.0010908297990826197,-0.001090830782496456,-6.515771786930218,11.741261347088914,-100.75
1772907950.2039123,2.1684193454464813e-06,0.9480809550260137,-9.278157929006662,-0.1690911282193068,-1.5962691203335753,9.768358888158108,1.4647440739058361e-06,-0.0010908297990826197,0.003272492347489368,-6.515771786930218,11.741261347088914,-100.75
1772907950.2339137,2.1684193454464813e-06,0.9480809550260137,-9.278157929006662,-0.17202602612181334,-1.5942524014442698,9.765562746694322,-1.4647440739058361e-06,0.0010908297990826197,-0.001090830782496456,-6.51635925250473,12.178760952670677,-101.25
1772907950.2495995,2.1684193454464813e-06,0.9480809550260137,-9.278157929006662,-0.17397467614704012,-1.5962554062432728,9.760356834077799,0.0021816595981652394,2.9294881478116722e-06,0.0,-6.51635925250473,12.178760952670677,-101.25
1772907950.2992864,2.1684193454464813e-06,0.9480809550260137,-9.278157929006662,-0.17192637227937194,-1.5975838918180458,9.760237469092678,0.0010908297990826197,1.4647440739058361e-06,-0.001090830782496456,-6.51635925250473,12.178760952670677,-99.5625
1772907950.328308,2.1684193454464813e-06,0.9480809550260137,-9.278157929006662,-0.16721814024488266,-1.5984634923839676,9.756812921321155,0.0010908297990826197,1.4647440739058361e-06,0.001090830782496456,-6.51635925250473,12.178760952670677,-99.5625
1772907950.3733377,2.1684193454464813e-06,0.9480809550260137,-9.278157929006662,-0.16721814024488266,-1.5984634923839676,9.756812921321155,0.0010908297990826197,1.4647440739058361e-06,0.001090830782496456,-6.51635925250473,12.178760952670677,-99.5625
1772907950.400423,2.1684193454464813e-06,0.9480809550260137,-9.278157929006662,-0.16408486442032796,-1.5990488567348062,9.76122414644855,0.0010908297990826197,1.4647440739058361e-06,0.0,-6.892282074620473,12.865756790949582,-100.0
1772907950.413784,2.1684193454464813e-06,0.9480809550260137,-9.278157929006662,-0.1619997043600712,-1.5994384101713413,9.760814655786898,0.0010893650550087139,0.0010922945431565253,0.0,-6.892282074620473,12.865756790949582,-100.0
1772907950.429398,2.1684193454464813e-06,0.9480809550260137,-9.278157929006662,-0.1619997043600712,-1.5994384101713413,9.760814655786898,0.0010893650550087139,0.0010922945431565253,0.0,-6.892282074620473,12.865756790949582,-100.0
1772907950.4480143,2.1684193454464813e-06,0.9480809550260137,-9.278157929006662,-0.16061205363273437,-1.5996976536317582,9.76054214432588,0.0,0.0,0.001090830782496456,-6.892282074620473,12.865756790949582,-100.0
1772907950.47238,2.1684193454464813e-06,0.9480809550260137,-9.278157929006662,-0.15968858757476603,-1.5998701772587265,9.760360790992724,0.0,0.0,-0.001090830782496456,-7.203858632704644,12.17783779248216,-100.5
1772907950.5239227,2.1684193454464813e-06,0.9480809550260137,-9.278157929006662,-0.15907403122897987,-1.599984989805259,9.75689499066804,0.0021816595981652394,2.9294881478116722e-06,0.001090830782496456,-7.203858632704644,12.17783779248216,-100.5
1772907950.5386014,2.1684193454464813e-06,0.9480809550260137,-9.278157929006662,-0.15907403122897987,-1.599984989805259,9.75689499066804,0.0021816595981652394,2.9294881478116722e-06,0.001090830782496456,-7.203858632704644,12.17783779248216,-100.5
1772907950.5718203,2.1684193454464813e-06,0.9480809550260137,-9.278157929006662,-0.15866505084590338,-1.6000613962724357,9.754588539267488,0.0010908297990826197,1.4647440739058361e-06,0.001090830782496456,-6.890771448857444,11.740757805167904,-100.75
1772907950.6042988,2.1684193454464813e-06,0.9480809550260137,-9.278157929006662,-0.1583928789695762,-1.600112243922826,9.75305362162517,0.002177265365943522,0.003275418885395671,0.001090830782496456,-6.890771448857444,11.740757805167904,-100.75
1772907950.659759,2.1684193454464813e-06,0.9480809550260137,-9.278157929006662,-0.15821624337017312,-1.5968009737745454,9.752032151080362,0.0021816595981652394,2.9294881478116722e-06,0.0,-7.203271167130132,11.740338186900397,-101.1875
1772907950.687712,2.1684193454464813e-06,0.9480809550260137,-9.278157929006662,-0.16144380304352884,-1.5946018522241097,9.754697485550686,-1.4647440739058361e-06,0.0010908297990826197,0.0,-7.203271167130132,11.740338186900397,-101.1875
1772907950.7152455,2.1684193454464813e-06,0.9480809550260137,-9.278157929006662,-0.16359170795194314,-1.5931383613980918,9.756471235866949,1.4647440739058361e-06,-0.0010908297990826197,-0.001090830782496456,-6.891778532699463,12.490757129022356,-99.5625
1772907950.7382224,2.1684193454464813e-06,0.9480809550260137,-9.278157929006662,-0.16502111467482292,-1.5921644246016409,9.757651646888332,0.0021816595981652394,2.9294881478116722e-06,-0.001090830782496456,-6.891778532699463,12.490757129022356,-99.5625
1772907950.7589762,2.1684193454464813e-06,0.9480809550260137,-9.278157929006662,-0.16262726018977056,-1.591511788799256,9.758437197237008,-0.001087900310934808,-0.0021831243422391453,0.0,-6.891778532699463,12.490757129022356,-99.5625
1772907950.7908332,2.1684193454464813e-06,0.9480809550260137,-9.278157929006662,-0.16437479371875088,-1.5944270673987317,9.758959972218879,-0.0010922945431565256,0.0010893650550087139,0.002181661564992912,-7.579277912899378,12.489833968833839,-99.5625
1772907950.818535,2.1684193454464813e-06,0.9480809550260137,-9.278157929006662,-0.1621971408133827,-1.5930175523053436,9.752617649714896,0.0010908297990826197,1.4647440739058361e-06,-0.001090830782496456,-7.579277912899378,12.489833968833839,-99.5625
1772907950.8464036,2.1684193454464813e-06,0.9480809550260137,-9.278157929006662,-0.1621971408133827,-1.5930175523053436,9.752617649714896,0.0010908297990826197,1.4647440739058361e-06,-0.001090830782496456,-7.579277912899378,12.489833968833839,-99.5625
1772907950.878405,2.1684193454464813e-06,0.9480809550260137,-9.278157929006662,-0.1640930458224466,-1.592084027499943,9.75508712835152,-0.0010908297990826197,-1.4647440739058361e-06,0.0,-6.51635925250473,12.178760952670677,-100.75
1772907950.8944519,2.1684193454464813e-06,0.9480809550260137,-9.278157929006662,-0.16869985811894156,-1.5914672689140377,9.756730538798308,-0.0010893650550087139,-0.0010922945431565253,0.0,-6.51635925250473,12.178760952670677,-100.75
1772907950.9065437,2.1684193454464813e-06,0.9480809550260137,-9.278157929006662,-0.16869985811894156,-1.5914672689140377,9.756730538798308,-0.0010893650550087139,-0.0010922945431565253,0.0,-6.51635925250473,12.178760952670677,-100.75
1772907950.92164,2.1684193454464813e-06,0.9480809550260137,-9.278157929006662,-0.17175665675292648,-1.5977470403479817,9.757824210092549,-0.0021816595981652394,-2.9294881478116722e-06,0.0,-6.51635925250473,12.178760952670677,-100.75
1772907950.935445,2.1684193454464813e-06,0.9480809550260137,-9.278157929006662,-0.17175665675292648,-1.5977470403479817,9.757824210092549,-0.0021816595981652394,-2.9294881478116722e-06,0.0,-6.51635925250473,12.178760952670677,-100.75
1772907950.973886,2.1684193454464813e-06,0.9480809550260137,-9.278157929006662,-0.17379092209716532,-1.601926158087628,9.758552036121758,0.0,0.0,-0.002181661564992912,-8.015770434639123,11.739247179404876,-100.0
1772907951.0039022,2.1684193454464813e-06,0.9480809550260137,-9.278157929006662,-0.16845448557630432,-1.6046983307716916,9.759036396213846,-0.002177265365943522,-0.003275418885395671,-0.001090830782496456,-8.015770434639123,11.739247179404876,-100.0
1772907951.0353208,2.1684193454464813e-06,0.9480809550260137,-9.278157929006662,-0.16845448557630432,-1.6046983307716916,9.759036396213846,-0.002177265365943522,-0.003275418885395671,-0.001090830782496456,-8.015770434639123,11.739247179404876,-100.0
1772907951.0632105,2.1684193454464813e-06,0.9480809550260137,-9.278157929006662,-0.16491213017144044,-1.5998529633425187,9.759358732444474,0.0,0.0,0.002181661564992912,-6.516778870772237,12.491260670943365,-100.75
1772907951.1051774,-0.007318258192296737,0.9468266586001183,-10.169968371686387,-0.1659043326557493,-1.593287808497029,9.759573243605224,-1.4647440739058361e-06,0.0010908297990826197,-0.003272492347489368,-6.516778870772237,12.491260670943365,-100.75
1772907951.13026,2.1684193454464813e-06,0.9480809550260137,-9.278157929006662,-0.16699956263563637,-1.5893563345172488,9.759811000098694,-0.0010937592872304314,0.0021801948540913336,0.0,-7.202767625209122,11.36533852497317,-100.75
1772907951.1650846,2.1684193454464813e-06,0.9480809550260137,-9.278157929006662,-0.16699956263563637,-1.5893563345172488,9.759811000098694,-0.0010937592872304314,0.0021801948540913336,0.0,-7.202767625209122,11.36533852497317,-100.75
1772907951.189294,2.1684193454464813e-06,0.9480809550260137,-9.278157929006662,-0.1672890038985896,-1.5896475279604483,9.759874222676947,0.0010893650550087139,0.0010922945431565253,-0.001090830782496456,-6.516778870772237,12.491260670943365,-99.5625
1772907951.2099795,2.1684193454464813e-06,0.9480809550260137,-9.278157929006662,-0.1641320233902711,-1.5931819308917294,9.756571184889214,-2.9294881478116722e-06,0.0021816595981652394,0.002181661564992912,-6.516778870772237,12.491260670943365,-99.5625
1772907951.226669,2.1684193454464813e-06,0.9480809550260137,-9.278157929006662,-0.1641320233902711,-1.5931819308917294,9.756571184889214,-2.9294881478116722e-06,0.0021816595981652394,0.002181661564992912,-6.516778870772237,12.491260670943365,-99.5625
1772907951.270699,2.1684193454464813e-06,0.9480809550260137,-9.278157929006662,-0.1620310881277681,-1.5955340365606294,9.754373050138827,-1.4647440739058361e-06,0.0010908297990826197,-0.001090830782496456,-6.516778870772237,12.491260670943365,-99.5625
1772907951.2893565,2.1684193454464813e-06,0.9480809550260137,-9.278157929006662,-0.1606284474356234,-1.60044444530015,9.756255327724539,-0.0010908297990826197,-1.4647440739058361e-06,0.0,-6.51635925250473,12.178760952670677,-99.5625
1772907951.3081124,2.1684193454464813e-06,0.9480809550260137,-9.278157929006662,-0.1663852231067434,-1.6037212509513084,9.757507962431411,-0.0010908297990826197,-1.4647440739058361e-06,-0.002181661564992912,-6.51635925250473,12.178760952670677,-99.5625
1772907951.3343577,2.1684193454464813e-06,0.9480809550260137,-9.278157929006662,-0.16353505911312397,-1.5992027276367506,9.758341576835988,-0.0010922945431565256,0.0010893650550087139,0.0,-6.51635925250473,12.178760952670677,-99.5625
1772907951.3780077,2.1684193454464813e-06,0.9480809550260137,-9.278157929006662,-0.16353505911312397,-1.5992027276367506,9.758341576835988,-0.0010922945431565256,0.0010893650550087139,0.0,-6.51635925250473,12.178760952670677,-99.5625
1772907951.4027097,2.1684193454464813e-06,0.9480809550260137,-9.278157929006662,-0.1616383068137882,-1.5961957008461252,9.755551226202831,0.0010893650550087139,0.0010922945431565253,0.001090830782496456,-6.890267906936434,11.365758143240678,-100.0
1772907951.427976,2.1684193454464813e-06,0.9480809550260137,-9.278157929006662,-0.16037154760275818,-1.5975396667992634,9.753694279026725,-1.4647440739058361e-06,0.0010908297990826197,0.0,-6.890267906936434,11.365758143240678,-100.0
1772907951.4454339,2.1684193454464813e-06,0.9480809550260137,-9.278157929006662,-0.16037154760275818,-1.5975396667992634,9.753694279026725,-1.4647440739058361e-06,0.0010908297990826197,0.0,-6.890267906936434,11.365758143240678,-100.0
1772907951.48296,2.1684193454464813e-06,0.9480809550260137,-9.278157929006662,-0.16287364219005476,-1.5984385528719274,9.752458501424485,-0.001087900310934808,-0.0021831243422391453,0.001090830782496456,-6.891358914431955,12.178257410749667,-99.5625
1772907951.5117512,2.1684193454464813e-06,0.9480809550260137,-9.278157929006662,-0.16788835862321588,-1.5956961345643939,9.754981216942054,-0.0032710246531739533,-0.001095224031304337,0.002181661564992912,-6.891358914431955,12.178257410749667,-99.5625
1772907951.5358782,2.1684193454464813e-06,0.9480809550260137,-9.278157929006662,-0.16788835862321588,-1.5956961345643939,9.754981216942054,-0.0032710246531739533,-0.001095224031304337,0.002181661564992912,-6.891358914431955,12.178257410749667,-99.5625
1772907951.569516,2.1684193454464813e-06,0.9480809550260137,-9.278157929006662,-0.16788048769982206,-1.5938665940716163,9.756660055938417,0.0010922945431565256,-0.0010893650550087139,0.0,-6.892282074620473,12.865756790949582,-100.0
1772907951.6131866,2.1684193454464813e-06,0.9480809550260137,-9.278157929006662,-0.16787524968822742,-1.5926490553109796,9.761122416243955,1.4647440739058361e-06,-0.0010908297990826197,-0.001090830782496456,-6.892282074620473,12.865756790949582,-100.0
1772907951.6293147,2.1684193454464813e-06,0.9480809550260137,-9.278157929006662,-0.16118154646680455,-1.5918298133787074,9.760746955472142,-0.0010937592872304314,0.0021801948540913336,-0.001090830782496456,-7.579277912899378,12.489833968833839,-100.0
1772907951.649164,2.1684193454464813e-06,0.9480809550260137,-9.278157929006662,-0.16341717912973105,-1.5912936005121798,9.76384220222999,-1.4647440739058361e-06,0.0010908297990826197,0.0,-7.579277912899378,12.489833968833839,-100.0
1772907951.6660914,2.1684193454464813e-06,0.9480809550260137,-9.278157929006662,-0.16341717912973105,-1.5912936005121798,9.76384220222999,-1.4647440739058361e-06,0.0010908297990826197,0.0,-7.579277912899378,12.489833968833839,-100.0
1772907951.7025015,2.1684193454464813e-06,0.9480809550260137,-9.278157929006662,-0.1649004759493219,-1.5942818655310054,9.765902054371166,-0.0010908297990826197,-1.4647440739058361e-06,0.001090830782496456,-7.579277912899378,12.489833968833839,-100.0
1772907951.7248456,2.1684193454464813e-06,0.9480809550260137,-9.278157929006662,-0.1658875934132484,-1.5962705225199263,9.767272862961063,-0.0010922945431565256,0.0010893650550087139,-0.001090830782496456,-5.766359928650278,12.179768036512696,-100.0
1772907951.767594,2.1684193454464813e-06,0.9480809550260137,-9.278157929006662,-0.1665445090586669,-1.597593951531299,9.761494897350065,-0.0010922945431565256,0.0010893650550087139,0.0,-5.766359928650278,12.179768036512696,-100.0
1772907951.7846618,2.1684193454464813e-06,0.9480809550260137,-9.278157929006662,-0.16363657039085483,-1.598470187010763,9.757649725780052,-0.0010937592872304314,0.0021801948540913336,0.0,-5.766359928650278,12.179768036512696,-100.0
1772907951.7980683,2.1684193454464813e-06,0.9480809550260137,-9.278157929006662,-0.16363657039085483,-1.598470187010763,9.757649725780052,-0.0010937592872304314,0.0021801948540913336,0.0,-5.766359928650278,12.179768036512696,-100.0
1772907951.8105035,2.1684193454464813e-06,0.9480809550260137,-9.278157929006662,-0.16170136969122925,-1.5990533119341548,9.755090807053588,-0.0021801948540913336,-0.0010937592872304312,0.001090830782496456,-6.891778532699463,12.490757129022356,-101.1875
1772907951.8223734,2.1684193454464813e-06,0.9480809550260137,-9.278157929006662,-0.16376760742271337,-1.5927556494174542,9.753387875226121,-0.0010908297990826197,-1.4647440739058361e-06,-0.002181661564992912,-6.891778532699463,12.490757129022356,-101.1875
1772907951.8444872,2.1684193454464813e-06,0.9480809550260137,-9.278157929006662,-0.16376760742271337,-1.5927556494174542,9.753387875226121,-0.0010908297990826197,-1.4647440739058361e-06,-0.002181661564992912,-6.891778532699463,12.490757129022356,-101.1875
1772907951.8697696,2.1684193454464813e-06,0.9480809550260137,-9.278157929006662,-0.16513817380769466,-1.5919097340536996,9.752254593117938,1.4647440739058361e-06,-0.0010908297990826197,0.002181661564992912,-6.891778532699463,12.490757129022356,-101.1875
1772907951.9052076,2.1684193454464813e-06,0.9480809550260137,-9.278157929006662,-0.16513817380769466,-1.5919097340536996,9.752254593117938,1.4647440739058361e-06,-0.0010908297990826197,0.002181661564992912,-6.891778532699463,12.490757129022356,-101.1875
1772907951.9301407,2.1684193454464813e-06,0.9480809550260137,-9.278157929006662,-0.16605476217060358,-1.588001678137005,9.75484551824185,0.0,0.0,-0.002181661564992912,-6.891358914431955,12.178257410749667,-98.875
1772907951.9519584,2.1684193454464813e-06,0.9480809550260137,-9.278157929006662,-0.166660249743223,-1.5887460192718992,9.756569749969286,-0.0010893650550087139,-0.0010922945431565253,0.0,-6.891358914431955,12.178257410749667,-98.875
1772907951.9763896,2.1684193454464813e-06,0.9480809550260137,-9.278157929006662,-0.16705870321512828,-1.5925864786739456,9.757717206922964,0.001087900310934808,0.0021831243422391453,0.0,-7.204278250972151,12.490337510754848,-101.1875
1772907951.9946811,2.1684193454464813e-06,0.9480809550260137,-9.278157929006662,-0.16705870321512828,-1.5925864786739456,9.757717206922964,0.001087900310934808,0.0021831243422391453,0.0,-7.204278250972151,12.490337510754848,-101.1875
1772907952.0097997,2.1684193454464813e-06,0.9480809550260137,-9.278157929006662,-0.1673238695496643,-1.595142261505265,9.758480826707702,-0.0010908297990826197,-1.4647440739058361e-06,-0.001090830782496456,-7.204278250972151,12.490337510754848,-101.1875
1772907952.0235715,2.1684193454464813e-06,0.9480809550260137,-9.278157929006662,-0.16415522609158648,-1.5968386146856095,9.755643895436934,0.0010908297990826197,1.4647440739058361e-06,-0.001090830782496456,-7.204278250972151,12.490337510754848,-101.1875
1772907952.0410163,2.1684193454464813e-06,0.9480809550260137,-9.278157929006662,-0.16415522609158648,-1.5968386146856095,9.755643895436934,0.0010908297990826197,1.4647440739058361e-06,-0.001090830782496456,-7.204278250972151,12.490337510754848,-101.1875
1772907952.0589828,2.1684193454464813e-06,0.9480809550260137,-9.278157929006662,-0.16415522609158648,-1.5968386146856095,9.755643895436934,0.0010908297990826197,1.4647440739058361e-06,-0.001090830782496456,-7.204278250972151,12.490337510754848,-101.1875
1772907952.1040099,2.1684193454464813e-06,0.9480809550260137,-9.278157929006662,-0.1620510210102359,-1.5946224100860127,9.757101061074156,-1.4647440739058361e-06,0.0010908297990826197,0.0,-6.204279152499549,12.491680289210874,-100.5
1772907952.1338158,2.1684193454464813e-06,0.9480809550260137,-9.278157929006662,-0.16065069603410803,-1.5931475506816086,9.7547256768208,-0.0010937592872304314,0.0021801948540913336,0.001090830782496456,-6.204279152499549,12.491680289210874,-100.5
1772907952.163528,2.1684193454464813e-06,0.9480809550260137,-9.278157929006662,-0.15971879540514985,-1.5921660482232367,9.756489996842292,0.0,0.0,0.0,-6.20327206865753,11.741680965356421,-101.5625
1772907952.1783776,2.1684193454464813e-06,0.9480809550260137,-9.278157929006662,-0.1657888433298094,-1.5915218527891581,9.75766413210785,-0.0021801948540913336,-0.0010937592872304312,0.0,-6.20327206865753,11.741680965356421,-101.5625
1772907952.1919923,2.1684193454464813e-06,0.9480809550260137,-9.278157929006662,-0.1657888433298094,-1.5915218527891581,9.75766413210785,-0.0021801948540913336,-0.0010937592872304312,0.0,-6.20327206865753,11.741680965356421,-101.5625
1772907952.2110243,2.1684193454464813e-06,0.9480809550260137,-9.278157929006662,-0.16648328372518253,-1.5910886561799797,9.758445506011128,-0.001087900310934808,-0.0021831243422391453,0.001090830782496456,-6.20327206865753,11.741680965356421,-101.5625
1772907952.235813,2.1684193454464813e-06,0.9480809550260137,-9.278157929006662,-0.16648328372518253,-1.5910886561799797,9.758445506011128,-0.001087900310934808,-0.0021831243422391453,0.001090830782496456,-6.20327206865753,11.741680965356421,-101.5625
1772907952.2599812,2.1684193454464813e-06,0.9480809550260137,-9.278157929006662,-0.1702905347425054,-1.5908048604196283,9.76231061332256,-0.0010893650550087139,-0.0010922945431565253,-0.001090830782496456,-7.203858632704644,12.17783779248216,-100.5
1772907952.2829044,2.1684193454464813e-06,0.9480809550260137,-9.278157929006662,-0.16947461732921013,-1.593956614458997,9.76488279906224,0.0010864355668609021,0.003273954141321765,0.0,-7.203858632704644,12.17783779248216,-100.5
1772907952.2978163,2.1684193454464813e-06,0.9480809550260137,-9.278157929006662,-0.16892714166112327,-1.5993991802564065,9.7665945599388,-0.0010908297990826197,-1.4647440739058361e-06,0.0,-7.203858632704644,12.17783779248216,-100.5
1772907952.3133118,2.1684193454464813e-06,0.9480809550260137,-9.278157929006662,-0.16892714166112327,-1.5993991802564065,9.7665945599388,-0.0010908297990826197,-1.4647440739058361e-06,0.0,-7.203858632704644,12.17783779248216,-100.5
1772907952.3470328,2.1684193454464813e-06,0.9480809550260137,-9.278157929006662,-0.17166544791575056,-1.6054360171470106,9.75957545654391,-0.0010922945431565256,0.0010893650550087139,0.0,-7.57885829463187,12.17733425056115,-100.0
1772907952.366776,2.1684193454464813e-06,0.9480809550260137,-9.278157929006662,-0.17166544791575056,-1.6054360171470106,9.75957545654391,-0.0010922945431565256,0.0010893650550087139,0.0,-7.57885829463187,12.17733425056115,-100.0
1772907952.4015782,2.1684193454464813e-06,0.9480809550260137,-9.278157929006662,-0.17177416201800938,-1.5969655987346396,9.757585845680884,-2.9294881478116722e-06,0.0021816595981652394,-0.002181661564992912,-7.204278250972151,12.490337510754848,-100.75
1772907952.432862,2.1684193454464813e-06,0.9480809550260137,-9.278157929006662,-0.17046644645178902,-1.594711408296071,9.7583934072685,-0.0021816595981652394,-2.9294881478116722e-06,-0.002181661564992912,-7.204278250972151,12.490337510754848,-100.75
1772907952.4476025,2.1684193454464813e-06,0.9480809550260137,-9.278157929006662,-0.17046644645178902,-1.594711408296071,9.7583934072685,-0.0021816595981652394,-2.9294881478116722e-06,-0.002181661564992912,-7.204278250972151,12.490337510754848,-100.75
1772907952.4747543,2.1684193454464813e-06,0.9480809550260137,-9.278157929006662,-0.16959617635060942,-1.5932112697401608,9.758930830484003,-4.394232221717509e-06,0.003272489397247859,0.0,-7.204278250972151,12.490337510754848,-100.75
1772907952.4910817,2.1684193454464813e-06,0.9480809550260137,-9.278157929006662,-0.16959617635060942,-1.5932112697401608,9.758930830484003,-4.394232221717509e-06,0.003272489397247859,0.0,-7.204278250972151,12.490337510754848,-100.75
1772907952.524008,2.1684193454464813e-06,0.9480809550260137,-9.278157929006662,-0.16902151306376198,-1.5888678355972385,9.75928847963051,-1.4647440739058361e-06,0.0010908297990826197,-0.001090830782496456,-6.516778870772237,12.491260670943365,-100.0625
1772907952.5476549,2.1684193454464813e-06,0.9480809550260137,-9.278157929006662,-0.16529397237416502,-1.5859728369505288,9.766216714556945,-1.4647440739058361e-06,0.0010908297990826197,-0.001090830782496456,-6.516778870772237,12.491260670943365,-100.0625
1772907952.5648642,2.1684193454464813e-06,0.9480809550260137,-9.278157929006662,-0.1628043521967289,-1.5907364650736164,9.770827377507034,-0.0010908297990826197,-1.4647440739058361e-06,0.0,-6.516778870772237,12.491260670943365,-100.0625
1772907952.604531,2.1684193454464813e-06,0.9480809550260137,-9.278157929006662,-0.1611430460355912,-1.597251715067928,9.773895722195839,-0.0010908297990826197,-1.4647440739058361e-06,-0.002181661564992912,-6.890771448857444,11.740757805167904,-101.25
1772907952.644706,2.1684193454464813e-06,0.9480809550260137,-9.278157929006662,-0.16672768272657892,-1.6015965246468982,9.772592559603263,-0.0010893650550087139,-0.0010922945431565253,0.0,-6.890771448857444,11.740757805167904,-101.25
1772907952.6592162,2.1684193454464813e-06,0.9480809550260137,-9.278157929006662,-0.16672768272657892,-1.6015965246468982,9.772592559603263,-0.0010893650550087139,-0.0010922945431565253,0.0,-6.890771448857444,11.740757805167904,-101.25
1772907952.681399,2.1684193454464813e-06,0.9480809550260137,-9.278157929006662,-0.16375397867673275,-1.6044789633991325,9.771725319455182,-0.0010908297990826197,-1.4647440739058361e-06,-0.001090830782496456,-6.890771448857444,11.740757805167904,-101.25
1772907952.701015,2.1684193454464813e-06,0.9480809550260137,-9.278157929006662,-0.16177950359394447,-1.6030520854981845,9.771148180824342,-2.9294881478116722e-06,0.0021816595981652394,-0.001090830782496456,-7.203858632704644,12.17783779248216,-100.75
1772907952.7231605,2.1684193454464813e-06,0.9480809550260137,-9.278157929006662,-0.16046551248268082,-1.6021025141943739,9.767418989805261,-0.002177265365943522,-0.003275418885395671,0.0,-7.203858632704644,12.17783779248216,-100.75
1772907952.7371125,2.1684193454464813e-06,0.9480809550260137,-9.278157929006662,-0.15959106607637724,-1.6014705850990947,9.764937254839856,-0.0010922945431565256,0.0010893650550087139,-0.001090830782496456,-7.203858632704644,12.17783779248216,-100.75
1772907952.7639227,2.1684193454464813e-06,0.9480809550260137,-9.278157929006662,-0.15959106607637724,-1.6014705850990947,9.764937254839856,-0.0010922945431565256,0.0010893650550087139,-0.001090830782496456,-7.203858632704644,12.17783779248216,-100.75
1772907952.7919977,2.1684193454464813e-06,0.9480809550260137,-9.278157929006662,-0.15900913176118867,-1.6010500433452968,9.763285687943174,-0.0010922945431565256,0.0010893650550087139,-0.001090830782496456,-6.517282412693247,12.866260332870592,-99.5625
1772907952.8190444,2.1684193454464813e-06,0.9480809550260137,-9.278157929006662,-0.15862186097506287,-1.6007701775059033,9.762186588622644,0.0,0.0,0.0,-6.517282412693247,12.866260332870592,-99.5625
1772907952.8536246,2.1684193454464813e-06,0.9480809550260137,-9.278157929006662,-0.15862186097506287,-1.6007701775059033,9.762186588622644,0.0,0.0,0.0,-6.517282412693247,12.866260332870592,-99.5625
1772907952.9007185,2.1684193454464813e-06,0.9480809550260137,-9.278157929006662,-0.1650543539762134,-1.6005929134039607,9.761455150302574,0.0021831243422391453,-0.001087900310934808,-0.002181661564992912,-7.203858632704644,12.17783779248216,-100.5
1772907952.924177,2.1684193454464813e-06,0.9480809550260137,-9.278157929006662,-0.16933510621282405,-1.6004749461242873,9.76096838627127,0.0010937592872304314,-0.0021801948540913336,-0.001090830782496456,-7.203858632704644,12.17783779248216,-100.5
1772907952.9445882,2.1684193454464813e-06,0.9480809550260137,-9.278157929006662,-0.1621485729323241,-1.6003829649856451,9.757299338538626,-0.0021801948540913336,-0.0010937592872304312,0.0,-7.203858632704644,12.17783779248216,-100.5
1772907952.9676232,2.1684193454464813e-06,0.9480809550260137,-9.278157929006662,-0.1621485729323241,-1.6003829649856451,9.757299338538626,-0.0021801948540913336,-0.0010937592872304312,0.0,-7.203858632704644,12.17783779248216,-100.5
1772907952.9906247,2.1684193454464813e-06,0.9480809550260137,-9.278157929006662,-0.15736601531298824,-1.6003217525653752,9.75820273996582,0.0,0.0,-0.001090830782496456,-6.890267906936434,11.365758143240678,-101.1875
1772907953.0137084,2.1684193454464813e-06,0.9480809550260137,-9.278157929006662,-0.15736601531298824,-1.6003217525653752,9.75820273996582,0.0,0.0,-0.001090830782496456,-6.890267906936434,11.365758143240678,-101.1875
1772907953.0491664,2.1684193454464813e-06,0.9480809550260137,-9.278157929006662,-0.15752389358966531,-1.6036306168190164,9.762149055231284,1.4647440739058361e-06,-0.0010908297990826197,-0.001090830782496456,-6.890267906936434,11.365758143240678,-101.1875
1772907953.071113,2.1684193454464813e-06,0.9480809550260137,-9.278157929006662,-0.15762895981917796,-1.6058326290173788,9.764775283957219,-0.0010893650550087139,-0.0010922945431565253,-0.001090830782496456,-6.51635925250473,12.178760952670677,-100.0625
1772907953.0918772,2.1684193454464813e-06,0.9480809550260137,-9.278157929006662,-0.15762895981917796,-1.6058326290173788,9.764775283957219,-0.0010893650550087139,-0.0010922945431565253,-0.001090830782496456,-6.51635925250473,12.178760952670677,-100.0625
1772907953.1304667,2.1684193454464813e-06,0.9480809550260137,-9.278157929006662,-0.16104398891286154,-1.6073025352812347,9.76986812154475,0.0,0.0,0.001090830782496456,-6.51635925250473,12.178760952670677,-100.0625
1772907953.1519952,2.1684193454464813e-06,0.9480809550260137,-9.278157929006662,-0.1599760356786574,-1.6049311410443587,9.77325734806853,1.4647440739058361e-06,-0.0010908297990826197,0.0,-7.202767625209122,11.36533852497317,-100.0
1772907953.1832645,2.1684193454464813e-06,0.9480809550260137,-9.278157929006662,-0.16595554211433294,-1.6033619881577943,9.775512840459964,0.0010922945431565256,-0.0010893650550087139,0.001090830782496456,-7.202767625209122,11.36533852497317,-100.0
1772907953.1966238,2.1684193454464813e-06,0.9480809550260137,-9.278157929006662,-0.16595554211433294,-1.6033619881577943,9.775512840459964,0.0010922945431565256,-0.0010893650550087139,0.001090830782496456,-7.202767625209122,11.36533852497317,-100.0
1772907953.2116456,2.1684193454464813e-06,0.9480809550260137,-9.278157929006662,-0.16993932859574506,-1.5989726257487624,9.773668733743643,-2.9294881478116722e-06,0.0021816595981652394,0.0,-7.202767625209122,11.36533852497317,-100.0
1772907953.2266903,2.1684193454464813e-06,0.9480809550260137,-9.278157929006662,-0.17259049399731394,-1.5960515540979425,9.769096389616633,-0.0010893650550087139,-0.0010922945431565253,0.0,-6.891778532699463,12.490757129022356,-100.0
1772907953.2444046,2.1684193454464813e-06,0.9480809550260137,-9.278157929006662,-0.17259049399731394,-1.5960515540979425,9.769096389616633,-0.0010893650550087139,-0.0010922945431565253,0.0,-6.891778532699463,12.490757129022356,-100.0
1772907953.2755487,2.1684193454464813e-06,0.9480809550260137,-9.278157929006662,-0.16766459757338098,-1.594098630056963,9.76605354567654,-0.0010908297990826197,-1.4647440739058361e-06,-0.001090830782496456,-6.891778532699463,12.490757129022356,-100.0
1772907953.2973652,2.1684193454464813e-06,0.9480809550260137,-9.278157929006662,-0.1643864685291221,-1.5927989809232823,9.764028567025202,-0.0010922945431565256,0.0010893650550087139,-0.001090830782496456,-7.203858632704644,12.17783779248216,-100.875
1772907953.3264153,2.1684193454464813e-06,0.9480809550260137,-9.278157929006662,-0.1622049102692686,-1.59193407894285,9.76268096635323,0.0,0.0,-0.001090830782496456,-7.203858632704644,12.17783779248216,-100.875
1772907953.3688686,2.1684193454464813e-06,0.9480809550260137,-9.278157929006662,-0.16409372456461457,-1.5947080967720033,9.761784153159718,-0.0010908297990826197,-1.4647440739058361e-06,-0.001090830782496456,-6.203859534232041,12.179180570938186,-100.0
1772907953.4156477,2.1684193454464813e-06,0.9480809550260137,-9.278157929006662,-0.16409372456461457,-1.5947080967720033,9.761784153159718,-0.0010908297990826197,-1.4647440739058361e-06,-0.001090830782496456,-6.203859534232041,12.179180570938186,-100.0
1772907953.4521272,2.1684193454464813e-06,0.9480809550260137,-9.278157929006662,-0.16535070937872917,-1.5965541746494956,9.761187333997496,-0.002187518574460863,0.004360389708182667,0.001090830782496456,-6.203859534232041,12.179180570938186,-100.0
1772907953.4790602,2.1684193454464813e-06,0.9480809550260137,-9.278157929006662,-0.16618272698714842,-1.6011278275465348,9.760790157511943,-1.4647440739058361e-06,0.0010908297990826197,-0.001090830782496456,-7.203271167130132,11.740338186900397,-100.0
1772907953.509983,2.1684193454464813e-06,0.9480809550260137,-9.278157929006662,-0.1700815341029153,-1.6041760342023976,9.76052584099756,-0.0021816595981652394,-2.9294881478116722e-06,0.0,-7.203271167130132,11.740338186900397,-100.0
1772907953.5330245,2.1684193454464813e-06,0.9480809550260137,-9.278157929006662,-0.17267614668592896,-1.6062045816811747,9.760349941309848,-0.002177265365943522,-0.003275418885395671,0.0,-7.578270829057359,11.739834644979387,-100.75
1772907953.5754197,2.1684193454464813e-06,0.9480809550260137,-9.278157929006662,-0.16771710673691742,-1.6042004651884643,9.760232882032604,-0.0010952240313043373,0.0032710246531739533,0.0,-7.578270829057359,11.739834644979387,-100.75
1772907953.6075647,2.1684193454464813e-06,0.9480809550260137,-9.278157929006662,-0.1644169210469562,-1.6028667480500136,9.756809868683916,-0.0010893650550087139,-0.0010922945431565253,-0.001090830782496456,-6.890771448857444,11.740757805167904,-100.5
1772907953.6348472,2.1684193454464813e-06,0.9480809550260137,-9.278157929006662,-0.1644169210469562,-1.6028667480500136,9.756809868683916,-0.0010893650550087139,-0.0010922945431565253,-0.001090830782496456,-6.890771448857444,11.740757805167904,-100.5
1772907953.6691465,2.1684193454464813e-06,0.9480809550260137,-9.278157929006662,-0.16221619259184314,-1.6053242828845808,9.754531891537928,-0.0010893650550087139,-0.0010922945431565253,-0.003272492347489368,-6.890771448857444,11.740757805167904,-100.5
1772907953.6930635,2.1684193454464813e-06,0.9480809550260137,-9.278157929006662,-0.16409674108032254,-1.6069642366084558,9.763051258315903,1.4647440739058361e-06,-0.0010908297990826197,0.0,-6.516778870772237,12.491260670943365,-100.0
1772907953.7137008,2.1684193454464813e-06,0.9480809550260137,-9.278157929006662,-0.16409674108032254,-1.6069642366084558,9.763051258315903,1.4647440739058361e-06,-0.0010908297990826197,0.0,-6.516778870772237,12.491260670943365,-100.0
1772907953.728554,2.1684193454464813e-06,0.9480809550260137,-9.278157929006662,-0.16535271683623612,-1.6047104988006018,9.768720801739082,-0.0010952240313043373,0.0032710246531739533,-0.001090830782496456,-6.516778870772237,12.491260670943365,-100.0
1772907953.7447069,2.1684193454464813e-06,0.9480809550260137,-9.278157929006662,-0.1661885546716281,-1.6032106614653758,9.765803596139621,-0.0010952240313043373,0.0032710246531739533,0.0,-6.516778870772237,12.491260670943365,-100.0
1772907953.7669027,2.1684193454464813e-06,0.9480809550260137,-9.278157929006662,-0.1661885546716281,-1.6032106614653758,9.765803596139621,-0.0010952240313043373,0.0032710246531739533,0.0,-6.516778870772237,12.491260670943365,-100.0
1772907953.7812521,2.1684193454464813e-06,0.9480809550260137,-9.278157929006662,-0.16674928715809464,-1.5988674277814543,9.763862228400502,0.0,0.0,0.0,-8.015770434639123,11.739247179404876,-99.25
1772907953.805664,2.1684193454464813e-06,0.9480809550260137,-9.278157929006662,-0.16712244836404583,-1.5959770542819038,9.765915381563936,-1.4647440739058361e-06,0.0010908297990826197,-0.001090830782496456,-8.015770434639123,11.739247179404876,-99.25
1772907953.8209887,2.1684193454464813e-06,0.9480809550260137,-9.278157929006662,-0.16712244836404583,-1.5959770542819038,9.765915381563936,-1.4647440739058361e-06,0.0010908297990826197,-0.001090830782496456,-8.015770434639123,11.739247179404876,-99.25
1772907953.8447733,2.1684193454464813e-06,0.9480809550260137,-9.278157929006662,-0.16737078297812255,-1.5940535430055405,9.767281732058978,-4.394232221717509e-06,0.003272489397247859,-0.003272492347489368,-8.015770434639123,11.739247179404876,-99.25
1772907953.85932,2.1684193454464813e-06,0.9480809550260137,-9.278157929006662,-0.17087666383738717,-1.5961230681736926,9.77153613475761,-0.0010893650550087139,-0.0010922945431565253,-0.001090830782496456,-6.20327206865753,11.741680965356421,-100.5
1772907953.8861096,2.1684193454464813e-06,0.9480809550260137,-9.278157929006662,-0.16986917143829652,-1.594150713619444,9.76767716881412,-0.0010893650550087139,-0.0010922945431565253,-0.001090830782496456,-6.20327206865753,11.741680965356421,-100.5
1772907953.900132,2.1684193454464813e-06,0.9480809550260137,-9.278157929006662,-0.16986917143829652,-1.594150713619444,9.76767716881412,-0.0010893650550087139,-0.0010922945431565253,-0.001090830782496456,-6.20327206865753,11.741680965356421,-100.5
1772907953.9207957,2.1684193454464813e-06,0.9480809550260137,-9.278157929006662,-0.16919420475719563,-1.5961832423878448,9.768454181793523,0.0,0.0,0.0,-5.766779546917785,12.492267754785384,-100.75
1772907953.9409997,2.1684193454464813e-06,0.9480809550260137,-9.278157929006662,-0.16874502197079486,-1.5975358675783815,9.76897127525151,0.0010922945431565256,-0.0010893650550087139,-0.001090830782496456,-5.766779546917785,12.492267754785384,-100.75
1772907953.9705575,2.1684193454464813e-06,0.9480809550260137,-9.278157929006662,-0.16874502197079486,-1.5975358675783815,9.76897127525151,0.0010922945431565256,-0.0010893650550087139,-0.001090830782496456,-5.766779546917785,12.492267754785384,-100.75
1772907954.0152504,2.1684193454464813e-06,0.9480809550260137,-9.278157929006662,-0.1651009871525361,-1.598431532788937,9.769315395171487,-0.0010937592872304314,0.0021801948540913336,-0.001090830782496456,-6.517282412693247,12.866260332870592,-98.5
1772907954.041764,2.1684193454464813e-06,0.9480809550260137,-9.278157929006662,-0.162675922687521,-1.5990275879813254,9.766199291426842,0.0010908297990826197,1.4647440739058361e-06,0.0,-6.517282412693247,12.866260332870592,-98.5
1772907954.0765378,2.1684193454464813e-06,0.9480809550260137,-9.278157929006662,-0.16106656111973214,-1.5960791473618776,9.76412555919394,-1.4647440739058361e-06,0.0010908297990826197,0.001090830782496456,-6.516778870772237,12.491260670943365,-100.5
1772907954.1149576,2.1684193454464813e-06,0.9480809550260137,-9.278157929006662,-0.16334065766572484,-1.5941214848098086,9.762745513558052,-0.0010937592872304314,0.0021801948540913336,0.0,-6.516778870772237,12.491260670943365,-100.5
1772907954.1411178,2.1684193454464813e-06,0.9480809550260137,-9.278157929006662,-0.16334065766572484,-1.5941214848098086,9.762745513558052,-0.0010937592872304314,0.0021801948540913336,0.0,-6.516778870772237,12.491260670943365,-100.5
1772907954.212377,2.1684193454464813e-06,0.9480809550260137,-9.278157929006662,-0.16150893482215056,-1.5928141905059967,9.755136885188849,-0.0010922945431565256,0.0010893650550087139,0.0,-6.51635925250473,12.178760952670677,-99.25
1772907954.2834759,2.1684193454464813e-06,0.9480809550260137,-9.278157929006662,-0.16363505242304624,-1.5919486924941777,9.76010876312505,0.0,0.0,-0.003272492347489368,-6.51635925250473,12.178760952670677,-99.25
1772907954.3409038,2.1684193454464813e-06,0.9480809550260137,-9.278157929006662,-0.161704851244543,-1.5913682214916247,9.760072380644758,-1.4647440739058361e-06,0.0010908297990826197,0.002181661564992912,-6.517282412693247,12.866260332870592,-99.5625
1772907954.3777852,2.1684193454464813e-06,0.9480809550260137,-9.278157929006662,-0.16376543261361862,-1.5909864162676455,9.760048168510542,1.4647440739058361e-06,-0.0010908297990826197,0.0,-6.517282412693247,12.866260332870592,-99.5625
1772907954.422984,2.1684193454464813e-06,0.9480809550260137,-9.278157929006662,-0.1651322347526027,-1.5940774378477405,9.760032055605688,-0.0010922945431565256,0.0010893650550087139,-0.001090830782496456,-6.516778870772237,12.491260670943365,-101.1875
1772907954.4554954,2.1684193454464813e-06,0.9480809550260137,-9.278157929006662,-0.16604182630791633,-1.5961344781803202,9.7600213326475,-0.001087900310934808,-0.0021831243422391453,0.0,-6.516778870772237,12.491260670943365,-101.1875
1772907954.4896567,2.1684193454464813e-06,0.9480809550260137,-9.278157929006662,-0.16604182630791633,-1.5961344781803202,9.7600213326475,-0.001087900310934808,-0.0021831243422391453,0.0,-6.516778870772237,12.491260670943365,-101.1875
1772907954.5272074,2.1684193454464813e-06,0.9480809550260137,-9.278157929006662,-0.16665164107110772,-1.5941583068513963,9.760014196638611,-1.4647440739058361e-06,0.0010908297990826197,-0.001090830782496456,-6.891778532699463,12.490757129022356,-100.75
1772907954.5963964,2.1684193454464813e-06,0.9480809550260137,-9.278157929006662,-0.16665164107110772,-1.5941583068513963,9.760014196638611,-1.4647440739058361e-06,0.0010908297990826197,-0.001090830782496456,-6.891778532699463,12.490757129022356,-100.75
1772907954.647993,2.1684193454464813e-06,0.9480809550260137,-9.278157929006662,-0.1670574659839343,-1.5928431869072777,9.760009447704409,0.0,0.0,0.0,-6.892785616541483,13.240756452876807,-100.75
1772907954.6907525,2.1684193454464813e-06,0.9480809550260137,-9.278157929006662,-0.16732304618612548,-1.5953130979669288,9.763351399049066,0.0021816595981652394,2.9294881478116722e-06,0.0,-6.892785616541483,13.240756452876807,-100.75
1772907954.7203774,2.1684193454464813e-06,0.9480809550260137,-9.278157929006662,-0.16732304618612548,-1.5953130979669288,9.763351399049066,0.0021816595981652394,2.9294881478116722e-06,0.0,-6.892785616541483,13.240756452876807,-100.75
1772907954.7450151,2.1684193454464813e-06,0.9480809550260137,-9.278157929006662,-0.1674997868439585,-1.5969567961864122,9.765575430336892,0.0010952240313043373,-0.0032710246531739533,0.001090830782496456,-7.203858632704644,12.17783779248216,-100.0
1772907954.7853386,2.1684193454464813e-06,0.9480809550260137,-9.278157929006662,-0.16761740577742382,-1.598050658990166,9.763710386607563,1.4647440739058361e-06,-0.0010908297990826197,0.0,-7.203858632704644,12.17783779248216,-100.0
1772907954.8095016,2.1684193454464813e-06,0.9480809550260137,-9.278157929006662,-0.16435057117214594,-1.5987741207228827,9.762469220839598,-0.0010966887753782431,0.0043618544522565725,0.0,-7.202767625209122,11.36533852497317,-99.5625
1772907954.8335023,2.1684193454464813e-06,0.9480809550260137,-9.278157929006662,-0.16435057117214594,-1.5987741207228827,9.762469220839598,-0.0010966887753782431,0.0043618544522565725,0.0,-7.202767625209122,11.36533852497317,-99.5625
1772907954.865228,2.1684193454464813e-06,0.9480809550260137,-9.278157929006662,-0.16552612967081026,-1.5959149594767326,9.761643238885748,0.0010908297990826197,1.4647440739058361e-06,-0.002181661564992912,-7.202767625209122,11.36533852497317,-99.5625
1772907954.9146724,2.1684193454464813e-06,0.9480809550260137,-9.278157929006662,-0.1663039589758889,-1.597357328297953,9.761093557122283,-0.0010922945431565256,0.0010893650550087139,-0.001090830782496456,-5.766359928650278,12.179768036512696,-100.0
1772907954.9332972,2.1684193454464813e-06,0.9480809550260137,-9.278157929006662,-0.1663039589758889,-1.597357328297953,9.761093557122283,-0.0010922945431565256,0.0010893650550087139,-0.001090830782496456,-5.766359928650278,12.179768036512696,-100.0
1772907954.9938865,2.1684193454464813e-06,0.9480809550260137,-9.278157929006662,-0.17016670438110562,-1.5983217003800931,9.760727750049046,-0.0010893650550087139,-0.0010922945431565253,0.0,-5.766359928650278,12.179768036512696,-100.0
1772907955.022496,2.1684193454464813e-06,0.9480809550260137,-9.278157929006662,-0.17273731829858385,-1.5989634792280154,9.76048430952814,-0.0010908297990826197,-1.4647440739058361e-06,-0.001090830782496456,-6.890771448857444,11.740757805167904,-100.75
1772907955.0441124,2.1684193454464813e-06,0.9480809550260137,-9.278157929006662,-0.17273731829858385,-1.5989634792280154,9.76048430952814,-0.0010908297990826197,-1.4647440739058361e-06,-0.001090830782496456,-6.890771448857444,11.740757805167904,-100.75
1772907955.080153,2.1684193454464813e-06,0.9480809550260137,-9.278157929006662,-0.17110741619735073,-1.5960409754466252,9.763667414288204,0.0010952240313043373,-0.0032710246531739533,0.0,-6.890771448857444,11.740757805167904,-100.75
1772907955.1195688,2.1684193454464813e-06,0.9480809550260137,-9.278157929006662,-0.1700227345561795,-1.5940960818266163,9.765785734948416,2.9294881478116722e-06,-0.0021816595981652394,-0.001090830782496456,-6.20327206865753,11.741680965356421,-99.5625
1772907955.1446185,2.1684193454464813e-06,0.9480809550260137,-9.278157929006662,-0.16929190755280074,-1.5994919942316048,9.763850341977276,-2.9294881478116722e-06,0.0021816595981652394,-0.001090830782496456,-6.20327206865753,11.741680965356421,-99.5625
1772907955.1786892,2.1684193454464813e-06,0.9480809550260137,-9.278157929006662,-0.16929190755280074,-1.5994919942316048,9.763850341977276,-2.9294881478116722e-06,0.0021816595981652394,-0.001090830782496456,-6.20327206865753,11.741680965356421,-99.5625
1772907955.2199905,2.1684193454464813e-06,0.9480809550260137,-9.278157929006662,-0.16880555034592473,-1.6030829136608336,9.762562359574739,1.4647440739058361e-06,-0.0010908297990826197,-0.001090830782496456,-6.20327206865753,11.741680965356421,-99.5625
1772907955.238505,2.1684193454464813e-06,0.9480809550260137,-9.278157929006662,-0.16848188505771472,-1.605472630427787,9.761705221673557,0.0010908297990826197,1.4647440739058361e-06,-0.001090830782496456,-7.2047817928931615,12.865337172682073,-99.6875
1772907955.2592118,2.1684193454464813e-06,0.9480809550260137,-9.278157929006662,-0.16848188505771472,-1.605472630427787,9.761705221673557,0.0010908297990826197,1.4647440739058361e-06,-0.001090830782496456,-7.2047817928931615,12.865337172682073,-99.6875
1772907955.2790947,2.1684193454464813e-06,0.9480809550260137,-9.278157929006662,-0.16826648942398914,-1.607062960241309,9.767825029389817,1.4647440739058361e-06,-0.0010908297990826197,-0.001090830782496456,-7.2047817928931615,12.865337172682073,-99.6875
1772907955.2983913,2.1684193454464813e-06,0.9480809550260137,-9.278157929006662,-0.16826648942398914,-1.607062960241309,9.767825029389817,1.4647440739058361e-06,-0.0010908297990826197,-0.001090830782496456,-7.2047817928931615,12.865337172682073,-99.6875
1772907955.320541,2.1684193454464813e-06,0.9480809550260137,-9.278157929006662,-0.1647825290881957,-1.6047717065315168,9.771897693062256,-0.0021816595981652394,-2.9294881478116722e-06,-0.002181661564992912,-6.891358914431955,12.178257410749667,-100.75
1772907955.3551462,2.1684193454464813e-06,0.9480809550260137,-9.278157929006662,-0.16246399240311216,-1.603246902782631,9.77460800524163,0.0,0.0,-0.001090830782496456,-6.891358914431955,12.178257410749667,-100.75
1772907955.4151015,2.1684193454464813e-06,0.9480809550260137,-9.278157929006662,-0.16092552388287443,-1.598887054229312,9.773066576013512,0.0,0.0,-0.001090830782496456,-6.890771448857444,11.740757805167904,-100.0625
1772907955.4410088,2.1684193454464813e-06,0.9480809550260137,-9.278157929006662,-0.1632467989600852,-1.5959901154637113,9.772040772081095,-1.4647440739058361e-06,0.0010908297990826197,-0.001090830782496456,-6.890771448857444,11.740757805167904,-100.0625
1772907955.4676766,2.1684193454464813e-06,0.9480809550260137,-9.278157929006662,-0.16479158159362736,-1.5940622350761302,9.77135811102305,-0.0010922945431565256,0.0010893650550087139,-0.001090830782496456,-6.890771448857444,11.740757805167904,-100.0625
1772907955.527251,2.1684193454464813e-06,0.9480809550260137,-9.278157929006662,-0.16479158159362736,-1.5940622350761302,9.77135811102305,-0.0010922945431565256,0.0010893650550087139,-0.001090830782496456,-6.890771448857444,11.740757805167904,-100.0625
1772907955.5758214,2.1684193454464813e-06,0.9480809550260137,-9.278157929006662,-0.16581512543596336,-1.5961243609056397,9.770903807714745,-2.9294881478116722e-06,0.0021816595981652394,-0.002181661564992912,-7.579277912899378,12.489833968833839,-100.5
1772907955.6057005,2.1684193454464813e-06,0.9480809550260137,-9.278157929006662,-0.1664962824293041,-1.5974966826097234,9.76391125052333,-0.0010908297990826197,-1.4647440739058361e-06,-0.001090830782496456,-7.579277912899378,12.489833968833839,-100.5
1772907955.6285203,2.1684193454464813e-06,0.9480809550260137,-9.278157929006662,-0.16694958479935015,-1.598409947373953,9.759257781824425,-0.0010864355668609021,-0.003273954141321765,0.001090830782496456,-6.515771786930218,11.741261347088914,-101.1875
1772907955.6421893,2.1684193454464813e-06,0.9480809550260137,-9.278157929006662,-0.16694958479935015,-1.598409947373953,9.759257781824425,-0.0010864355668609021,-0.003273954141321765,0.001090830782496456,-6.515771786930218,11.741261347088914,-101.1875
1772907955.674606,2.1684193454464813e-06,0.9480809550260137,-9.278157929006662,-0.16725125246289654,-1.599017714872712,9.759506062095275,-0.0010908297990826197,-1.4647440739058361e-06,-0.002181661564992912,-6.515771786930218,11.741261347088914,-101.1875
1772907955.7214386,2.1684193454464813e-06,0.9480809550260137,-9.278157929006662,-0.16745200892313808,-1.5994221773539286,9.759671289842053,-0.0021816595981652394,-2.9294881478116722e-06,0.001090830782496456,-7.204278250972151,12.490337510754848,-101.5625
1772907955.7462094,2.1684193454464813e-06,0.9480809550260137,-9.278157929006662,-0.16745200892313808,-1.5994221773539286,9.759671289842053,-0.0021816595981652394,-2.9294881478116722e-06,0.001090830782496456,-7.204278250972151,12.490337510754848,-101.5625
1772907955.7636454,2.1684193454464813e-06,0.9480809550260137,-9.278157929006662,-0.1675856101048322,-1.5996913426170363,9.75978124706182,0.0010908297990826197,1.4647440739058361e-06,-0.001090830782496456,-7.204278250972151,12.490337510754848,-101.5625
1772907955.8127568,2.1684193454464813e-06,0.9480809550260137,-9.278157929006662,-0.1675856101048322,-1.5996913426170363,9.75978124706182,0.0010908297990826197,1.4647440739058361e-06,-0.001090830782496456,-7.204278250972151,12.490337510754848,-101.5625
1772907955.849999,2.1684193454464813e-06,0.9480809550260137,-9.278157929006662,-0.16773368887318912,-1.599989675761549,9.76547436589016,0.0010893650550087139,0.0010922945431565253,-0.002181661564992912,-7.203858632704644,12.17783779248216,-99.25
1772907955.938098,2.1684193454464813e-06,0.9480809550260137,-9.278157929006662,-0.17112266540056306,-1.596728389520259,9.763643129347228,1.4647440739058361e-06,-0.0010908297990826197,-0.001090830782496456,-7.204278250972151,12.490337510754848,-100.0625
1772907955.9675906,2.1684193454464813e-06,0.9480809550260137,-9.278157929006662,-0.170028390986639,-1.5978986569053109,9.762424461884159,-4.394232221717509e-06,0.003272489397247859,0.0,-7.204278250972151,12.490337510754848,-100.0625
1772907956.0207446,2.1684193454464813e-06,0.9480809550260137,-9.278157929006662,-0.16930016358801867,-1.5986774567773194,9.754923228886256,0.001087900310934808,0.0021831243422391453,0.0,-6.891358914431955,12.178257410749667,-100.0
1772907956.0419884,2.1684193454464813e-06,0.9480809550260137,-9.278157929006662,-0.16881553638906988,-1.5991957393923768,9.749931242120413,0.0010893650550087139,0.0010922945431565253,-0.001090830782496456,-6.891358914431955,12.178257410749667,-100.0
1772907956.0778947,2.1684193454464813e-06,0.9480809550260137,-9.278157929006662,-0.16849302240181002,-1.5995406506831011,9.74660913069189,0.0010908297990826197,1.4647440739058361e-06,0.0,-7.577767287136349,11.36483498305216,-100.5
1772907956.1071944,2.1684193454464813e-06,0.9480809550260137,-9.278157929006662,-0.16827839294600586,-1.5997701852941666,9.757778749475904,0.0010893650550087139,0.0010922945431565253,-0.003272492347489368,-7.577767287136349,11.36483498305216,-100.5
1772907956.1353707,2.1684193454464813e-06,0.9480809550260137,-9.278157929006662,-0.16813555944073633,-1.5999229380137612,9.761866894296528,0.0,0.0,-0.001090830782496456,-7.577767287136349,11.36483498305216,-100.5
1772907956.178343,2.1684193454464813e-06,0.9480809550260137,-9.278157929006662,-0.1680494888264014,-1.5933343758590726,9.764587509007082,1.4647440739058361e-06,-0.0010908297990826197,-0.001090830782496456,-7.203271167130132,11.740338186900397,-101.25
1772907956.1976202,2.1684193454464813e-06,0.9480809550260137,-9.278157929006662,-0.1679832263061661,-1.595639978727408,9.76305293599838,1.4647440739058361e-06,-0.0010908297990826197,0.001090830782496456,-7.203271167130132,11.740338186900397,-101.25
1772907956.2201378,2.1684193454464813e-06,0.9480809550260137,-9.278157929006662,-0.17128423803075987,-1.597178823424947,9.762031694803392,2.9294881478116722e-06,-0.0021816595981652394,-0.002181661564992912,-7.203271167130132,11.740338186900397,-101.25
1772907956.2378151,2.1684193454464813e-06,0.9480809550260137,-9.278157929006662,-0.17348102445875996,-1.598202907381138,9.76135207019614,0.0010893650550087139,0.0010922945431565253,0.0,-7.57885829463187,12.17733425056115,-100.5
1772907956.2575629,2.1684193454464813e-06,0.9480809550260137,-9.278157929006662,-0.17348102445875996,-1.598202907381138,9.76135207019614,0.0010893650550087139,0.0010922945431565253,0.0,-7.57885829463187,12.17733425056115,-100.5
1772907956.2830422,2.1684193454464813e-06,0.9480809550260137,-9.278157929006662,-0.1749429612868817,-1.5988844238142155,9.754209564197279,0.0010922945431565256,-0.0010893650550087139,0.002181661564992912,-7.57885829463187,12.17733425056115,-100.5
1772907956.3122864,2.1684193454464813e-06,0.9480809550260137,-9.278157929006662,-0.1725797387113499,-1.5926432562602386,9.756146529656695,0.0010937592872304314,-0.0021801948540913336,0.001090830782496456,-7.57885829463187,12.17733425056115,-100.5
1772907956.3320167,2.1684193454464813e-06,0.9480809550260137,-9.278157929006662,-0.1676619317946499,-1.5884853372275431,9.757435558532615,0.0010908297990826197,1.4647440739058361e-06,0.001090830782496456,-7.579277912899378,12.489833968833839,-101.25
1772907956.35206,2.1684193454464813e-06,0.9480809550260137,-9.278157929006662,-0.1676619317946499,-1.5884853372275431,9.757435558532615,0.0010908297990826197,1.4647440739058361e-06,0.001090830782496456,-7.579277912899378,12.489833968833839,-101.25
1772907956.3814204,2.1684193454464813e-06,0.9480809550260137,-9.278157929006662,-0.16438469448315524,-1.5890633972498929,9.758293392850144,0.0,0.0,0.001090830782496456,-7.579277912899378,12.489833968833839,-101.25
1772907956.3964198,2.1684193454464813e-06,0.9480809550260137,-9.278157929006662,-0.16220372966149507,-1.589448089737413,9.758864272005821,0.0010908297990826197,1.4647440739058361e-06,-0.001090830782496456,-7.579277912899378,12.489833968833839,-101.25
1772907956.4191196,2.1684193454464813e-06,0.9480809550260137,-9.278157929006662,-0.1607523219356536,-1.5897040982905608,9.759244185706788,0.0010908297990826197,1.4647440739058361e-06,0.001090830782496456,-6.51635925250473,12.178760952670677,-100.75
1772907956.4445918,2.1684193454464813e-06,0.9480809550260137,-9.278157929006662,-0.1607523219356536,-1.5897040982905608,9.759244185706788,0.0010908297990826197,1.4647440739058361e-06,0.001090830782496456,-6.51635925250473,12.178760952670677,-100.75
1772907956.4644642,2.1684193454464813e-06,0.9480809550260137,-9.278157929006662,-0.15978642630739273,-1.589874469122878,9.762842125738185,-0.0010922945431565256,0.0010893650550087139,0.003272492347489368,-6.51635925250473,12.178760952670677,-100.75
1772907956.4910316,2.1684193454464813e-06,0.9480809550260137,-9.278157929006662,-0.15978642630739273,-1.589874469122878,9.762842125738185,-0.0010922945431565256,0.0010893650550087139,0.003272492347489368,-6.51635925250473,12.178760952670677,-100.75
1772907956.5146196,2.1684193454464813e-06,0.9480809550260137,-9.278157929006662,-0.16248425050422222,-1.5933374494441612,9.765236514637456,1.4647440739058361e-06,-0.0010908297990826197,0.001090830782496456,-6.516778870772237,12.491260670943365,-99.25
1772907956.5320678,2.1684193454464813e-06,0.9480809550260137,-9.278157929006662,-0.1642796223705413,-1.5956420241639504,9.766829953702844,0.0010937592872304314,-0.0021801948540913336,0.001090830782496456,-6.516778870772237,12.491260670943365,-99.25
1772907956.5499053,2.1684193454464813e-06,0.9480809550260137,-9.278157929006662,-0.1642796223705413,-1.5956420241639504,9.766829953702844,0.0010937592872304314,-0.0021801948540913336,0.001090830782496456,-6.516778870772237,12.491260670943365,-99.25
1772907956.5856864,-0.007318258192296737,0.9468266586001183,-10.169968371686387,-0.16547891403589243,-1.5938305842045741,9.76454525789366,0.001087900310934808,0.0021831243422391453,0.001090830782496456,-6.516778870772237,12.491260670943365,-99.25
1772907956.6030614,2.1684193454464813e-06,0.9480809550260137,-9.278157929006662,-0.16627702924221788,-1.5926250911467192,9.763024818354372,0.002184589086313051,-0.0021787301100174277,0.001090830782496456,-7.578270829057359,11.739834644979387,-100.5
1772907956.6161706,2.1684193454464813e-06,0.9480809550260137,-9.278157929006662,-0.16627702924221788,-1.5926250911467192,9.763024818354372,0.002184589086313051,-0.0021787301100174277,0.001090830782496456,-7.578270829057359,11.739834644979387,-100.5
1772907956.6349092,2.1684193454464813e-06,0.9480809550260137,-9.278157929006662,-0.16680816599649645,-1.591822848982957,9.7620129828254,1.4647440739058361e-06,-0.0010908297990826197,0.001090830782496456,-7.578270829057359,11.739834644979387,-100.5
1772907956.652538,2.1684193454464813e-06,0.9480809550260137,-9.278157929006662,-0.16715713982934893,-1.5946340744762146,9.761339617583813,0.0010908297990826197,1.4647440739058361e-06,-0.001090830782496456,-7.578270829057359,11.739834644979387,-100.5
1772907956.6739843,2.1684193454464813e-06,0.9480809550260137,-9.278157929006662,-0.16715713982934893,-1.5946340744762146,9.761339617583813,0.0010908297990826197,1.4647440739058361e-06,-0.001090830782496456,-7.578270829057359,11.739834644979387,-100.5
1772907956.6923792,2.1684193454464813e-06,0.9480809550260137,-9.278157929006662,-0.16739386976075274,-1.5931598049469218,9.760891500537518,-2.9294881478116722e-06,0.0021816595981652394,-0.001090830782496456,-7.579277912899378,12.489833968833839,-100.5
1772907956.7097301,2.1684193454464813e-06,0.9480809550260137,-9.278157929006662,-0.16739386976075274,-1.5931598049469218,9.760891500537518,-2.9294881478116722e-06,0.0021816595981652394,-0.001090830782496456,-7.579277912899378,12.489833968833839,-100.5
1772907956.7336457,2.1684193454464813e-06,0.9480809550260137,-9.278157929006662,-0.16755141088565534,-1.592178695043847,9.760593283649005,-0.0010864355668609021,-0.003273954141321765,0.001090830782496456,-7.579277912899378,12.489833968833839,-100.5
1772907956.7511153,2.1684193454464813e-06,0.9480809550260137,-9.278157929006662,-0.16755141088565534,-1.592178695043847,9.760593283649005,-0.0010864355668609021,-0.003273954141321765,0.001090830782496456,-7.579277912899378,12.489833968833839,-100.5
1772907956.7718093,2.1684193454464813e-06,0.9480809550260137,-9.278157929006662,-0.1710013614360379,-1.5915302691070001,9.760394823641,-2.9294881478116722e-06,0.0021816595981652394,0.001090830782496456,-6.516778870772237,12.491260670943365,-100.0
1772907956.791856,2.1684193454464813e-06,0.9480809550260137,-9.278157929006662,-0.17329726498884465,-1.5910987488894208,9.760262750722617,-0.0010937592872304314,0.0021801948540913336,0.0,-6.516778870772237,12.491260670943365,-100.0
1772907956.8190167,2.1684193454464813e-06,0.9480809550260137,-9.278157929006662,-0.17482067141238083,-1.5941566856966278,9.760174857670783,5.8589762956233445e-06,-0.004363319196330479,0.001090830782496456,-6.516778870772237,12.491260670943365,-100.0
1772907956.8344908,2.1684193454464813e-06,0.9480809550260137,-9.278157929006662,-0.17482067141238083,-1.5941566856966278,9.760174857670783,5.8589762956233445e-06,-0.004363319196330479,0.001090830782496456,-6.516778870772237,12.491260670943365,-100.0
1772907956.8641992,2.1684193454464813e-06,0.9480809550260137,-9.278157929006662,-0.17583448136967936,-1.596191708482432,9.760116365826619,1.4647440739058361e-06,-0.0010908297990826197,0.001090830782496456,-6.892282074620473,12.865756790949582,-99.25
1772907956.8888195,2.1684193454464813e-06,0.9480809550260137,-9.278157929006662,-0.17650916057126226,-1.5975459934136904,9.760077440157723,2.9294881478116722e-06,-0.0021816595981652394,0.001090830782496456,-6.892282074620473,12.865756790949582,-99.25
1772907956.9073322,2.1684193454464813e-06,0.9480809550260137,-9.278157929006662,-0.17695815204325518,-1.5984472549070892,9.756706423852581,-0.0021801948540913336,-0.0010937592872304312,0.001090830782496456,-6.892282074620473,12.865756790949582,-99.25
1772907956.924562,2.1684193454464813e-06,0.9480809550260137,-9.278157929006662,-0.17695815204325518,-1.5984472549070892,9.756706423852581,-0.0021801948540913336,-0.0010937592872304312,0.001090830782496456,-6.892282074620473,12.865756790949582,-99.25
1772907956.941198,2.1684193454464813e-06,0.9480809550260137,-9.278157929006662,-0.17391184216069355,-1.5990425426192618,9.754463050158229,-0.0010908297990826197,-1.4647440739058361e-06,0.0,-6.891778532699463,12.490757129022356,-100.5
1772907956.9608927,2.1684193454464813e-06,0.9480809550260137,-9.278157929006662,-0.17188455696335994,-1.5994386999419132,9.756315221732084,0.0010937592872304314,-0.0021801948540913336,0.002181661564992912,-6.891778532699463,12.490757129022356,-100.5
1772907956.9817572,2.1684193454464813e-06,0.9480809550260137,-9.278157929006662,-0.17053542131079388,-1.5997023382147704,9.757547821224373,4.394232221717509e-06,-0.003272489397247859,0.001090830782496456,-6.891778532699463,12.490757129022356,-100.5
1772907957.0079384,2.1684193454464813e-06,0.9480809550260137,-9.278157929006662,-0.17053542131079388,-1.5997023382147704,9.757547821224373,4.394232221717509e-06,-0.003272489397247859,0.001090830782496456,-6.891778532699463,12.490757129022356,-100.5
1772907957.0291677,2.1684193454464813e-06,0.9480809550260137,-9.278157929006662,-0.1696375866048439,-1.5998777865403244,9.758368102417451,-0.0021816595981652394,-2.9294881478116722e-06,0.001090830782496456,-7.57885829463187,12.17733425056115,-100.0
1772907957.0661752,2.1684193454464813e-06,0.9480809550260137,-9.278157929006662,-0.1690445793814386,-1.596649436749485,9.758913990388304,-5.8589762956233445e-06,0.004363319196330479,-0.002181661564992912,-7.57885829463187,12.17733425056115,-100.0
1772907957.0958877,2.1684193454464813e-06,0.9480809550260137,-9.278157929006662,-0.1690445793814386,-1.596649436749485,9.758913990388304,-5.8589762956233445e-06,0.004363319196330479,-0.002181661564992912,-7.57885829463187,12.17733425056115,-100.0
1772907957.1200325,2.1684193454464813e-06,0.9480809550260137,-9.278157929006662,-0.16530483100697757,-1.5944965142827778,9.762622384442258,0.0010908297990826197,1.4647440739058361e-06,0.0,-7.204278250972151,12.490337510754848,-100.75
1772907957.134263,2.1684193454464813e-06,0.9480809550260137,-9.278157929006662,-0.16616117893110988,-1.5930682601748376,9.765090279259688,0.0010952240313043373,-0.0032710246531739533,0.0,-7.204278250972151,12.490337510754848,-100.75
1772907957.17967,2.1684193454464813e-06,0.9480809550260137,-9.278157929006662,-0.16673106890858685,-1.592117773020647,9.766732635692497,-0.0010908297990826197,-1.4647440739058361e-06,0.002181661564992912,-7.204278250972151,12.490337510754848,-100.75
1772907957.201052,2.1684193454464813e-06,0.9480809550260137,-9.278157929006662,-0.16710134083464243,-1.5981754518203897,9.771170717259526,-0.0010864355668609021,-0.003273954141321765,0.0,-6.515771786930218,11.741261347088914,-100.75
1772907957.217352,2.1684193454464813e-06,0.9480809550260137,-9.278157929006662,-0.17069286135683348,-1.602211261136846,9.774124210965764,-0.001087900310934808,-0.0021831243422391453,0.0,-6.515771786930218,11.741261347088914,-100.75
1772907957.2453184,2.1684193454464813e-06,0.9480809550260137,-9.278157929006662,-0.1697423611967627,-1.6015474467184603,9.769399504619942,0.0021801948540913336,0.0010937592872304312,-0.002181661564992912,-6.515771786930218,11.741261347088914,-100.75
1772907957.2769861,2.1684193454464813e-06,0.9480809550260137,-9.278157929006662,-0.1691098139580181,-1.6011056856383177,9.762910153617906,0.0,0.0,-0.001090830782496456,-6.890771448857444,11.740757805167904,-100.75
1772907957.3170311,2.1684193454464813e-06,0.9480809550260137,-9.278157929006662,-0.16534375214503966,-1.6008072068303436,9.75859156301685,-2.9294881478116722e-06,0.0021816595981652394,0.0,-6.890771448857444,11.740757805167904,-100.75
1772907957.338585,2.1684193454464813e-06,0.9480809550260137,-9.278157929006662,-0.1628374800781695,-1.6006085725178638,9.755717589213667,-0.0021801948540913336,-0.0010937592872304312,0.001090830782496456,-6.890771448857444,11.740757805167904,-100.75
1772907957.3814626,2.1684193454464813e-06,0.9480809550260137,-9.278157929006662,-0.1628374800781695,-1.6006085725178638,9.755717589213667,-0.0021801948540913336,-0.0010937592872304312,0.001090830782496456,-6.890771448857444,11.740757805167904,-100.75
1772907957.4410632,2.1684193454464813e-06,0.9480809550260137,-9.278157929006662,-0.16451469270617036,-1.6004808753457327,9.75380499175204,-0.0010908297990826197,-1.4647440739058361e-06,0.001090830782496456,-6.203859534232041,12.179180570938186,-100.0625
1772907957.5423849,2.1684193454464813e-06,0.9480809550260137,-9.278157929006662,-0.16563085897441227,-1.6003958943041503,9.752532179506439,0.0,0.0,-0.001090830782496456,-6.203859534232041,12.179180570938186,-100.0625
1772907957.6612675,2.1684193454464813e-06,0.9480809550260137,-9.278157929006662,-0.16637365515753305,-1.6003393403702777,9.758375360589875,-0.0010908297990826197,-1.4647440739058361e-06,0.001090830782496456,-7.57885829463187,12.17733425056115,-100.5
1772907957.774637,2.1684193454464813e-06,0.9480809550260137,-9.278157929006662,-0.16720292227390546,-1.5958243930800662,9.767077867855892,-2.9294881478116722e-06,0.0021816595981652394,-0.001090830782496456,-7.203271167130132,11.740338186900397,-100.5
1772907957.8106992,2.1684193454464813e-06,0.9480809550260137,-9.278157929006662,-0.16742433746618166,-1.593951948681055,9.764710241993132,-0.0021787301100174277,-0.0021845890863130507,0.001090830782496456,-7.203271167130132,11.740338186900397,-100.5
1772907957.8701706,2.1684193454464813e-06,0.9480809550260137,-9.278157929006662,-0.16757168680327175,-1.5927058578500872,9.763134613429578,0.0021801948540913336,0.0010937592872304312,0.0,-6.203859534232041,12.179180570938186,-100.5
1772907957.9017963,2.1684193454464813e-06,0.9480809550260137,-9.278157929006662,-0.16766974614110522,-1.5918765983218248,9.762086050221457,0.0010908297990826197,1.4647440739058361e-06,-0.001090830782496456,-6.203859534232041,12.179180570938186,-100.5
1772907957.933605,2.1684193454464813e-06,0.9480809550260137,-9.278157929006662,-0.1677350035350388,-1.5913247353692022,9.761388243119672,-0.0010908297990826197,-1.4647440739058361e-06,0.0,-6.20327206865753,11.741680965356421,-98.875
1772907957.9745889,2.1684193454464813e-06,0.9480809550260137,-9.278157929006662,-0.16777843160172878,-1.590957476738945,9.754233636873812,-0.0010908297990826197,-1.4647440739058361e-06,-0.002181661564992912,-6.20327206865753,11.741680965356421,-98.875
1772907958.0221286,2.1684193454464813e-06,0.9480809550260137,-9.278157929006662,-0.16780733249498764,-1.5907130702230563,9.74947232633938,0.001087900310934808,0.0021831243422391453,-0.001090830782496456,-6.890267906936434,11.365758143240678,-101.25
1772907958.0428336,2.1684193454464813e-06,0.9480809550260137,-9.278157929006662,-0.16782656571660728,-1.5905504204169323,9.756339062487998,0.0010893650550087139,0.0010922945431565253,0.0,-6.890267906936434,11.365758143240678,-101.25
1772907958.0915236,2.1684193454464813e-06,0.9480809550260137,-9.278157929006662,-0.16783487346681245,-1.5937872874794836,9.760908798688433,-0.002184589086313051,0.0021787301100174277,-0.001090830782496456,-7.203858632704644,12.17783779248216,-101.6875
1772907958.1140294,2.1684193454464813e-06,0.9480809550260137,-9.278157929006662,-0.1678404021817703,-1.5959413863514373,9.767295018789845,0.0010849708227869963,0.004364783940404384,0.0,-7.203858632704644,12.17783779248216,-101.6875
