timestamp,yaw,pitch,roll,ax,ay,az,gx,gy,gz,mx,my,mz
1772912174.5406282,-0.03565467095942959,0.4462071084629015,-9.137304926077375,-0.0782983486295063,-1.548969140167831,9.75267785783411,0.0,0.002181661564992912,0.0,-13.5,58.0625,-32.25
1772912174.5942314,-0.03565467095942959,0.4462071084629015,-9.137304926077375,-0.0782983486295063,-1.548969140167831,9.75267785783411,0.0,0.002181661564992912,0.0,-13.5,58.0625,-32.25
1772912174.6117837,0.0,0.0,0.0,-0.07886757002162775,-1.545968862589831,9.758472307889607,0.0,0.002181661564992912,-0.003272492347489368,-13.875,56.6875,-33.0625
1772912174.6315575,0.0,0.0,0.0,-0.07886757002162775,-1.545968862589831,9.758472307889607,0.0,0.002181661564992912,-0.003272492347489368,-13.875,56.6875,-33.0625
1772912174.6435728,0.0,0.0,0.0,-0.06586593367018746,-1.5506624347916074,9.76232844967329,-0.050178215994836975,-0.006544984694978736,0.04581489286485115,-13.875,56.6875,-33.0625
1772912174.669089,0.0,0.0,0.0,-0.06586593367018746,-1.5506624347916074,9.76232844967329,-0.050178215994836975,-0.006544984694978736,0.04581489286485115,-13.875,56.6875,-33.0625
1772912174.6854396,0.22361428288011678,0.45276514564696846,-9.086900057981673,-0.04383304308682086,-1.346389028807451,9.380206822612678,0.05781403147231216,-0.016362461737446838,0.10690141668465268,-13.875,56.6875,-33.0625
1772912174.705416,0.22361428288011678,0.45276514564696846,-9.086900057981673,-0.04383304308682086,-1.346389028807451,9.380206822612678,0.05781403147231216,-0.016362461737446838,0.10690141668465268,-13.875,56.6875,-33.0625
1772912174.7230785,0.22361428288011678,0.45276514564696846,-9.086900057981673,-0.04383304308682086,-1.346389028807451,9.380206822612678,0.05781403147231216,-0.016362461737446838,0.10690141668465268,-13.875,56.6875,-33.0625
1772912174.7430294,-0.015541319846207784,0.46183677959087016,-9.06012603012743,-0.04255084735638245,-1.2238278058377325,9.714648808870315,0.009817477042468103,-0.001090830782496456,-0.13308135546456762,-13.875,56.6875,-33.0625
1772912174.7688167,-14.87729179320781,0.4719833625220917,-9.156201478881721,0.07538134933533794,-1.1422646810499528,9.659571943055488,-0.04036073895236887,0.008726646259971648,0.06654067773228381,-13.5,58.1875,-31.5
1772912174.8054683,-14.813570789487985,0.4755979368352933,-9.113468917207593,-0.1471961448140228,-1.2418604711601802,9.796864712885231,0.031634092692397225,-0.020725784867432664,0.03490658503988659,-13.5,58.1875,-31.5
1772912174.8814764,-14.932123604490117,0.4687043343494704,-9.092534300370955,0.03584707820771926,-1.3081403569206629,9.831364618521768,-0.004363323129985824,0.009817477042468103,-0.020725784867432664,-14.1875,57.75,-31.0625
1772912174.9367998,-14.862611369587277,0.4725660828314054,-9.106621812501816,-0.12332908501291714,-1.4325315614750926,9.854323920333684,-0.01090830782496456,0.013089969389957472,-0.026179938779914945,-14.1875,57.75,-31.0625
1772912174.9713824,-14.896690677990085,0.4646210264473837,-9.091656214530959,-0.04862301132675363,-1.461790731248154,9.829461738729476,0.016362461737446838,-0.001090830782496456,-0.02181661564992912,-12.6875,57.75,-31.5
1772912175.0257776,-14.911753870475001,0.4686377377770872,-9.106775245812162,-0.12602119868827172,-1.497987940422381,9.81291623460064,-0.008726646259971648,0.0,0.013089969389957472,-12.6875,57.75,-31.5
1772912175.0594735,-14.869755676894574,0.47201922223202375,-9.106720869736476,-0.0905559233926545,-1.5220767787785086,9.801905386428293,0.0,0.007635815477475192,-0.009817477042468103,-12.6875,58.1875,-31.0625
1772912175.0992804,-14.855467272627363,0.47311294347383775,-9.106522755212252,-0.10040529592969852,-1.5381076316145554,9.814648460212746,0.008726646259971648,-0.001090830782496456,0.002181661564992912,-12.6875,58.1875,-31.0625
1772912175.145651,-14.855467272627363,0.47311294347383775,-9.106522755212252,-0.07685393796252649,-1.508634644612752,9.803058163222921,-0.006544984694978736,0.002181661564992912,0.003272492347489368,-13.0625,57.0625,-31.0625
1772912175.184094,-14.855564241137753,0.47221388923202423,-9.113522870768923,-0.0912867776871546,-1.4890207009978893,9.795344950048294,0.0,0.0,0.006544984694978736,-13.0625,57.0625,-31.0625
1772912175.2094402,-14.855564241137753,0.47221388923202423,-9.113522870768923,-0.0912867776871546,-1.4890207009978893,9.795344950048294,0.0,0.0,0.006544984694978736,-13.0625,57.0625,-31.0625
1772912175.228487,-14.862708334831158,0.47166660175905384,-9.113621926092996,-0.09754655959119155,-1.5027287342828595,9.786866781135497,0.006544984694978736,0.004363323129985824,-0.008726646259971648,-13.5,58.5,-31.5
1772912175.2548826,-14.862611369587277,0.4725660828314054,-9.106621812501816,-0.1017123745219825,-1.511851277305242,9.781224654431382,-0.003272492347489368,0.0,0.006544984694978736,-13.5,58.5,-31.5
1772912175.2699409,-14.862611369587277,0.4725660828314054,-9.106621812501816,-0.1017123745219825,-1.511851277305242,9.781224654431382,-0.003272492347489368,0.0,0.006544984694978736,-13.5,58.5,-31.5
1772912175.2914453,-14.862611369587277,0.4725660828314054,-9.106621812501816,-0.10448467782322197,-1.5179222277811548,9.77746988213648,-0.004363323129985824,0.002181661564992912,0.007635815477475192,-13.5,57.5,-30.6875
1772912175.3178751,-14.841179709404972,0.4742066648880541,-9.10632464046842,-0.07956872104298475,-1.5152721540912757,9.781661346532415,0.002181661564992912,0.0,-0.00545415391248228,-13.5,57.5,-30.6875
1772912175.350887,-14.841179709404972,0.4742066648880541,-9.10632464046842,-0.07956872104298475,-1.5152721540912757,9.781661346532415,0.002181661564992912,0.0,-0.00545415391248228,-13.5,57.5,-30.6875
1772912175.3643334,-14.834036242970079,0.47475352565993756,-9.106225583014151,-0.06967765354984982,-1.513508559653924,9.784450719266186,-0.002181661564992912,0.003272492347489368,0.002181661564992912,-13.0625,57.75,-31.0625
1772912175.377442,-14.834036242970079,0.47475352565993756,-9.106225583014151,-0.06967765354984982,-1.513508559653924,9.784450719266186,-0.002181661564992912,0.003272492347489368,0.002181661564992912,-13.0625,57.75,-31.0625
1772912175.401149,-14.834036242970079,0.47475352565993756,-9.106225583014151,-0.06309525862363208,-1.512334907256507,9.786307015661174,-0.002181661564992912,0.0,0.007635815477475192,-13.0625,57.75,-31.0625
1772912175.4284663,-14.826892986537741,0.47530038647507106,-9.106126525504983,-0.0787854185743197,-1.5282794132331794,9.780852136761212,-0.001090830782496456,0.0,-0.001090830782496456,-13.0625,58.1875,-30.6875
1772912175.4476142,-14.813473802190408,0.47649443010722525,-9.106468379059747,-0.08922704475093143,-1.5388903038488526,9.777221975788276,0.001090830782496456,0.001090830782496456,-0.003272492347489368,-13.0625,58.1875,-30.6875
1772912175.4637027,-14.813473802190408,0.47649443010722525,-9.106468379059747,-0.08922704475093143,-1.5388903038488526,9.777221975788276,0.001090830782496456,0.001090830782496456,-0.003272492347489368,-13.0625,58.1875,-30.6875
1772912175.4882503,-14.812893928570452,0.4695799085747933,-9.105551498430353,-0.0794502717942626,-1.5392615096075297,9.778151255919662,-0.001090830782496456,0.0,0.001090830782496456,-13.0625,58.1875,-30.6875
1772912175.5185404,-14.819749940021696,0.47584724733350453,-9.106027467940915,-0.07294393860530941,-1.5395085428932893,9.77876968146636,-0.002181661564992912,0.0,0.002181661564992912,-13.875,57.75,-31.5
1772912175.5408123,-14.904608682322367,0.46918459811137353,-9.106676188607638,-0.06861404654856502,-1.5463631642000584,9.775836125052102,0.0,0.002181661564992912,-0.001090830782496456,-13.875,57.75,-31.5
1772912175.5565097,-14.904608682322367,0.46918459811137353,-9.106676188607638,-0.0724227751675039,-1.550924838108576,9.773883876028385,0.001090830782496456,0.003272492347489368,-0.002181661564992912,-13.875,57.75,-31.5
1772912175.5923991,-14.904608682322367,0.46918459811137353,-9.106676188607638,-0.0716123298098019,-1.5506154694301388,9.78596512294043,-0.002181661564992912,0.0,0.003272492347489368,-13.875,57.75,-31.875
1772912175.6164067,-14.904608682322367,0.46918459811137353,-9.106676188607638,-0.0716123298098019,-1.5506154694301388,9.78596512294043,-0.002181661564992912,0.0,0.003272492347489368,-13.875,57.75,-31.875
1772912175.6475317,-14.904608682322367,0.46918459811137353,-9.106676188607638,-0.07107298747751906,-1.5504095880305133,9.794005057804025,0.001090830782496456,-0.001090830782496456,0.002181661564992912,-13.875,57.75,-31.875
1772912175.671976,-14.905188861495203,0.4760982654469705,-9.107598685592995,-0.07071406118023345,-1.553617687966228,9.796010432936471,0.0,0.002181661564992912,-0.002181661564992912,-14.1875,57.75,-31.0625
1772912175.684886,-14.904608682322367,0.46918459811137353,-9.106676188607638,-0.07047519973885932,-1.5557526426366217,9.797344987685607,0.0,0.001090830782496456,-0.002181661564992912,-14.1875,57.75,-31.0625
1772912175.7110157,-14.904608682322367,0.46918459811137353,-9.106676188607638,-0.07047519973885932,-1.5557526426366217,9.797344987685607,0.0,0.001090830782496456,-0.002181661564992912,-14.1875,57.75,-31.0625
1772912175.7359545,-14.904608682322367,0.46918459811137353,-9.106676188607638,-0.07047519973885932,-1.5557526426366217,9.797344987685607,-0.001090830782496456,0.002181661564992912,0.001090830782496456,-13.0625,58.5,-31.5
1772912175.749888,-14.904608682322367,0.46918459811137353,-9.106676188607638,-0.07047519973885932,-1.5557526426366217,9.797344987685607,-0.001090830782496456,0.002181661564992912,0.001090830782496456,-13.0625,58.5,-31.5
1772912175.7681863,-14.904608682322367,0.46918459811137353,-9.106676188607638,-0.07366135182520137,-1.5571734311207623,9.798233118963202,0.001090830782496456,0.002181661564992912,-0.001090830782496456,-13.0625,58.5,-31.5
1772912175.7847674,-14.904608682322367,0.46918459811137353,-9.106676188607638,-0.07578170044701112,-1.56146406169303,9.795479048700047,0.0,0.002181661564992912,-0.002181661564992912,-13.0625,58.5,-31.5
1772912175.8086486,-14.904608682322367,0.46918459811137353,-9.106676188607638,-0.07578170044701112,-1.56146406169303,9.795479048700047,0.0,0.002181661564992912,-0.002181661564992912,-13.0625,58.5,-31.5
1772912175.842766,-14.904608682322367,0.46918459811137353,-9.106676188607638,-0.07719276876897944,-1.5643194284093902,9.790301133997577,-0.001090830782496456,-0.002181661564992912,0.001090830782496456,-13.0625,58.1875,-31.0625
1772912175.860641,-14.904608682322367,0.46918459811137353,-9.106676188607638,-0.07813181897458339,-1.5662196430625916,9.78685528960418,-0.001090830782496456,-0.002181661564992912,-0.001090830782496456,-13.0625,58.1875,-31.0625
1772912175.8730874,-14.904608682322367,0.46918459811137353,-9.106676188607638,-0.07813181897458339,-1.5662196430625916,9.78685528960418,-0.001090830782496456,-0.002181661564992912,-0.001090830782496456,-13.0625,58.1875,-31.0625
1772912175.8900008,-14.904608682322367,0.46918459811137353,-9.106676188607638,-0.0787567463965347,-1.5674842146875088,9.78121700694566,0.002181661564992912,0.0,-0.001090830782496456,-13.0625,58.1875,-31.0625
1772912175.9092486,-14.904608682322367,0.46918459811137353,-9.106676188607638,-0.07917262861494657,-1.5683257729777005,9.77411968111284,0.0,-0.001090830782496456,-0.001090830782496456,-14.875,57.75,-31.5
1772912175.9341202,-14.904608682322367,0.46918459811137353,-9.106676188607638,-0.07917262861494657,-1.5683257729777005,9.77411968111284,0.0,-0.001090830782496456,-0.001090830782496456,-14.875,57.75,-31.5
1772912175.9493318,-14.904608682322367,0.46918459811137353,-9.106676188607638,-0.0794493935855909,-1.5655407089116815,9.769396490053422,-0.001090830782496456,-0.004363323129985824,0.0,-14.875,57.75,-31.5
1772912175.9685538,-14.904608682322367,0.46918459811137353,-9.106676188607638,-0.0794493935855909,-1.5655407089116815,9.769396490053422,-0.001090830782496456,-0.004363323129985824,0.0,-14.875,57.75,-31.5
1772912175.988499,-14.904608682322367,0.46918459811137353,-9.106676188607638,-0.08297868928920679,-1.56368727988695,9.76625325916488,-0.002181661564992912,0.002181661564992912,0.0,-14.1875,58.1875,-31.0625
1772912176.0061572,-14.904608682322367,0.46918459811137353,-9.106676188607638,-0.08532739615514692,-1.5591087318678307,9.764161474120746,0.0,0.0,0.0,-14.1875,58.1875,-31.0625
1772912176.031706,-14.904608682322367,0.46918459811137353,-9.106676188607638,-0.08532739615514692,-1.5591087318678307,9.764161474120746,0.0,0.0,0.0,-14.1875,58.1875,-31.0625
1772912176.0509121,-14.904608682322367,0.46918459811137353,-9.106676188607638,-0.0835453226303359,-1.5560617593068393,9.762769414540644,0.0,-0.001090830782496456,0.001090830782496456,-13.5,57.0625,-31.5
1772912176.0656042,-14.904608682322367,0.46918459811137353,-9.106676188607638,-0.0835453226303359,-1.5560617593068393,9.762769414540644,0.0,-0.001090830782496456,0.001090830782496456,-13.5,57.0625,-31.5
1772912176.079555,-14.904608682322367,0.46918459811137353,-9.106676188607638,-0.08235937260663981,-1.5540340331044133,9.76184301444041,-0.001090830782496456,0.001090830782496456,0.0,-13.5,57.0625,-31.5
1772912176.0955098,-14.904608682322367,0.46918459811137353,-9.106676188607638,-0.08157013611379986,-1.556029715675204,9.761226505522274,0.0,-0.001090830782496456,-0.001090830782496456,-13.5,57.0625,-31.5
1772912176.1139112,-14.904608682322367,0.46918459811137353,-9.106676188607638,-0.08157013611379986,-1.556029715675204,9.761226505522274,0.0,-0.001090830782496456,-0.001090830782496456,-13.5,57.0625,-31.5
1772912176.1475132,-14.904608682322367,0.46918459811137353,-9.106676188607638,-0.08104490804416417,-1.5573578201328302,9.750780890602151,0.001090830782496456,-0.001090830782496456,0.0,-13.875,58.1875,-30.25
1772912176.16164,-14.904608682322367,0.46918459811137353,-9.106676188607638,-0.0806953746310036,-1.5615867705208009,9.750519673972612,0.0,-0.001090830782496456,0.001090830782496456,-13.875,58.1875,-30.25
1772912176.1749945,-14.904608682322367,0.46918459811137353,-9.106676188607638,-0.0806953746310036,-1.5615867705208009,9.750519673972612,0.0,-0.001090830782496456,0.001090830782496456,-13.875,58.1875,-30.25
1772912176.1870728,-14.904608682322367,0.46918459811137353,-9.106676188607638,-0.0804627640490893,-1.5644010897635243,9.743655613808995,0.0,-0.001090830782496456,0.002181661564992912,-13.875,58.1875,-30.25
1772912176.2042606,-14.904608682322367,0.46918459811137353,-9.106676188607638,-0.08030796430525579,-1.5662739877815508,9.745777881861324,0.0,-0.001090830782496456,-0.002181661564992912,-13.5,58.1875,-30.6875
1772912176.2308135,-14.904608682322367,0.46918459811137353,-9.106676188607638,-0.08030796430525579,-1.5662739877815508,9.745777881861324,0.0,-0.001090830782496456,-0.002181661564992912,-13.5,58.1875,-30.6875
1772912176.254932,-14.904608682322367,0.46918459811137353,-9.106676188607638,-0.08020494680496103,-1.560830157076267,9.74719022754286,-0.001090830782496456,-0.002181661564992912,0.0,-13.5,58.1875,-30.6875
1772912176.269208,-14.904608682322367,0.46918459811137353,-9.106676188607638,-0.08013638980929574,-1.557207348553474,9.748130127816989,-0.001090830782496456,-0.001090830782496456,0.0,-13.5,58.1875,-30.6875
1772912176.2865624,-14.904608682322367,0.46918459811137353,-9.106676188607638,-0.08013638980929574,-1.557207348553474,9.748130127816989,-0.001090830782496456,-0.001090830782496456,0.0,-13.5,58.1875,-30.6875
1772912176.3159118,-14.904608682322367,0.46918459811137353,-9.106676188607638,-0.0834358776018317,-1.5581415216582977,9.745410509242728,0.0,0.001090830782496456,-0.001090830782496456,-13.875,57.75,-30.6875
1772912176.3276567,-14.904608682322367,0.46918459811137353,-9.106676188607638,-0.08563164987007071,-1.5587632034241605,9.743600633461687,0.0,-0.001090830782496456,-0.001090830782496456,-13.875,57.75,-30.6875
1772912176.3391714,-14.904608682322367,0.46918459811137353,-9.106676188607638,-0.08563164987007071,-1.5587632034241605,9.743600633461687,0.0,-0.001090830782496456,-0.001090830782496456,-13.875,57.75,-30.6875
1772912176.3510633,-14.904608682322367,0.46918459811137353,-9.106676188607638,-0.083747800078881,-1.5625220374020212,9.74908640476168,0.0,0.002181661564992912,0.001090830782496456,-13.875,57.75,-30.6875
1772912176.3674164,-14.904608682322367,0.46918459811137353,-9.106676188607638,-0.08249411908682526,-1.5650234994253607,9.752737124281746,0.0,-0.002181661564992912,0.002181661564992912,-13.0625,57.5,-30.6875
1772912176.3823938,-14.904608682322367,0.46918459811137353,-9.106676188607638,-0.08249411908682526,-1.5650234994253607,9.752737124281746,0.0,-0.002181661564992912,0.002181661564992912,-13.0625,57.5,-30.6875
1772912176.3964434,-14.904608682322367,0.46918459811137353,-9.106676188607638,-0.08165980839114648,-1.5666881944587314,9.755166637341139,0.0,0.002181661564992912,0.0,-13.0625,57.5,-30.6875
1772912176.412202,-14.904608682322367,0.46918459811137353,-9.106676188607638,-0.08165980839114648,-1.5666881944587314,9.755166637341139,0.0,0.002181661564992912,0.0,-13.0625,57.5,-30.6875
1772912176.4363942,-14.904608682322367,0.46918459811137353,-9.106676188607638,-0.08110458394303337,-1.5677960304075778,9.756783451142727,-0.001090830782496456,0.002181661564992912,-0.001090830782496456,-13.875,58.1875,-30.6875
1772912176.4561777,-14.904608682322367,0.46918459811137353,-9.106676188607638,-0.08073508827507758,-1.5685332828561966,9.76120453437401,0.0,0.002181661564992912,-0.002181661564992912,-13.875,58.1875,-30.6875
1772912176.4703217,-14.904608682322367,0.46918459811137353,-9.106676188607638,-0.08073508827507758,-1.5685332828561966,9.76120453437401,0.0,0.002181661564992912,-0.002181661564992912,-13.875,58.1875,-30.6875
1772912176.4943442,-14.904608682322367,0.46918459811137353,-9.106676188607638,-0.08048919303559006,-1.5656788044177836,9.760801604170373,0.0,0.0,-0.001090830782496456,-13.875,58.1875,-30.6875
1772912176.5247147,-14.904608682322367,0.46918459811137353,-9.106676188607638,-0.08032555250054092,-1.5637791809036332,9.763878570328197,0.001090830782496456,0.001090830782496456,0.001090830782496456,-14.1875,58.1875,-31.875
1772912176.5537717,-14.904608682322367,0.46918459811137353,-9.106676188607638,-0.08356176325976965,-1.562515002675151,9.765926256934264,0.0,0.003272492347489368,0.0,-14.1875,58.1875,-31.875
1772912176.5721126,-14.904608682322367,0.46918459811137353,-9.106676188607638,-0.08571542536919348,-1.5616737061858923,9.767288969496445,0.0,0.001090830782496456,0.0,-14.1875,58.1875,-31.875
1772912176.5846612,-14.904608682322367,0.46918459811137353,-9.106676188607638,-0.08571542536919348,-1.5616737061858923,9.767288969496445,0.0,0.001090830782496456,0.0,-14.1875,58.1875,-31.875
1772912176.6001287,-14.904608682322367,0.46918459811137353,-9.106676188607638,-0.08714866344503293,-1.5577687210628688,9.771540951191398,0.0,-0.002181661564992912,-0.001090830782496456,-14.1875,58.5,-31.0625
1772912176.616805,-14.904608682322367,0.46918459811137353,-9.106676188607638,-0.08475735566686635,-1.5551699970850388,9.764335262389684,0.0,0.001090830782496456,0.0,-14.1875,58.5,-31.0625
1772912176.635753,-14.904608682322367,0.46918459811137353,-9.106676188607638,-0.08316596705315467,-1.5567856870147612,9.7662301803996,-0.001090830782496456,0.0,-0.001090830782496456,-14.1875,58.5,-31.0625
1772912176.652451,-14.904608682322367,0.46918459811137353,-9.106676188607638,-0.08316596705315467,-1.5567856870147612,9.7662301803996,-0.001090830782496456,0.0,-0.001090830782496456,-14.1875,58.5,-31.0625
1772912176.6673517,-14.904608682322367,0.46918459811137353,-9.106676188607638,-0.08210691570770516,-1.5578609106145522,9.760801003752938,0.0,0.001090830782496456,-0.002181661564992912,-13.5,58.1875,-31.875
1772912176.6796749,-14.904608682322367,0.46918459811137353,-9.106676188607638,-0.0814021288676872,-1.5585764599091787,9.763878170757101,0.0,-0.001090830782496456,-0.001090830782496456,-13.5,58.1875,-31.875
1772912176.7037299,-14.904608682322367,0.46918459811137353,-9.106676188607638,-0.0814021288676872,-1.5585764599091787,9.763878170757101,0.0,-0.001090830782496456,-0.001090830782496456,-13.5,58.1875,-31.875
1772912176.7252774,-14.904608682322367,0.46918459811137353,-9.106676188607638,-0.07758798939132072,-1.5590526499715431,9.759235767609525,0.0,0.001090830782496456,0.0,-13.5,58.5,-31.5
1772912176.7516742,-14.904608682322367,0.46918459811137353,-9.106676188607638,-0.07758798939132072,-1.5590526499715431,9.759235767609525,0.0,0.001090830782496456,0.0,-13.5,58.5,-31.5
1772912176.7712786,-14.904608682322367,0.46918459811137353,-9.106676188607638,-0.0750497221765285,-1.5593695491386552,9.766181635295812,0.0,0.0,-0.001090830782496456,-13.5,58.5,-31.5
1772912176.784848,-14.904608682322367,0.46918459811137353,-9.106676188607638,-0.0750497221765285,-1.5593695491386552,9.766181635295812,0.0,0.0,-0.001090830782496456,-13.5,58.5,-31.5
1772912176.814963,0.00019347116554102237,0.4691784386352744,-9.106557137160257,0.3251263678449693,-1.5240249744410812,9.768308940273473,-0.0010541302098286175,-0.00028057315760511586,-0.001090830782496456,-12.6875,57.5,-30.25
1772912177.2405899,0.00019347116554102237,0.4691784386352744,-9.106557137160257,0.3242926873413673,-1.5269042283971865,9.763930350120285,0.0005611463152102317,-0.002108260419657235,0.0,-27.899705593869832,52.334681882814465,-31.0625
1772912177.5507245,0.00019347116554102237,0.4691784386352744,-9.106557137160257,0.3204848738242283,-1.5295948795492689,9.76034140970242,0.00028057315760511586,-0.0010541302098286175,-0.001090830782496456,-28.926458199236965,52.06139570063212,-31.0625
1772912177.607951,0.00019347116554102237,0.4691784386352744,-9.106557137160257,0.3216406476478252,-1.5290919005014596,9.763572316050483,0.00028057315760511586,-0.0010541302098286175,-0.001090830782496456,-28.012235198297855,52.75746236737741,-31.875
1772912177.640736,0.00019347116554102237,0.4691784386352744,-9.106557137160257,0.32327020015302865,-1.5319897403033012,9.76572244813353,-0.0013347033674337334,0.0007735570522235017,-0.002181661564992912,-28.012235198297855,52.75746236737741,-31.875
1772912177.6999428,0.00019347116554102237,0.4691784386352744,-9.106557137160257,0.3275872158814619,-1.5330578223839957,9.76380822530893,-0.00028057315760511586,0.0010541302098286175,-0.001090830782496456,-27.766286949264668,53.534361304690044,-32.25
1772912177.7323601,0.00019347116554102237,0.4691784386352744,-9.106557137160257,0.32959974368806944,-1.5305360523379248,9.75249899628047,0.0016152765250388491,-0.0018276872620521193,0.001090830782496456,-27.766286949264668,53.534361304690044,-32.25
1772912177.7617052,0.00019347116554102237,0.4691784386352744,-9.106557137160257,0.33093905846195815,-1.5288578425422816,9.755008165816355,0.0013347033674337334,-0.0007735570522235017,0.0,-27.766286949264668,53.534361304690044,-32.25
1772912177.7949114,0.00019347116554102237,0.4691784386352744,-9.106557137160257,0.3285977907433401,-1.5286014106065524,9.753332878405907,-0.0016152765250388491,0.0018276872620521193,-0.001090830782496456,-28.012235198297855,52.75746236737741,-31.0625
1772912177.8668895,0.00019347116554102237,0.4691784386352744,-9.106557137160257,0.32790010116671325,-1.5316633247573714,9.75221799334844,0.0,0.0,-0.002181661564992912,-28.012235198297855,52.75746236737741,-31.0625
1772912177.8890667,0.00019347116554102237,0.4691784386352744,-9.106557137160257,0.326575398610732,-1.530468427681405,9.748130938089458,-0.0010541302098286175,-0.00028057315760511586,0.0,-27.589454713734916,52.869991971805426,-31.5
1772912177.9161909,0.00019347116554102237,0.4691784386352744,-9.106557137160257,0.326575398610732,-1.530468427681405,9.748130938089458,-0.0010541302098286175,-0.00028057315760511586,0.0,-27.589454713734916,52.869991971805426,-31.5
1772912177.961102,0.00019347116554102237,0.4691784386352744,-9.106557137160257,0.3251071457072652,-1.5291440465263972,9.750291215726055,0.0,0.0,0.0,-27.835402962768104,52.09309303449279,-31.5
1772912177.9841983,0.00019347116554102237,0.4691784386352744,-9.106557137160257,0.3251071457072652,-1.5291440465263972,9.750291215726055,0.0,0.0,0.0,-27.835402962768104,52.09309303449279,-31.5
1772912178.0004199,0.00019347116554102237,0.4691784386352744,-9.106557137160257,0.32794928469134066,-1.527931478224434,9.753538912519916,0.0005611463152102317,-0.002108260419657235,-0.001090830782496456,-27.835402962768104,52.09309303449279,-31.5
1772912178.0602634,0.00019347116554102237,0.4691784386352744,-9.106557137160257,0.3298406964364702,-1.527124527564753,9.7590453301644,0.0,0.0,-0.001090830782496456,-28.374618470780373,52.66100842072481,-31.0625
1772912178.079687,0.00019347116554102237,0.4691784386352744,-9.106557137160257,0.3298406964364702,-1.527124527564753,9.7590453301644,0.0,0.0,-0.001090830782496456,-28.374618470780373,52.66100842072481,-31.0625
1772912178.10427,0.00019347116554102237,0.4691784386352744,-9.106557137160257,0.3310994098244003,-1.5265875109149647,9.756019566181449,-0.0013347033674337334,0.0007735570522235017,0.0,-28.374618470780373,52.66100842072481,-31.0625
1772912178.1307034,0.00019347116554102237,0.4691784386352744,-9.106557137160257,0.3287045027838033,-1.527090530269839,9.754005954050793,0.0010541302098286175,0.00028057315760511586,0.001090830782496456,-28.374618470780373,52.66100842072481,-31.0625
1772912178.1471412,0.00019347116554102237,0.4691784386352744,-9.106557137160257,0.3262503209647113,-1.524192717291899,9.752665917671363,-0.0007735570522235017,-0.0013347033674337334,-0.001090830782496456,-28.853436766712225,53.24499946473227,-31.875
1772912178.1829298,0.00019347116554102237,0.4691784386352744,-9.106557137160257,0.3262503209647113,-1.524192717291899,9.752665917671363,-0.0007735570522235017,-0.0013347033674337334,-0.001090830782496456,-28.853436766712225,53.24499946473227,-31.875
1772912178.2053165,0.00019347116554102237,0.4691784386352744,-9.106557137160257,0.32461709037911274,-1.5222642551257717,9.75511925013736,-0.001827687262052119,-0.0016152765250388493,0.0,-28.853436766712225,53.24499946473227,-31.875
1772912178.2494652,0.00019347116554102237,0.4691784386352744,-9.106557137160257,0.323530193668778,-1.520980885096548,9.756751915487962,-0.00028057315760511586,0.0010541302098286175,-0.001090830782496456,-28.26208886635235,52.23822793616188,-31.0625
1772912178.2741115,0.00019347116554102237,0.4691784386352744,-9.106557137160257,0.3204347072464067,-1.524219781354236,9.75783843604072,0.0013347033674337334,-0.0007735570522235017,0.001090830782496456,-28.26208886635235,52.23822793616188,-31.0625
1772912178.2907481,0.00019347116554102237,0.4691784386352744,-9.106557137160257,0.3204347072464067,-1.524219781354236,9.75783843604072,0.0013347033674337334,-0.0007735570522235017,0.001090830782496456,-28.26208886635235,52.23822793616188,-31.0625
1772912178.318985,0.00019347116554102237,0.4691784386352744,-9.106557137160257,0.3130529602370937,-1.5346264449962708,9.762387808243394,0.0,0.0,0.0,-27.30744973012956,53.26843197886012,-30.6875
1772912178.3463783,0.00019347116554102237,0.4691784386352744,-9.106557137160257,0.3130529602370937,-1.5346264449962708,9.762387808243394,0.0,0.0,0.0,-27.30744973012956,53.26843197886012,-30.6875
1772912178.369484,0.00019347116554102237,0.4691784386352744,-9.106557137160257,0.309369260760033,-1.5309285802335344,9.761589059712414,0.0,0.0,0.0,-27.30744973012956,53.26843197886012,-30.6875
1772912178.4033036,0.00019347116554102237,0.4691784386352744,-9.106557137160257,0.31015036664718315,-1.5276072946053503,9.76105750148765,-0.0004929838946183858,-0.002388833577262351,-0.001090830782496456,-28.26208886635235,52.23822793616188,-30.25
1772912178.4504921,0.00019347116554102237,0.4691784386352744,-9.106557137160257,0.314763148565511,-1.5277691849240604,9.760703755426965,-0.0015471141044470034,-0.002669406734867467,0.0,-28.26208886635235,52.23822793616188,-30.25
1772912178.5134935,0.00019347116554102237,0.4691784386352744,-9.106557137160257,0.314763148565511,-1.5277691849240604,9.760703755426965,-0.0015471141044470034,-0.002669406734867467,0.0,-28.26208886635235,52.23822793616188,-30.25
1772912178.5604713,0.00019347116554102237,0.4691784386352744,-9.106557137160257,0.3178329034040079,-1.5278769211227285,9.757123229667863,0.0013347033674337334,-0.0007735570522235017,0.001090830782496456,-28.49977229565272,51.91626079896304,-31.0625
1772912178.5877235,0.00019347116554102237,0.4691784386352744,-9.106557137160257,0.31987579095761914,-1.52794861835945,9.754740429772275,0.00028057315760511586,-0.0010541302098286175,-0.001090830782496456,-28.49977229565272,51.91626079896304,-31.0625
1772912178.632285,0.00019347116554102237,0.4691784386352744,-9.106557137160257,0.31987579095761914,-1.52794861835945,9.754740429772275,0.00028057315760511586,-0.0010541302098286175,-0.001090830782496456,-28.49977229565272,51.91626079896304,-31.0625
1772912178.6770399,0.00019347116554102237,0.4691784386352744,-9.106557137160257,0.3203749118675589,-1.524763765330063,9.756499814766698,-0.00028057315760511586,0.0010541302098286175,-0.001090830782496456,-28.19778623525062,51.996639087840194,-30.25
1772912178.698054,0.00019347116554102237,0.4691784386352744,-9.106557137160257,0.3203749118675589,-1.524763765330063,9.756499814766698,-0.00028057315760511586,0.0010541302098286175,-0.001090830782496456,-28.19778623525062,51.996639087840194,-30.25
1772912178.728099,0.00019347116554102237,0.4691784386352744,-9.106557137160257,0.3203749118675589,-1.524763765330063,9.756499814766698,-0.00028057315760511586,0.0010541302098286175,-0.001090830782496456,-28.19778623525062,51.996639087840194,-30.25
1772912178.761067,0.00019347116554102237,0.4691784386352744,-9.106557137160257,0.3215674691940172,-1.52587684795566,9.757670665826868,0.0013347033674337334,-0.0007735570522235017,0.001090830782496456,-28.19778623525062,51.996639087840194,-30.25
1772912178.7858644,0.00019347116554102237,0.4691784386352744,-9.106557137160257,0.3215674691940172,-1.52587684795566,9.757670665826868,0.0013347033674337334,-0.0007735570522235017,0.001090830782496456,-28.19778623525062,51.996639087840194,-30.25
1772912178.8343325,0.00019347116554102237,0.4691784386352744,-9.106557137160257,0.32150070483659765,-1.5233850252695325,9.758449854128148,-0.0004929838946183858,-0.002388833577262351,0.001090830782496456,-28.676604531182473,52.58063013184765,-30.6875
1772912178.8706288,0.00019347116554102237,0.4691784386352744,-9.106557137160257,0.3231770697754203,-1.528191878586427,9.755623283531227,-6.816242059184589e-05,0.0044970939969195866,0.0,-28.676604531182473,52.58063013184765,-30.6875
1772912178.908855,0.00019347116554102237,0.4691784386352744,-9.106557137160257,0.3234322739795441,-1.528158219033236,9.753742232373838,-0.0010541302098286175,-0.00028057315760511586,-0.001090830782496456,-27.835402962768104,52.09309303449279,-31.0625
1772912178.963863,0.00019347116554102237,0.4691784386352744,-9.106557137160257,0.3234322739795441,-1.528158219033236,9.753742232373838,-0.0010541302098286175,-0.00028057315760511586,-0.001090830782496456,-27.835402962768104,52.09309303449279,-31.0625
1772912178.9953585,0.00019347116554102237,0.4691784386352744,-9.106557137160257,0.3244625074630101,-1.5313683857161038,9.752490413841315,-0.00028057315760511586,0.0010541302098286175,0.0,-27.835402962768104,52.09309303449279,-31.0625
1772912179.0397031,0.00019347116554102237,0.4691784386352744,-9.106557137160257,0.32428771840135534,-1.530272149044126,9.75500245429897,-0.0004929838946183858,-0.002388833577262351,0.001090830782496456,-27.476925109306894,52.44721148724249,-31.0625
1772912179.0933566,0.00019347116554102237,0.4691784386352744,-9.106557137160257,0.3250317961697851,-1.5327751825242055,9.756674189162208,-0.00021241073701326992,-0.0034429637870909686,0.001090830782496456,-27.476925109306894,52.44721148724249,-31.0625
1772912179.1372325,0.00019347116554102237,0.4691784386352744,-9.106557137160257,0.3255269716127819,-1.5344409233444825,9.76113182174651,0.00028057315760511586,-0.0010541302098286175,-0.001090830782496456,-28.564074926754447,52.15784964728471,-31.5
1772912179.1620805,0.00019347116554102237,0.4691784386352744,-9.106557137160257,0.32585650533862404,-1.5355494552528326,9.764098326436343,-0.0015471141044470034,-0.002669406734867467,0.0,-28.564074926754447,52.15784964728471,-31.5
1772912179.1960888,0.00019347116554102237,0.4691784386352744,-9.106557137160257,0.32585650533862404,-1.5355494552528326,9.764098326436343,-0.0015471141044470034,-0.002669406734867467,0.0,-28.564074926754447,52.15784964728471,-31.5
1772912179.2692907,0.00019347116554102237,0.4691784386352744,-9.106557137160257,0.32622174872671406,-1.5367781123469644,9.764041182359442,-0.0004929838946183858,-0.002388833577262351,0.0,-27.412622478205165,52.205622638920815,-32.0
1772912179.2975173,0.00019347116554102237,0.4691784386352744,-9.106557137160257,0.32622174872671406,-1.5367781123469644,9.764041182359442,-0.0004929838946183858,-0.002388833577262351,0.0,-27.412622478205165,52.205622638920815,-32.0
1772912179.3816757,0.00019347116554102237,0.4691784386352744,-9.106557137160257,0.32545847381033777,-1.5338722616863578,9.762689361717245,-0.0016152765250388491,0.0018276872620521193,0.0,-28.26208886635235,52.23822793616188,-31.0625
1772912179.424196,0.00019347116554102237,0.4691784386352744,-9.106557137160257,0.3240901249433894,-1.5287058837926883,9.761789740180687,0.0013347033674337334,-0.0007735570522235017,0.001090830782496456,-28.26208886635235,52.23822793616188,-31.0625
1772912179.4485168,0.00019347116554102237,0.4691784386352744,-9.106557137160257,0.3240399019943331,-1.5285002837561885,9.761191052097539,-0.0007735570522235017,-0.0013347033674337334,0.0,-27.114541836824376,52.543665433895086,-30.6875
1772912179.477575,0.00019347116554102237,0.4691784386352744,-9.106557137160257,0.3240399019943331,-1.5285002837561885,9.761191052097539,-0.0007735570522235017,-0.0013347033674337334,0.0,-27.114541836824376,52.543665433895086,-30.6875
1772912179.5205693,0.00019347116554102237,0.4691784386352744,-9.106557137160257,0.32400647918276315,-1.5283634592286008,9.76079263186599,-0.0008417194728153476,0.003162390629485853,-0.001090830782496456,-27.114541836824376,52.543665433895086,-30.6875
1772912179.5560265,0.00019347116554102237,0.4691784386352744,-9.106557137160257,0.32484463461146,-1.5315049707734358,9.757182375945218,0.0007735570522235017,0.0013347033674337334,0.0,-27.899705593869832,52.334681882814465,-30.0
1772912179.5775385,0.00019347116554102237,0.4691784386352744,-9.106557137160257,0.32863498442596273,-1.5327352136771009,9.751434679251828,-0.0013347033674337334,0.0007735570522235017,0.001090830782496456,-27.899705593869832,52.334681882814465,-30.0
1772912179.6018362,0.00019347116554102237,0.4691784386352744,-9.106557137160257,0.3270644552105786,-1.531181757783701,9.747609651308355,-0.0010541302098286175,-0.00028057315760511586,-0.001090830782496456,-27.2270714412524,52.96644591845802,-31.0625
1772912179.6301284,0.00019347116554102237,0.4691784386352744,-9.106557137160257,0.32601928556170134,-1.530147950239883,9.751754361354974,-0.00028057315760511586,0.0010541302098286175,0.002181661564992912,-27.2270714412524,52.96644591845802,-31.0625
1772912179.6583042,0.00019347116554102237,0.4691784386352744,-9.106557137160257,0.32601928556170134,-1.530147950239883,9.751754361354974,-0.00028057315760511586,0.0010541302098286175,0.002181661564992912,-27.2270714412524,52.96644591845802,-31.0625
1772912179.6769881,0.00019347116554102237,0.4691784386352744,-9.106557137160257,0.3261841347721228,-1.5326925296073732,9.754512619591555,-0.0007735570522235017,-0.0013347033674337334,0.0,-28.26208886635235,52.23822793616188,-30.25
1772912179.6970708,0.00019347116554102237,0.4691784386352744,-9.106557137160257,0.326293840080172,-1.5343859187516242,9.756348209636235,0.001827687262052119,0.0016152765250388493,-0.002181661564992912,-28.26208886635235,52.23822793616188,-30.25
1772912179.7245567,0.00019347116554102237,0.4691784386352744,-9.106557137160257,0.326293840080172,-1.5343859187516242,9.756348209636235,0.001827687262052119,0.0016152765250388493,-0.002181661564992912,-28.26208886635235,52.23822793616188,-30.25
1772912179.7518523,0.00019347116554102237,0.4691784386352744,-9.106557137160257,0.32722724567362943,-1.5387454170502415,9.754224662598766,-0.00021241073701326992,-0.0034429637870909686,0.0,-28.012235198297855,52.75746236737741,-30.6875
1772912179.7701507,0.00019347116554102237,0.4691784386352744,-9.106557137160257,0.32722724567362943,-1.5387454170502415,9.754224662598766,-0.00021241073701326992,-0.0034429637870909686,0.0,-28.012235198297855,52.75746236737741,-30.6875
1772912179.792567,0.00019347116554102237,0.4691784386352744,-9.106557137160257,0.3278484166692517,-1.5416466144691847,9.756156577474224,0.0,0.0,-0.002181661564992912,-28.012235198297855,52.75746236737741,-30.6875
1772912179.8223946,0.00019347116554102237,0.4691784386352744,-9.106557137160257,0.326541003155025,-1.5371121954639635,9.760787356950258,0.0007735570522235017,0.0013347033674337334,0.001090830782496456,-28.564074926754447,52.15784964728471,-32.25
1772912179.842477,0.00019347116554102237,0.4691784386352744,-9.106557137160257,0.326541003155025,-1.5371121954639635,9.760787356950258,0.0007735570522235017,0.0013347033674337334,0.001090830782496456,-28.564074926754447,52.15784964728471,-32.25
1772912179.8588324,0.00019347116554102237,0.4691784386352744,-9.106557137160257,0.32567093406607306,-1.534094590268768,9.763869088962362,0.00028057315760511586,-0.0010541302098286175,0.0,-28.564074926754447,52.15784964728471,-32.25
1772912179.873278,0.00019347116554102237,0.4691784386352744,-9.106557137160257,0.32595231074312336,-1.5353189744597384,9.762574835483896,-0.0010541302098286175,-0.00028057315760511586,0.001090830782496456,-28.564074926754447,52.15784964728471,-32.25
1772912179.8991246,0.00019347116554102237,0.4691784386352744,-9.106557137160257,0.32595231074312336,-1.5353189744597384,9.762574835483896,-0.0010541302098286175,-0.00028057315760511586,0.001090830782496456,-28.564074926754447,52.15784964728471,-32.25
1772912179.9429715,0.00019347116554102237,0.4691784386352744,-9.106557137160257,0.32290699703900233,-1.5369941863980012,9.761713524251736,0.0,0.0,0.001090830782496456,-27.589454713734916,52.869991971805426,-31.5
1772912179.9824898,0.00019347116554102237,0.4691784386352744,-9.106557137160257,0.3208803747872928,-1.5381090212295714,9.76114033124821,0.0007735570522235017,0.0013347033674337334,0.0,-27.589454713734916,52.869991971805426,-31.5
1772912180.0016782,0.00019347116554102237,0.4691784386352744,-9.106557137160257,0.32039207825407334,-1.542083498095975,9.76075887770735,-0.0016152765250388491,0.0018276872620521193,0.0,-28.749625963707214,51.39702636774751,-31.0625
1772912180.0371394,0.00019347116554102237,0.4691784386352744,-9.106557137160257,0.3265322558448748,-1.5430076721798724,9.760505024637022,-0.0013347033674337334,0.0007735570522235017,0.0,-28.749625963707214,51.39702636774751,-31.0625
1772912180.0545688,0.00019347116554102237,0.4691784386352744,-9.106557137160257,0.3265322558448748,-1.5430076721798724,9.760505024637022,-0.0013347033674337334,0.0007735570522235017,0.0,-28.749625963707214,51.39702636774751,-31.0625
1772912180.0741804,0.00019347116554102237,0.4691784386352744,-9.106557137160257,0.33061847544127515,-1.5436226997090052,9.753645864839804,-0.002108260419657235,-0.0005611463152102317,0.002181661564992912,-27.30744973012956,53.26843197886012,-30.6875
1772912180.0911782,0.00019347116554102237,0.4691784386352744,-9.106557137160257,0.33061847544127515,-1.5436226997090052,9.753645864839804,-0.002108260419657235,-0.0005611463152102317,0.002181661564992912,-27.30744973012956,53.26843197886012,-30.6875
1772912180.1206553,0.00019347116554102237,0.4691784386352744,-9.106557137160257,0.32752404838778326,-1.5351946913772307,9.749081170616591,0.0007735570522235017,0.0013347033674337334,0.0,-27.30744973012956,53.26843197886012,-30.6875
1772912180.159785,0.00019347116554102237,0.4691784386352744,-9.106557137160257,0.32546474175069956,-1.5295859459794565,9.74938852930934,-0.00021241073701326992,-0.0034429637870909686,0.003272492347489368,-28.26208886635235,52.23822793616188,-31.5
1772912180.1767616,0.00019347116554102237,0.4691784386352744,-9.106557137160257,0.32546474175069956,-1.5295859459794565,9.74938852930934,-0.00021241073701326992,-0.0034429637870909686,0.003272492347489368,-28.26208886635235,52.23822793616188,-31.5
1772912180.2101736,0.00019347116554102237,0.4691784386352744,-9.106557137160257,0.32409429618768276,-1.5258533885710295,9.75293818479326,-0.0016152765250388491,0.0018276872620521193,-0.001090830782496456,-28.26208886635235,52.23822793616188,-31.5
1772912180.2546594,0.00019347116554102237,0.4691784386352744,-9.106557137160257,0.3240426779108144,-1.5266019800506339,9.75530044086556,0.0,0.0,-0.001090830782496456,-27.835402962768104,52.09309303449279,-30.75
1772912180.276998,0.00019347116554102237,0.4691784386352744,-9.106557137160257,0.31840359098158255,-1.5320535219303892,9.756872495893544,0.00028057315760511586,-0.0010541302098286175,0.0,-27.835402962768104,52.09309303449279,-30.75
1772912180.2923582,0.00019347116554102237,0.4691784386352744,-9.106557137160257,0.31840359098158255,-1.5320535219303892,9.756872495893544,0.00028057315760511586,-0.0010541302098286175,0.0,-27.835402962768104,52.09309303449279,-30.75
1772912180.311489,0.00019347116554102237,0.4691784386352744,-9.106557137160257,0.3155112395593465,-1.538914028893168,9.754573569246345,0.0010541302098286175,0.00028057315760511586,0.0,-28.49977229565272,51.91626079896304,-32.0
1772912180.3551466,0.00019347116554102237,0.4691784386352744,-9.106557137160257,0.3200515454765601,-1.5417588237671345,9.753043659243327,-0.0010541302098286175,-0.00028057315760511586,0.0,-28.49977229565272,51.91626079896304,-32.0
1772912180.3773868,0.00019347116554102237,0.4691784386352744,-9.106557137160257,0.3200515454765601,-1.5417588237671345,9.753043659243327,-0.0010541302098286175,-0.00028057315760511586,0.0,-28.49977229565272,51.91626079896304,-32.0
1772912180.3945525,0.00019347116554102237,0.4691784386352744,-9.106557137160257,0.3222126704094861,-1.5404194362378034,9.752025521226532,-0.0023888335772623507,0.0004929838946183859,-0.001090830782496456,-27.931856909420695,52.45547630697531,-30.0
1772912180.4159324,0.00019347116554102237,0.4691784386352744,-9.106557137160257,0.3222126704094861,-1.5404194362378034,9.752025521226532,-0.0023888335772623507,0.0004929838946183859,-0.001090830782496456,-27.931856909420695,52.45547630697531,-30.0
1772912180.4356956,0.00019347116554102237,0.4691784386352744,-9.106557137160257,0.32365087491100103,-1.5395280887989728,9.754693073457021,-0.0008417194728153476,0.003162390629485853,-0.001090830782496456,-27.931856909420695,52.45547630697531,-30.0
1772912180.4550366,0.00019347116554102237,0.4691784386352744,-9.106557137160257,0.32870094861691623,-1.5413070758385097,9.756468299667901,-0.0013347033674337334,0.0007735570522235017,-0.001090830782496456,-27.476925109306894,52.44721148724249,-32.6875
1772912180.4696538,0.00019347116554102237,0.4691784386352744,-9.106557137160257,0.32870094861691623,-1.5413070758385097,9.756468299667901,-0.0013347033674337334,0.0007735570522235017,-0.001090830782496456,-27.476925109306894,52.44721148724249,-32.6875
1772912180.4890397,0.00019347116554102237,0.4691784386352744,-9.106557137160257,0.3255965827761539,-1.5442117677136127,9.757649692880666,0.0010541302098286175,0.00028057315760511586,0.0,-27.476925109306894,52.44721148724249,-32.6875
1772912180.510471,0.00019347116554102237,0.4691784386352744,-9.106557137160257,0.3259028307902405,-1.5420518430330055,9.758435896866734,0.0,0.0,-0.001090830782496456,-27.476925109306894,52.44721148724249,-32.6875
1772912180.5447466,0.00019347116554102237,0.4691784386352744,-9.106557137160257,0.3252462374861613,-1.5373818705464863,9.762304218544308,-0.0028818174718807372,-0.0018958496826439652,0.0,-27.509076424857756,52.56800591140333,-31.0625
1772912180.5710194,0.00019347116554102237,0.4691784386352744,-9.106557137160257,0.32566967991336376,-1.5375066227632332,9.75818831999411,-0.0007735570522235017,-0.0013347033674337334,-0.001090830782496456,-27.509076424857756,52.56800591140333,-31.0625
1772912180.602456,0.00019347116554102237,0.4691784386352744,-9.106557137160257,0.32509107818206584,-1.5343570772303903,9.755449235486552,0.0004929838946183858,0.002388833577262351,-0.001090830782496456,-27.509076424857756,52.56800591140333,-31.0625
1772912180.643031,0.00019347116554102237,0.4691784386352744,-9.106557137160257,0.32470602519329184,-1.532261089861012,9.75362640534435,-0.0013347033674337334,0.0007735570522235017,0.001090830782496456,-27.30744973012956,53.26843197886012,-32.25
1772912180.6719704,0.00019347116554102237,0.4691784386352744,-9.106557137160257,0.3244497767305865,-1.5308662336804038,9.755758443954383,0.0010541302098286175,0.00028057315760511586,0.0,-27.30744973012956,53.26843197886012,-32.25
1772912180.6912475,0.00019347116554102237,0.4691784386352744,-9.106557137160257,0.3275118129806536,-1.5290775745373344,9.757177291832928,-0.0016152765250388491,0.0018276872620521193,0.0,-27.30744973012956,53.26843197886012,-32.25
1772912180.7082734,0.00019347116554102237,0.4691784386352744,-9.106557137160257,0.3275118129806536,-1.5290775745373344,9.757177291832928,-0.0016152765250388491,0.0018276872620521193,0.0,-27.30744973012956,53.26843197886012,-32.25
1772912180.7393367,0.00019347116554102237,0.4691784386352744,-9.106557137160257,0.3286891659634478,-1.5246546751187386,9.764811742661168,0.00021241073701326992,0.0034429637870909686,-0.002181661564992912,-27.476925109306894,52.44721148724249,-29.5
1772912180.764819,0.00019347116554102237,0.4691784386352744,-9.106557137160257,0.3262401144820882,-1.5225716828991265,9.76320216099032,0.0,0.0,0.0,-27.476925109306894,52.44721148724249,-29.5
1772912180.7851176,0.00019347116554102237,0.4691784386352744,-9.106557137160257,0.32547069601538026,-1.524418041585037,9.768821225783213,0.0007735570522235017,0.0013347033674337334,0.0,-27.476925109306894,52.44721148724249,-29.5
1772912180.813192,0.00019347116554102237,0.4691784386352744,-9.106557137160257,0.3249586566207536,-1.5256467726653324,9.76252531551186,0.00021241073701326992,0.0034429637870909686,0.001090830782496456,-27.589454713734916,52.869991971805426,-31.0625
1772912180.8520098,0.00019347116554102237,0.4691784386352744,-9.106557137160257,0.3246179001234844,-1.5264644794734437,9.758335457556202,0.0013347033674337334,-0.0007735570522235017,0.0,-27.589454713734916,52.869991971805426,-31.0625
1772912180.8763824,0.00019347116554102237,0.4691784386352744,-9.106557137160257,0.3243911304810512,-1.527008654219858,9.75554715389049,-0.001827687262052119,-0.0016152765250388493,0.0,-26.812555776422275,52.62404372277224,-30.25
1772912180.9015186,0.00019347116554102237,0.4691784386352744,-9.106557137160257,0.32510061575363414,-1.5306033631742813,9.753691568948351,-0.0007735570522235017,-0.0013347033674337334,0.001090830782496456,-26.812555776422275,52.62404372277224,-30.25
1772912180.9294982,0.00019347116554102237,0.4691784386352744,-9.106557137160257,0.32557277027706827,-1.5329956018279196,9.75580180960492,0.0010541302098286175,0.00028057315760511586,0.001090830782496456,-26.812555776422275,52.62404372277224,-30.25
1772912180.9419708,0.00019347116554102237,0.4691784386352744,-9.106557137160257,0.32557277027706827,-1.5329956018279196,9.75580180960492,0.0010541302098286175,0.00028057315760511586,0.001090830782496456,-26.812555776422275,52.62404372277224,-30.25
1772912180.9593883,0.00019347116554102237,0.4691784386352744,-9.106557137160257,0.32825915264117733,-1.5304946452529054,9.753861039481615,0.00028057315760511586,-0.0010541302098286175,0.0,-27.72287335834008,51.67031254992985,-31.5
1772912180.9717567,0.00019347116554102237,0.4691784386352744,-9.106557137160257,0.3268143433561201,-1.529690684526188,9.755914590351697,0.0005611463152102317,-0.002108260419657235,-0.001090830782496456,-27.72287335834008,51.67031254992985,-31.5
1772912180.9951313,0.00019347116554102237,0.4691784386352744,-9.106557137160257,0.32585283891649164,-1.5291556576433876,9.75393609380875,-0.00028057315760511586,0.0010541302098286175,-0.001090830782496456,-27.72287335834008,51.67031254992985,-31.5
1772912181.04123,0.00019347116554102237,0.4691784386352744,-9.106557137160257,0.32585283891649164,-1.5291556576433876,9.75393609380875,-0.00028057315760511586,0.0010541302098286175,-0.001090830782496456,-27.72287335834008,51.67031254992985,-31.5
1772912181.06682,0.00019347116554102237,0.4691784386352744,-9.106557137160257,0.3219804017131127,-1.529660001165965,9.745929203046035,-0.00021241073701326992,-0.0034429637870909686,-0.001090830782496456,-27.72287335834008,51.67031254992985,-31.0625
1772912181.095064,0.00019347116554102237,0.4691784386352744,-9.106557137160257,0.32177550681529726,-1.5259026714704,9.74060070668628,0.0,0.0,-0.001090830782496456,-27.72287335834008,51.67031254992985,-31.0625
1772912181.1308358,0.00019347116554102237,0.4691784386352744,-9.106557137160257,0.32422034535894495,-1.5330999107486682,9.740399763589386,-0.0007735570522235017,-0.0013347033674337334,0.0,-27.72287335834008,51.67031254992985,-31.0625
1772912181.1544318,0.00019347116554102237,0.4691784386352744,-9.106557137160257,0.32412656222622793,-1.531424459610896,9.750301373325042,-0.002108260419657235,-0.0005611463152102317,0.0,-28.374618470780373,52.66100842072481,-30.6875
1772912181.1794376,0.00019347116554102237,0.4691784386352744,-9.106557137160257,0.32492454853547026,-1.5335420323342384,9.756890783995894,0.0008417194728153476,-0.003162390629485853,0.0,-28.374618470780373,52.66100842072481,-30.6875
1772912181.1956851,0.00019347116554102237,0.4691784386352744,-9.106557137160257,0.32222303277066533,-1.5358116512632252,9.761275963188805,0.0,0.0,0.0,-28.374618470780373,52.66100842072481,-30.6875
1772912181.2188141,0.00019347116554102237,0.4691784386352744,-9.106557137160257,0.32222303277066533,-1.5358116512632252,9.761275963188805,0.0,0.0,0.0,-28.374618470780373,52.66100842072481,-30.6875
1772912181.2380881,0.00019347116554102237,0.4691784386352744,-9.106557137160257,0.320425204207096,-1.537322057307161,9.764194250956026,-0.0010541302098286175,-0.00028057315760511586,-0.002181661564992912,-28.0852566308226,51.57385860327726,-31.5
1772912181.254338,-166.16449400870204,-52.96728275478733,173.1004473996765,0.3224613361206162,-1.5374668177206199,9.766136338865701,0.0007735570522235017,0.0013347033674337334,0.0,-28.0852566308226,51.57385860327726,-31.5
1772912181.2714152,0.00019347116554102237,0.4691784386352744,-9.106557137160257,0.32381635916398016,-1.5375631541586972,9.764083664967728,0.0,0.0,0.0,-28.0852566308226,51.57385860327726,-31.5
1772912181.29716,0.00019347116554102237,0.4691784386352744,-9.106557137160257,0.32381635916398016,-1.5375631541586972,9.764083664967728,0.0,0.0,0.0,-28.0852566308226,51.57385860327726,-31.5
1772912181.3474808,0.00019347116554102237,0.4691784386352744,-9.106557137160257,0.32471811186273963,-1.537627264982089,9.762717633418497,0.0005611463152102317,-0.002108260419657235,-0.001090830782496456,-28.092613487175015,53.0594484277795,-32.0
1772912181.3744178,0.00019347116554102237,0.4691784386352744,-9.106557137160257,0.32359742233764777,-1.5312047965398623,9.761808554682055,0.0007735570522235017,0.0013347033674337334,0.0,-28.092613487175015,53.0594484277795,-32.0
1772912181.3894875,0.00019347116554102237,0.4691784386352744,-9.106557137160257,0.32359742233764777,-1.5312047965398623,9.761808554682055,0.0007735570522235017,0.0013347033674337334,0.0,-28.092613487175015,53.0594484277795,-32.0
1772912181.406464,0.00019347116554102237,0.4691784386352744,-9.106557137160257,0.3245724118505,-1.5333958490142627,9.764548684645348,-0.00028057315760511586,0.0010541302098286175,-0.001090830782496456,-27.862740895917263,53.89674457717256,-31.0625
1772912181.426901,0.00019347116554102237,0.4691784386352744,-9.106557137160257,0.31940749593112416,-1.526016667678212,9.759681987112023,0.0004929838946183858,0.002388833577262351,-0.001090830782496456,-27.862740895917263,53.89674457717256,-31.0625
1772912181.44406,0.00019347116554102237,0.4691784386352744,-9.106557137160257,0.31940749593112416,-1.526016667678212,9.759681987112023,0.0004929838946183858,0.002388833577262351,-0.001090830782496456,-27.862740895917263,53.89674457717256,-31.0625
1772912181.4688854,0.00019347116554102237,0.4691784386352744,-9.106557137160257,0.3217840626315033,-1.5299432072120316,9.759788365975488,0.0010541302098286175,0.00028057315760511586,0.001090830782496456,-27.862740895917263,53.89674457717256,-31.0625
1772912181.4942656,0.00019347116554102237,0.4691784386352744,-9.106557137160257,0.32250524328617675,-1.5293237086699532,9.759859159920795,-0.0013347033674337334,0.0007735570522235017,0.0,-27.899705593869832,52.334681882814465,-32.25
1772912181.508803,0.00019347116554102237,0.4691784386352744,-9.106557137160257,0.32250524328617675,-1.5293237086699532,9.759859159920795,-0.0013347033674337334,0.0007735570522235017,0.0,-27.899705593869832,52.334681882814465,-32.25
1772912181.5358655,0.00019347116554102237,0.4691784386352744,-9.106557137160257,0.32384557889218546,-1.5321440060499667,9.759906272500576,-0.0016152765250388491,0.0018276872620521193,0.001090830782496456,-27.899705593869832,52.334681882814465,-32.25
1772912181.5723665,0.00019347116554102237,0.4691784386352744,-9.106557137160257,0.32473755726545456,-1.5340208824515797,9.759937625396137,-0.0013347033674337334,0.0007735570522235017,0.0,-28.926458199236965,52.06139570063212,-31.5
1772912181.6001167,0.00019347116554102237,0.4691784386352744,-9.106557137160257,0.3253311589088138,-1.5352699227307702,9.7599584903979,-0.00028057315760511586,0.0010541302098286175,0.0,-28.926458199236965,52.06139570063212,-31.5
1772912181.6374354,0.00019347116554102237,0.4691784386352744,-9.106557137160257,0.32486579623506523,-1.5328685783443625,9.756627264116176,0.0,0.0,0.0,-28.374618470780373,52.66100842072481,-31.0625
1772912181.6767037,0.00019347116554102237,0.4691784386352744,-9.106557137160257,0.32486579623506523,-1.5328685783443625,9.756627264116176,0.0,0.0,0.0,-28.374618470780373,52.66100842072481,-31.0625
1772912181.7044122,0.00019347116554102237,0.4691784386352744,-9.106557137160257,0.32455610257412726,-1.5312705104799826,9.757755481945244,0.0010541302098286175,0.00028057315760511586,-0.002181661564992912,-28.374618470780373,52.66100842072481,-31.0625
1772912181.757853,0.00019347116554102237,0.4691784386352744,-9.106557137160257,0.3243500049022779,-1.5302070141678257,9.75516118660015,-0.0013347033674337334,0.0007735570522235017,0.0,-27.2270714412524,52.96644591845802,-31.5
1772912181.7797332,0.00019347116554102237,0.4691784386352744,-9.106557137160257,0.32421284920392396,-1.5294992692521172,9.753434712028168,-0.001895849682643965,0.0028818174718807372,0.0,-27.2270714412524,52.96644591845802,-31.5
1772912181.794825,0.00019347116554102237,0.4691784386352744,-9.106557137160257,0.3249819715552383,-1.532260839656257,9.7522857624865,-0.0013347033674337334,0.0007735570522235017,-0.001090830782496456,-27.2270714412524,52.96644591845802,-31.5
1772912181.8356566,0.00019347116554102237,0.4691784386352744,-9.106557137160257,0.32549381388837834,-1.5340986339114489,9.751521149401125,-0.0010541302098286175,-0.00028057315760511586,-0.001090830782496456,-27.899705593869832,52.334681882814465,-31.0625
1772912181.8564622,0.00019347116554102237,0.4691784386352744,-9.106557137160257,0.3258344392434296,-1.5353216654587722,9.754357419641416,0.0004929838946183858,0.002388833577262351,0.001090830782496456,-27.899705593869832,52.334681882814465,-31.0625
1772912181.8784108,0.00019347116554102237,0.4691784386352744,-9.106557137160257,0.3258344392434296,-1.5353216654587722,9.754357419641416,0.0004929838946183858,0.002388833577262351,0.001090830782496456,-27.899705593869832,52.334681882814465,-31.0625
1772912181.8996034,0.00019347116554102237,0.4691784386352744,-9.106557137160257,0.32606112161218165,-1.5361355792913585,9.756244925803115,-0.0016152765250388491,0.0018276872620521193,-0.002181661564992912,-27.899705593869832,52.334681882814465,-31.0625
1772912181.9338899,0.00019347116554102237,0.4691784386352744,-9.106557137160257,0.32621197619637815,-1.5366772298549312,9.7575010400689,-0.0023888335772623507,0.0004929838946183859,-0.002181661564992912,-27.899705593869832,52.334681882814465,-32.25
1772912181.9498258,29.235925107030788,-2.69471671742383,8.500866515409335,0.3222194035610509,-1.5346655234512803,9.758336970081064,-0.0016152765250388491,0.0018276872620521193,-0.002181661564992912,-27.899705593869832,52.334681882814465,-32.25
1772912181.9762673,0.00019347116554102237,0.4691784386352744,-9.106557137160257,0.31956239107219925,-1.533326755311884,9.75889327216621,0.0008417194728153476,-0.003162390629485853,0.0,-27.899705593869832,52.334681882814465,-32.25
1772912181.9972107,0.00019347116554102237,0.4691784386352744,-9.106557137160257,0.31956239107219925,-1.533326755311884,9.75889327216621,0.0008417194728153476,-0.003162390629485853,0.0,-27.899705593869832,52.334681882814465,-32.25
1772912182.0212612,0.00019347116554102237,0.4691784386352744,-9.106557137160257,0.3201663477447181,-1.5283428553941814,9.759263484989573,-0.00021241073701326992,-0.0034429637870909686,0.001090830782496456,-27.899705593869832,52.334681882814465,-31.0625
1772912182.0428011,0.00019347116554102237,0.4691784386352744,-9.106557137160257,0.32380084090315586,-1.5241657277363212,9.759509857487972,0.00028057315760511586,-0.0010541302098286175,0.001090830782496456,-27.899705593869832,52.334681882814465,-31.0625
1772912182.0660396,0.00019347116554102237,0.4691784386352744,-9.106557137160257,0.3262195555001474,-1.5213858959415885,9.763018927340815,-0.0005611463152102317,0.002108260419657235,-0.001090830782496456,-27.899705593869832,52.334681882814465,-31.0625
1772912182.081385,0.00019347116554102237,0.4691784386352744,-9.106557137160257,0.3262195555001474,-1.5213858959415885,9.763018927340815,-0.0005611463152102317,0.002108260419657235,-0.001090830782496456,-27.899705593869832,52.334681882814465,-31.0625
1772912182.1095998,0.00019347116554102237,0.4691784386352744,-9.106557137160257,0.32631741217899685,-1.5268614803504184,9.765354174129003,0.0,0.0,-0.001090830782496456,-28.012235198297855,52.75746236737741,-32.25
1772912182.1528873,0.00019347116554102237,0.4691784386352744,-9.106557137160257,0.32142917209324723,-1.5249006850656188,9.763563143072808,-0.002669406734867467,0.0015471141044470034,0.0,-28.012235198297855,52.75746236737741,-32.25
1772912182.166795,0.00019347116554102237,0.4691784386352744,-9.106557137160257,0.31817610292140047,-1.5235957977071033,9.759026120204718,-0.0016152765250388491,0.0018276872620521193,0.0,-27.899705593869832,52.334681882814465,-31.0625
1772912182.1902378,0.00019347116554102237,0.4691784386352744,-9.106557137160257,0.31601122172670015,-1.5227274097465582,9.75935189387519,0.0010541302098286175,0.00028057315760511586,0.001090830782496456,-27.899705593869832,52.334681882814465,-31.0625
1772912182.2146323,0.00019347116554102237,0.4691784386352744,-9.106557137160257,0.31952388008732785,-1.5277542428019344,9.75622358090644,-0.00028057315760511586,0.0010541302098286175,0.0,-28.294240181903213,52.35902236032271,-30.25
1772912182.278167,0.00019347116554102237,0.4691784386352744,-9.106557137160257,0.3218615149873606,-1.5310995440468826,9.7574868352786,-0.0005611463152102317,0.002108260419657235,0.0,-28.294240181903213,52.35902236032271,-30.25
1772912182.297855,0.00019347116554102237,0.4691784386352744,-9.106557137160257,0.3218615149873606,-1.5310995440468826,9.7574868352786,-0.0005611463152102317,0.002108260419657235,0.0,-28.294240181903213,52.35902236032271,-30.25
1772912182.3152208,0.00019347116554102237,0.4691784386352744,-9.106557137160257,0.32341718490023963,-1.5333258046559324,9.754982405244478,0.0,0.0,-0.001090830782496456,-28.49977229565272,51.91626079896304,-32.0
1772912182.3374062,0.00019347116554102237,0.4691784386352744,-9.106557137160257,0.32445246584928905,-1.5348073562222946,9.756660846740406,0.002669406734867467,-0.0015471141044470034,-0.002181661564992912,-28.49977229565272,51.91626079896304,-32.0
1772912182.366246,0.00019347116554102237,0.4691784386352744,-9.106557137160257,0.32445246584928905,-1.5348073562222946,9.756660846740406,0.002669406734867467,-0.0015471141044470034,-0.002181661564992912,-28.49977229565272,51.91626079896304,-32.0
1772912182.38291,0.00019347116554102237,0.4691784386352744,-9.106557137160257,0.32342063788315684,-1.529328178760664,9.761122942513845,0.0011222926304204634,-0.00421652083931447,0.002181661564992912,-26.812555776422275,52.62404372277224,-31.5
1772912182.3958642,0.00019347116554102237,0.4691784386352744,-9.106557137160257,0.3244547637708481,-1.5321469808454007,9.764092417406193,-0.0004929838946183858,-0.002388833577262351,-0.002181661564992912,-26.812555776422275,52.62404372277224,-31.5
1772912182.4135065,0.00019347116554102237,0.4691784386352744,-9.106557137160257,0.3244547637708481,-1.5321469808454007,9.764092417406193,-0.0004929838946183858,-0.002388833577262351,-0.002181661564992912,-26.812555776422275,52.62404372277224,-31.5
1772912182.4361567,0.00019347116554102237,0.4691784386352744,-9.106557137160257,0.3234221671242849,-1.5275577286656812,9.766068569775843,0.0,0.0,0.0,-26.812555776422275,52.62404372277224,-31.5
1772912182.4648392,0.00019347116554102237,0.4691784386352744,-9.106557137160257,0.3234221671242849,-1.5275577286656812,9.766068569775843,0.0,0.0,0.0,-26.812555776422275,52.62404372277224,-31.5
1772912182.4864924,0.00019347116554102237,0.4691784386352744,-9.106557137160257,0.32445578146373605,-1.5309687660844131,9.767383677102776,0.00028057315760511586,-0.0010541302098286175,0.0,-28.092613487175015,53.0594484277795,-31.0625
1772912182.5007813,0.00019347116554102237,0.4691784386352744,-9.106557137160257,0.3266554111270481,-1.5259132419673258,9.76491375463082,-0.0013347033674337334,0.0007735570522235017,0.0,-28.092613487175015,53.0594484277795,-31.0625
1772912182.5327916,0.00019347116554102237,0.4691784386352744,-9.106557137160257,0.3266554111270481,-1.5259132419673258,9.76491375463082,-0.0013347033674337334,0.0007735570522235017,0.0,-28.092613487175015,53.0594484277795,-31.0625
1772912182.5483978,0.00019347116554102237,0.4691784386352744,-9.106557137160257,0.3257470712934336,-1.5266418118172629,9.763270048816574,0.0013347033674337334,-0.0007735570522235017,0.001090830782496456,-27.300092873777142,51.78284215435787,-31.875
1772912182.567147,0.00019347116554102237,0.4691784386352744,-9.106557137160257,0.32514258128098394,-1.5271266669137376,9.758831069251272,-0.002108260419657235,-0.0005611463152102317,0.0,-27.300092873777142,51.78284215435787,-31.875
1772912182.582098,0.00019347116554102237,0.4691784386352744,-9.106557137160257,0.3256006978667339,-1.5306818993037699,9.755876977937215,0.00028057315760511586,-0.0010541302098286175,-0.002181661564992912,-27.300092873777142,51.78284215435787,-31.875
1772912182.6024055,0.00019347116554102237,0.4691784386352744,-9.106557137160257,0.3256006978667339,-1.5306818993037699,9.755876977937215,0.00028057315760511586,-0.0010541302098286175,-0.002181661564992912,-27.300092873777142,51.78284215435787,-31.875
1772912182.6282043,0.00019347116554102237,0.4691784386352744,-9.106557137160257,0.32590556933705295,-1.5330478667447882,9.760601286581709,0.00028057315760511586,-0.0010541302098286175,0.0,-28.596226242305313,52.278644071445555,-30.0
1772912182.6966908,0.00019347116554102237,0.4691784386352744,-9.106557137160257,0.3261084578949128,-1.534622391647198,9.763745261210635,0.00028057315760511586,-0.0010541302098286175,0.0,-28.596226242305313,52.278644071445555,-30.0
1772912182.7151146,0.00019347116554102237,0.4691784386352744,-9.106557137160257,0.3261084578949128,-1.534622391647198,9.763745261210635,0.00028057315760511586,-0.0010541302098286175,0.0,-28.596226242305313,52.278644071445555,-30.0
1772912182.7484846,0.00019347116554102237,0.4691784386352744,-9.106557137160257,0.32375517872857984,-1.5266812607940452,9.767229930170096,-0.0013347033674337334,0.0007735570522235017,-0.002181661564992912,-27.669833002612076,53.17197803220753,-31.0625
1772912182.7913988,0.00019347116554102237,0.4691784386352744,-9.106557137160257,0.32375517872857984,-1.5266812607940452,9.767229930170096,-0.0013347033674337334,0.0007735570522235017,-0.002181661564992912,-27.669833002612076,53.17197803220753,-31.0625
1772912182.8361924,0.00019347116554102237,0.4691784386352744,-9.106557137160257,0.32618916783304697,-1.5230599550911583,9.768156549471906,-0.0013347033674337334,0.0007735570522235017,-0.003272492347489368,-27.050239205722647,52.3020765855734,-30.75
1772912182.881105,0.00019347116554102237,0.4691784386352744,-9.106557137160257,0.32780896039263,-1.5206500165985224,9.765428092558926,0.0005611463152102317,-0.002108260419657235,0.002181661564992912,-27.050239205722647,52.3020765855734,-30.75
1772912182.9012165,0.00019347116554102237,0.4691784386352744,-9.106557137160257,0.32888691424676403,-1.51904622945245,9.763612334962199,-0.001827687262052119,-0.0016152765250388493,0.001090830782496456,-28.551450706310124,53.32537775360943,-30.75
1772912182.9450495,0.00019347116554102237,0.4691784386352744,-9.106557137160257,0.32551131581920273,-1.51560675821914,9.762403968564918,-0.0007735570522235017,-0.0013347033674337334,0.0,-28.551450706310124,53.32537775360943,-30.75
1772912182.9696777,0.00019347116554102237,0.4691784386352744,-9.106557137160257,0.32551131581920273,-1.51560675821914,9.762403968564918,-0.0007735570522235017,-0.0013347033674337334,0.0,-28.551450706310124,53.32537775360943,-30.75
1772912182.9843664,0.00019347116554102237,0.4691784386352744,-9.106557137160257,0.32326489277356585,-1.513317828534783,9.761599814225864,0.00028057315760511586,-0.0010541302098286175,0.0,-27.835402962768104,52.09309303449279,-32.25
1772912183.0056791,0.00019347116554102237,0.4691784386352744,-9.106557137160257,0.32326489277356585,-1.513317828534783,9.761599814225864,0.00028057315760511586,-0.0010541302098286175,0.0,-27.835402962768104,52.09309303449279,-32.25
1772912183.0457294,0.00019347116554102237,0.4691784386352744,-9.106557137160257,0.3217699233308842,-1.5117945713988636,9.761064658496217,0.00028057315760511586,-0.0010541302098286175,0.001090830782496456,-27.835402962768104,52.09309303449279,-32.25
1772912183.0737627,0.00019347116554102237,0.4691784386352744,-9.106557137160257,0.31754247112716777,-1.5116412587272456,9.760708518336218,0.0016152765250388491,-0.0018276872620521193,0.003272492347489368,-26.9250853808503,53.04682420733518,-31.5
1772912183.0917802,0.00019347116554102237,0.4691784386352744,-9.106557137160257,0.31644994478220856,-1.5180043643359278,9.757126399330765,-0.0010541302098286175,-0.00028057315760511586,0.001090830782496456,-26.9250853808503,53.04682420733518,-31.5
1772912183.1173816,0.00019347116554102237,0.4691784386352744,-9.106557137160257,0.31644994478220856,-1.5180043643359278,9.757126399330765,-0.0010541302098286175,-0.00028057315760511586,0.001090830782496456,-26.9250853808503,53.04682420733518,-31.5
1772912183.1420217,0.00019347116554102237,0.4691784386352744,-9.106557137160257,0.3157228807039571,-1.522238940037959,9.758087650854847,-0.00028057315760511586,0.0010541302098286175,0.0,-27.835402962768104,52.09309303449279,-30.75
1772912183.1704051,0.00019347116554102237,0.4691784386352744,-9.106557137160257,0.3193319923576726,-1.5274291716674258,9.75872735300624,-0.0013347033674337334,0.0007735570522235017,0.001090830782496456,-27.835402962768104,52.09309303449279,-30.75
1772912183.1922576,0.00019347116554102237,0.4691784386352744,-9.106557137160257,0.32087341791036217,-1.5276506460986352,9.759153067642051,0.0007735570522235017,0.0013347033674337334,0.0,-27.835402962768104,52.09309303449279,-30.75
1772912183.210602,0.00019347116554102237,0.4691784386352744,-9.106557137160257,0.32087341791036217,-1.5276506460986352,9.759153067642051,0.0007735570522235017,0.0013347033674337334,0.0,-27.835402962768104,52.09309303449279,-30.75
1772912183.2394762,0.00019347116554102237,0.4691784386352744,-9.106557137160257,0.3218992193968254,-1.5277980348585736,9.75943637597664,0.00028057315760511586,-0.0010541302098286175,0.0,-26.84470709197314,52.744838146933084,-30.75
1772912183.2530375,0.00019347116554102237,0.4691784386352744,-9.106557137160257,0.3218992193968254,-1.5277980348585736,9.75943637597664,0.00028057315760511586,-0.0010541302098286175,0.0,-26.84470709197314,52.744838146933084,-30.75
1772912183.2677045,0.00019347116554102237,0.4691784386352744,-9.106557137160257,0.32581444556662786,-1.5270357224954327,9.756279802801227,0.00028057315760511586,-0.0010541302098286175,0.001090830782496456,-26.84470709197314,52.744838146933084,-30.75
1772912183.2995934,0.00019347116554102237,0.4691784386352744,-9.106557137160257,0.3251874181071748,-1.527388810069789,9.757524250321543,0.00028057315760511586,-0.0010541302098286175,0.001090830782496456,-26.84470709197314,52.744838146933084,-30.75
1772912183.339743,0.00019347116554102237,0.4691784386352744,-9.106557137160257,0.32563053627370375,-1.5308563526457912,9.758352416244923,0.00028057315760511586,-0.0010541302098286175,0.001090830782496456,-27.899705593869832,52.334681882814465,-31.5
1772912183.3837204,0.00019347116554102237,0.4691784386352744,-9.106557137160257,0.3250650285271352,-1.5299313967556174,9.758903551415713,0.0,0.0,0.0,-27.899705593869832,52.334681882814465,-31.5
1772912183.400515,0.00019347116554102237,0.4691784386352744,-9.106557137160257,0.32382829150248993,-1.5260832822036263,9.755925214007972,0.00028057315760511586,-0.0010541302098286175,0.0,-28.19778623525062,51.996639087840194,-31.0625
1772912183.424655,0.00019347116554102237,0.4691784386352744,-9.106557137160257,0.3230052568278463,-1.5235224049555325,9.753943163733329,0.0013347033674337334,-0.0007735570522235017,-0.003272492347489368,-28.19778623525062,51.996639087840194,-31.0625
1772912183.44365,0.00019347116554102237,0.4691784386352744,-9.106557137160257,0.32331793438221,-1.5250507364933137,9.752624131416505,-0.0010541302098286175,-0.00028057315760511586,0.001090830782496456,-28.19778623525062,51.996639087840194,-31.0625
1772912183.4742627,0.00019347116554102237,0.4691784386352744,-9.106557137160257,0.32331793438221,-1.5250507364933137,9.752624131416505,-0.0010541302098286175,-0.00028057315760511586,0.001090830782496456,-28.19778623525062,51.996639087840194,-31.0625
1772912183.5017438,0.00019347116554102237,0.4691784386352744,-9.106557137160257,0.32366449499309624,-1.5267446844725605,9.758959543858259,0.0,0.0,0.001090830782496456,-26.84470709197314,52.744838146933084,-30.25
1772912183.538272,0.00019347116554102237,0.4691784386352744,-9.106557137160257,0.3261288188200863,-1.5231021628407213,9.759307588060327,-0.0010541302098286175,-0.00028057315760511586,-0.001090830782496456,-26.84470709197314,52.744838146933084,-30.25
1772912183.5574176,0.00019347116554102237,0.4691784386352744,-9.106557137160257,0.3261288188200863,-1.5231021628407213,9.759307588060327,-0.0010541302098286175,-0.00028057315760511586,-0.001090830782496456,-26.84470709197314,52.744838146933084,-30.25
1772912183.5774932,0.00019347116554102237,0.4691784386352744,-9.106557137160257,0.32453623205913273,-1.5215385033208044,9.759539207588896,0.0005611463152102317,-0.002108260419657235,0.0,-29.11936609254215,52.78616224559716,-32.0
1772912183.5917463,0.00019347116554102237,0.4691784386352744,-9.106557137160257,0.3267089500995925,-1.5196375074410817,9.763038459505118,-0.002108260419657235,-0.0005611463152102317,-0.002181661564992912,-29.11936609254215,52.78616224559716,-32.0
1772912183.6095555,0.00019347116554102237,0.4691784386352744,-9.106557137160257,0.3266430988180317,-1.5256979473341103,9.765367172566158,0.0010541302098286175,0.00028057315760511586,0.0,-29.11936609254215,52.78616224559716,-32.0
1772912183.6260242,0.00019347116554102237,0.4691784386352744,-9.106557137160257,0.3266430988180317,-1.5256979473341103,9.765367172566158,0.0010541302098286175,0.00028057315760511586,0.0,-29.11936609254215,52.78616224559716,-32.0
1772912183.6444457,0.00019347116554102237,0.4691784386352744,-9.106557137160257,0.3257388775893207,-1.5264985356438567,9.763571793387532,-0.00028057315760511586,0.0010541302098286175,0.001090830782496456,-27.589454713734916,52.869991971805426,-32.0
1772912183.6650128,0.00019347116554102237,0.4691784386352744,-9.106557137160257,0.3251371284624265,-1.5270313182208355,9.762376988599856,-0.0010541302098286175,-0.00028057315760511586,0.0,-27.589454713734916,52.869991971805426,-32.0
1772912183.6777718,0.00019347116554102237,0.4691784386352744,-9.106557137160257,0.3251371284624265,-1.5270313182208355,9.762376988599856,-0.0010541302098286175,-0.00028057315760511586,0.0,-27.589454713734916,52.869991971805426,-32.0
1772912183.6947773,0.00019347116554102237,0.4691784386352744,-9.106557137160257,0.32473667114045657,-1.5273858790742436,9.761581859360502,0.0004929838946183858,0.002388833577262351,-0.001090830782496456,-27.589454713734916,52.869991971805426,-32.0
1772912183.7106843,0.00019347116554102237,0.4691784386352744,-9.106557137160257,0.32473667114045657,-1.5273858790742436,9.761581859360502,0.0004929838946183858,0.002388833577262351,-0.001090830782496456,-27.589454713734916,52.869991971805426,-32.0
1772912183.7359128,0.00019347116554102237,0.4691784386352744,-9.106557137160257,0.324470171266087,-1.5276218353614823,9.764397821441207,0.00028057315760511586,-0.0010541302098286175,0.0,-26.748253145320547,52.382454874450566,-31.5
1772912183.7578738,0.00019347116554102237,0.4691784386352744,-9.106557137160257,0.3242928185766927,-1.5277788616348353,9.766271812749558,-0.0016152765250388491,0.0018276872620521193,-0.003272492347489368,-26.748253145320547,52.382454874450566,-31.5
1772912183.7748692,0.00019347116554102237,0.4691784386352744,-9.106557137160257,0.3242928185766927,-1.5277788616348353,9.766271812749558,-0.0016152765250388491,0.0018276872620521193,-0.003272492347489368,-26.748253145320547,52.382454874450566,-31.5
1772912183.796548,0.00019347116554102237,0.4691784386352744,-9.106557137160257,0.3241747923430602,-1.5278833608656535,9.767518933031411,0.00028057315760511586,-0.0010541302098286175,-0.001090830782496456,-26.748253145320547,52.382454874450566,-31.5
1772912183.814638,0.00019347116554102237,0.4691784386352744,-9.106557137160257,0.3241747923430602,-1.5278833608656535,9.767518933031411,0.00028057315760511586,-0.0010541302098286175,-0.001090830782496456,-26.748253145320547,52.382454874450566,-31.5
1772912183.8281524,0.00019347116554102237,0.4691784386352744,-9.106557137160257,0.3240962472030171,-1.52795290393643,9.768348877647737,-0.00028057315760511586,0.0010541302098286175,-0.001090830782496456,-27.669833002612076,53.17197803220753,-32.6875
1772912183.8401473,0.00019347116554102237,0.4691784386352744,-9.106557137160257,0.3272765430292398,-1.5271387861367454,9.765556084811495,0.0,0.0,-0.001090830782496456,-27.669833002612076,53.17197803220753,-32.6875
1772912183.8521397,0.00019347116554102237,0.4691784386352744,-9.106557137160257,0.3272765430292398,-1.5271387861367454,9.765556084811495,0.0,0.0,-0.001090830782496456,-27.669833002612076,53.17197803220753,-32.6875
1772912183.8687549,0.00019347116554102237,0.4691784386352744,-9.106557137160257,0.3293929943753588,-1.5265969998353468,9.760352400669197,0.00028057315760511586,-0.0010541302098286175,0.001090830782496456,-27.669833002612076,53.17197803220753,-32.6875
1772912183.8843791,0.00019347116554102237,0.4691784386352744,-9.106557137160257,0.33080146910389036,-1.5262364471039158,9.756889407001458,-0.0013347033674337334,0.0007735570522235017,0.0,-27.669833002612076,53.17197803220753,-30.75
1772912183.9091997,0.00019347116554102237,0.4691784386352744,-9.106557137160257,0.33080146910389036,-1.5262364471039158,9.756889407001458,-0.0013347033674337334,0.0007735570522235017,0.0,-27.669833002612076,53.17197803220753,-30.75
1772912183.9407017,0.00019347116554102237,0.4691784386352744,-9.106557137160257,0.3317387933020345,-1.5259965032887863,9.764620158521709,0.0005611463152102317,-0.002108260419657235,-0.001090830782496456,-27.669833002612076,53.17197803220753,-30.75
1772912183.9559925,0.00019347116554102237,0.4691784386352744,-9.106557137160257,0.3315021741488627,-1.522604256620651,9.769764887300283,0.0016152765250388491,-0.0018276872620521193,0.002181661564992912,-27.835402962768104,52.09309303449279,-31.5
1772912183.9756205,0.00019347116554102237,0.4691784386352744,-9.106557137160257,0.3315021741488627,-1.522604256620651,9.769764887300283,0.0016152765250388491,-0.0018276872620521193,0.002181661564992912,-27.835402962768104,52.09309303449279,-31.5
1772912183.9965074,0.00019347116554102237,0.4691784386352744,-9.106557137160257,0.33134470674563604,-1.5203467543568854,9.76984353512472,-0.0004929838946183858,-0.002388833577262351,0.001090830782496456,-27.835402962768104,52.09309303449279,-31.5
1772912184.042674,0.00019347116554102237,0.4691784386352744,-9.106557137160257,0.32714694927186094,-1.5164722430152267,9.766550762666009,0.00028057315760511586,-0.0010541302098286175,0.001090830782496456,-27.835402962768104,52.09309303449279,-31.5
1772912184.0556712,0.00019347116554102237,0.4691784386352744,-9.106557137160257,0.3252137865015264,-1.5171263657379948,9.757669235962776,0.0,0.0,0.0,-28.374618470780373,52.66100842072481,-31.0625
1772912184.070904,0.00019347116554102237,0.4691784386352744,-9.106557137160257,0.32478768620915116,-1.5207942438424822,9.751758679154928,-0.00028057315760511586,0.0010541302098286175,-0.001090830782496456,-28.374618470780373,52.66100842072481,-31.0625
1772912184.0853837,0.00019347116554102237,0.4691784386352744,-9.106557137160257,0.32478768620915116,-1.5207942438424822,9.751758679154928,-0.00028057315760511586,0.0010541302098286175,-0.001090830782496456,-28.374618470780373,52.66100842072481,-31.0625
1772912184.1028454,0.00019347116554102237,0.4691784386352744,-9.106557137160257,0.32773668796394223,-1.522374777811696,9.754515493039191,-0.0007735570522235017,-0.0013347033674337334,0.003272492347489368,-28.374618470780373,52.66100842072481,-31.0625
1772912184.1539023,0.00019347116554102237,0.4691784386352744,-9.106557137160257,0.32646664894973293,-1.524287003448926,9.759695233590858,0.00028057315760511586,-0.0010541302098286175,0.001090830782496456,-28.2855213804802,53.784214972744536,-31.0625
1772912184.1694531,0.00019347116554102237,0.4691784386352744,-9.106557137160257,0.32646664894973293,-1.524287003448926,9.759695233590858,0.00028057315760511586,-0.0010541302098286175,0.001090830782496456,-28.2855213804802,53.784214972744536,-31.0625
1772912184.2052512,0.00019347116554102237,0.4691784386352744,-9.106557137160257,0.32562145217304206,-1.5255595682495424,9.759797181359179,0.0010541302098286175,0.00028057315760511586,0.001090830782496456,-28.2855213804802,53.784214972744536,-31.0625
1772912184.2445397,0.00019347116554102237,0.4691784386352744,-9.106557137160257,0.32591938109606017,-1.529639012648387,9.759865026460167,0.0007735570522235017,0.0013347033674337334,0.001090830782496456,-27.412622478205165,52.205622638920815,-30.75
1772912184.3021657,0.00019347116554102237,0.4691784386352744,-9.106557137160257,0.32611764946624466,-1.5323538373254382,9.759910176616994,0.0,0.0,-0.001090830782496456,-27.412622478205165,52.205622638920815,-30.75
1772912184.3376684,0.00019347116554102237,0.4691784386352744,-9.106557137160257,0.3262495948517996,-1.5341605228214372,9.759940223542003,-0.0005611463152102317,0.002108260419657235,-0.002181661564992912,-27.835402962768104,52.09309303449279,-31.0625
1772912184.3654559,0.00019347116554102237,0.4691784386352744,-9.106557137160257,0.32633740303195985,-1.535362851837025,9.75996021943495,0.0013347033674337334,-0.0007735570522235017,0.0,-27.835402962768104,52.09309303449279,-31.0625
1772912184.3939393,0.00019347116554102237,0.4691784386352744,-9.106557137160257,0.32633740303195985,-1.535362851837025,9.75996021943495,0.0013347033674337334,-0.0007735570522235017,0.0,-27.835402962768104,52.09309303449279,-31.0625
1772912184.4199858,0.00019347116554102237,0.4691784386352744,-9.106557137160257,0.3263958383949749,-1.5361629883660035,9.759973526478337,-0.0005611463152102317,0.002108260419657235,0.001090830782496456,-27.835402962768104,52.09309303449279,-31.0625
1772912184.4440258,0.00019347116554102237,0.4691784386352744,-9.106557137160257,0.3264347264762956,-1.5366954702879283,9.763327493874382,0.0005611463152102317,-0.002108260419657235,0.0,-27.509076424857756,52.56800591140333,-31.5625
1772912184.4905965,0.00019347116554102237,0.4691784386352744,-9.106557137160257,0.3223676413840523,-1.534677662255681,9.762214410002859,-0.0004929838946183858,-0.002388833577262351,0.0,-27.509076424857756,52.56800591140333,-31.5625
1772912184.514636,0.00019347116554102237,0.4691784386352744,-9.106557137160257,0.3223676413840523,-1.534677662255681,9.762214410002859,-0.0004929838946183858,-0.002388833577262351,0.0,-27.509076424857756,52.56800591140333,-31.5625
1772912184.5452592,0.00019347116554102237,0.4691784386352744,-9.106557137160257,0.3228936084269963,-1.5324744356141737,9.76481877682764,0.0013347033674337334,-0.0007735570522235017,0.0,-27.835402962768104,52.09309303449279,-31.5
1772912184.5672157,0.00019347116554102237,0.4691784386352744,-9.106557137160257,0.32001106687912406,-1.531868610832344,9.76320684214953,-0.0013347033674337334,0.0007735570522235017,0.001090830782496456,-27.835402962768104,52.09309303449279,-31.5
1772912184.5921807,0.00019347116554102237,0.4691784386352744,-9.106557137160257,0.32001106687912406,-1.531868610832344,9.76320684214953,-0.0013347033674337334,0.0007735570522235017,0.001090830782496456,-27.835402962768104,52.09309303449279,-31.5
1772912184.607008,0.00019347116554102237,0.4691784386352744,-9.106557137160257,0.32132533441862865,-1.5306050432711034,9.762134117627738,-0.0010541302098286175,-0.00028057315760511586,-0.001090830782496456,-28.756982820059633,52.88261619224975,-31.0625
1772912184.6365113,0.00019347116554102237,0.4691784386352744,-9.106557137160257,0.3221999647848386,-1.5297641531740722,9.761420231441603,0.0,0.0,0.0,-28.756982820059633,52.88261619224975,-31.0625
1772912184.6751893,0.00019347116554102237,0.4691784386352744,-9.106557137160257,0.3268749861992439,-1.5315767190109313,9.760945148159362,0.0034429637870909686,-0.00021241073701326995,0.001090830782496456,-28.19778623525062,51.996639087840194,-32.25
1772912184.6891272,0.00019347116554102237,0.4691784386352744,-9.106557137160257,0.3268749861992439,-1.5315767190109313,9.760945148159362,0.0034429637870909686,-0.00021241073701326995,0.001090830782496456,-28.19778623525062,51.996639087840194,-32.25
1772912184.7083094,0.00019347116554102237,0.4691784386352744,-9.106557137160257,0.32912576279068023,-1.5295503945881592,9.76062898554206,0.0013347033674337334,-0.0007735570522235017,-0.001090830782496456,-28.19778623525062,51.996639087840194,-32.25
1772912184.7308934,0.00019347116554102237,0.4691784386352744,-9.106557137160257,0.33062362946945917,-1.5282018983203314,9.76376369455933,-0.0007735570522235017,-0.0013347033674337334,-0.001090830782496456,-28.19778623525062,51.996639087840194,-32.25
1772912184.7454364,0.00019347116554102237,0.4691784386352744,-9.106557137160257,0.33062362946945917,-1.5282018983203314,9.76376369455933,-0.0007735570522235017,-0.0013347033674337334,-0.001090830782496456,-28.19778623525062,51.996639087840194,-32.25
1772912184.7611213,0.00019347116554102237,0.4691784386352744,-9.106557137160257,0.33162044301191945,-1.5273044891177823,9.762504696686012,-0.0007735570522235017,-0.0013347033674337334,0.0,-27.30744973012956,53.26843197886012,-30.25
1772912184.778871,0.00019347116554102237,0.4691784386352744,-9.106557137160257,0.3331442092257292,-1.5299398400577182,9.761666847665246,-0.0007735570522235017,-0.0013347033674337334,0.001090830782496456,-27.30744973012956,53.26843197886012,-30.25
1772912184.7919798,0.00019347116554102237,0.4691784386352744,-9.106557137160257,0.3331442092257292,-1.5299398400577182,9.761666847665246,-0.0007735570522235017,-0.0013347033674337334,0.001090830782496456,-27.30744973012956,53.26843197886012,-30.25
1772912184.807713,0.00019347116554102237,0.4691784386352744,-9.106557137160257,0.330925691879921,-1.5325540346058857,9.757764156793993,-0.0004929838946183858,-0.002388833577262351,0.002181661564992912,-27.30744973012956,53.26843197886012,-30.25
1772912184.8206735,0.00019347116554102237,0.4691784386352744,-9.106557137160257,0.32944929336874823,-1.5342937518752247,9.755166959615089,-0.0013347033674337334,0.0007735570522235017,-0.001090830782496456,-27.931856909420695,52.45547630697531,-31.0625
1772912184.8467448,0.00019347116554102237,0.4691784386352744,-9.106557137160257,0.32944929336874823,-1.5342937518752247,9.755166959615089,-0.0013347033674337334,0.0007735570522235017,-0.001090830782496456,-27.931856909420695,52.45547630697531,-31.0625
1772912184.8644426,0.00019347116554102237,0.4691784386352744,-9.106557137160257,0.32932716458845407,-1.5386840810235691,9.750093442197802,-0.0008417194728153476,0.003162390629485853,-0.001090830782496456,-27.931856909420695,52.45547630697531,-31.0625
1772912184.8798032,0.00019347116554102237,0.4691784386352744,-9.106557137160257,0.3283854913129969,-1.5383732292890877,9.753407296446138,-0.0004929838946183858,-0.002388833577262351,0.003272492347489368,-27.931856909420695,52.45547630697531,-31.0625
1772912184.8933172,0.00019347116554102237,0.4691784386352744,-9.106557137160257,0.3283854913129969,-1.5383732292890877,9.753407296446138,-0.0004929838946183858,-0.002388833577262351,0.003272492347489368,-27.931856909420695,52.45547630697531,-31.0625
1772912184.911683,0.00019347116554102237,0.4691784386352744,-9.106557137160257,0.3286192162037992,-1.5413989276717466,9.755612629430228,0.0007735570522235017,0.0013347033674337334,0.001090830782496456,-27.589454713734916,52.869991971805426,-30.75
1772912184.932176,0.00019347116554102237,0.4691784386352744,-9.106557137160257,0.32791435957131065,-1.5401799294066256,9.757080253895957,-0.0005611463152102317,0.002108260419657235,0.0,-27.589454713734916,52.869991971805426,-30.75
1772912184.949254,0.00019347116554102237,0.4691784386352744,-9.106557137160257,0.32791435957131065,-1.5401799294066256,9.757080253895957,-0.0005611463152102317,0.002108260419657235,0.0,-27.589454713734916,52.869991971805426,-30.75
1772912184.965315,0.00019347116554102237,0.4691784386352744,-9.106557137160257,0.3274452853561541,-1.5393686996782905,9.75805694158346,-0.00028057315760511586,0.0010541302098286175,0.001090830782496456,-27.589454713734916,52.869991971805426,-30.75
1772912184.981657,0.00019347116554102237,0.4691784386352744,-9.106557137160257,0.3262727237694304,-1.535596268616599,9.758706916329178,-0.002108260419657235,-0.0005611463152102317,-0.002181661564992912,-27.669833002612076,53.17197803220753,-31.5
1772912184.9967961,0.00019347116554102237,0.4691784386352744,-9.106557137160257,0.3254923971318369,-1.5330857578858592,9.75913946726176,-0.001895849682643965,0.0028818174718807372,0.001090830782496456,-27.669833002612076,53.17197803220753,-31.5
1772912185.0093527,0.00019347116554102237,0.4691784386352744,-9.106557137160257,0.3254923971318369,-1.5330857578858592,9.75913946726176,-0.001895849682643965,0.0028818174718807372,0.001090830782496456,-27.669833002612076,53.17197803220753,-31.5
1772912185.0254927,0.00019347116554102237,0.4691784386352744,-9.106557137160257,0.32497309847133815,-1.5314150410387943,9.7627724367828,-0.0010541302098286175,-0.00028057315760511586,0.0,-27.669833002612076,53.17197803220753,-31.5
1772912185.0386817,0.00019347116554102237,0.4691784386352744,-9.106557137160257,0.3246275110137224,-1.5303031976402026,9.765190137416125,-0.0010541302098286175,-0.00028057315760511586,-0.002181661564992912,-27.476925109306894,52.44721148724249,-32.25
1772912185.0513067,0.00019347116554102237,0.4691784386352744,-9.106557137160257,0.3246275110137224,-1.5303031976402026,9.765190137416125,-0.0010541302098286175,-0.00028057315760511586,-0.002181661564992912,-27.476925109306894,52.44721148724249,-32.25
1772912185.0727463,0.00019347116554102237,0.4691784386352744,-9.106557137160257,0.3243975264211439,-1.5295632782785447,9.766799090180116,-0.0005611463152102317,0.002108260419657235,-0.001090830782496456,-27.476925109306894,52.44721148724249,-32.25
1772912185.0968156,0.00019347116554102237,0.4691784386352744,-9.106557137160257,0.32424447424387914,-1.5290708702088018,9.767869830271373,-0.0010541302098286175,-0.00028057315760511586,-0.001090830782496456,-27.476925109306894,52.44721148724249,-32.25
1772912185.1198235,0.00019347116554102237,0.4691784386352744,-9.106557137160257,0.32414261972961433,-1.5287431781389467,9.768582395841154,-0.0013347033674337334,0.0007735570522235017,0.001090830782496456,-28.387242691224696,51.493480314400095,-31.0625
1772912185.1338136,0.00019347116554102237,0.4691784386352744,-9.106557137160257,0.3249352346245999,-1.531757669466533,9.765711488560644,0.0007735570522235017,0.0013347033674337334,-0.001090830782496456,-28.387242691224696,51.493480314400095,-31.0625
1772912185.1534715,0.00019347116554102237,0.4691784386352744,-9.106557137160257,0.3249352346245999,-1.531757669466533,9.765711488560644,0.0007735570522235017,0.0013347033674337334,-0.001090830782496456,-28.387242691224696,51.493480314400095,-31.0625
1772912185.1752355,0.00019347116554102237,0.4691784386352744,-9.106557137160257,0.3246023130466849,-1.5305312130314523,9.7638009318356,0.00028057315760511586,-0.0010541302098286175,0.0,-28.387242691224696,51.493480314400095,-31.0625
1772912185.1904144,0.00019347116554102237,0.4691784386352744,-9.106557137160257,0.3243807574555602,-1.5297150199743224,9.7625294776774,0.0004929838946183858,0.002388833577262351,0.0,-28.676604531182473,52.58063013184765,-31.5
1772912185.2041306,0.00019347116554102237,0.4691784386352744,-9.106557137160257,0.3243807574555602,-1.5297150199743224,9.7625294776774,0.0004929838946183858,0.002388833577262351,0.0,-28.676604531182473,52.58063013184765,-31.5
1772912185.2179315,0.00019347116554102237,0.4691784386352744,-9.106557137160257,0.3233729167481655,-1.5259392858727614,9.761683339138193,0.0,0.0,-0.001090830782496456,-28.676604531182473,52.58063013184765,-31.5
1772912185.2308764,0.00019347116554102237,0.4691784386352744,-9.106557137160257,0.323562607952152,-1.526659143745401,9.764465355099656,0.0010541302098286175,0.00028057315760511586,0.0,-28.676604531182473,52.58063013184765,-31.5
1772912185.246117,0.00019347116554102237,0.4691784386352744,-9.106557137160257,0.323562607952152,-1.526659143745401,9.764465355099656,0.0010541302098286175,0.00028057315760511586,0.0,-28.676604531182473,52.58063013184765,-31.5
1772912185.259267,0.00019347116554102237,0.4691784386352744,-9.106557137160257,0.32368884532941544,-1.527138201118303,9.762971643937536,0.0010541302098286175,0.00028057315760511586,-0.002181661564992912,-28.853436766712225,53.24499946473227,-31.5
1772912185.2782896,0.00019347116554102237,0.4691784386352744,-9.106557137160257,0.3237728548938204,-1.5274570084485481,9.765322707552311,0.001895849682643965,-0.0028818174718807372,-0.001090830782496456,-28.853436766712225,53.24499946473227,-31.5
1772912185.29861,0.00019347116554102237,0.4691784386352744,-9.106557137160257,0.3237728548938204,-1.5274570084485481,9.765322707552311,0.001895849682643965,-0.0028818174718807372,-0.001090830782496456,-28.853436766712225,53.24499946473227,-31.5
1772912185.3339646,0.00019347116554102237,0.4691784386352744,-9.106557137160257,0.3238287623204836,-1.5276691711655148,9.766887314124842,-0.002108260419657235,-0.0005611463152102317,0.001090830782496456,-28.853436766712225,53.24499946473227,-31.5
1772912185.3530712,0.00019347116554102237,0.4691784386352744,-9.106557137160257,0.3262381368914763,-1.5237173984076895,9.767928542321062,-0.0005611463152102317,0.002108260419657235,0.002181661564992912,-28.189067433827606,53.42183170026202,-30.75
1772912185.3687336,0.00019347116554102237,0.4691784386352744,-9.106557137160257,0.3262381368914763,-1.5237173984076895,9.767928542321062,-0.0005611463152102317,0.002108260419657235,0.002181661564992912,-28.189067433827606,53.42183170026202,-30.75
1772912185.3852835,0.00019347116554102237,0.4691784386352744,-9.106557137160257,0.3287019466904338,-1.5243201045210653,9.768621468054365,-0.00028057315760511586,0.0010541302098286175,0.0,-28.189067433827606,53.42183170026202,-30.75
1772912185.3986,0.00019347116554102237,0.4691784386352744,-9.106557137160257,0.32624861991312726,-1.5223490299037734,9.76908260238939,-0.0023888335772623507,0.0004929838946183859,-0.001090830782496456,-28.189067433827606,53.42183170026202,-30.75
1772912185.4109666,0.00019347116554102237,0.4691784386352744,-9.106557137160257,0.32624861991312726,-1.5223490299037734,9.76908260238939,-0.0023888335772623507,0.0004929838946183859,-0.001090830782496456,-28.189067433827606,53.42183170026202,-30.75
1772912185.4238071,0.00019347116554102237,0.4691784386352744,-9.106557137160257,0.32633675422116426,-1.527502435243341,9.766044370430823,-0.0010541302098286175,-0.00028057315760511586,0.001090830782496456,-27.835402962768104,52.09309303449279,-32.0
1772912185.4362226,0.00019347116554102237,0.4691784386352744,-9.106557137160257,0.3263954066186381,-1.5309319689295138,9.764022461001671,0.0007735570522235017,0.0013347033674337334,-0.001090830782496456,-27.835402962768104,52.09309303449279,-32.0
1772912185.448963,0.00019347116554102237,0.4691784386352744,-9.106557137160257,0.3263954066186381,-1.5309319689295138,9.764022461001671,0.0007735570522235017,0.0013347033674337334,-0.001090830782496456,-27.835402962768104,52.09309303449279,-32.0
1772912185.4643977,29.235925107030788,-2.69471671742383,8.500866515409335,0.3264344391339667,-1.53321428528726,9.76267690286278,-0.0013347033674337334,0.0007735570522235017,0.001090830782496456,-27.835402962768104,52.09309303449279,-32.0
1772912185.4851196,0.00019347116554102237,0.4691784386352744,-9.106557137160257,0.32646041483689614,-1.534733141328196,9.761781448952215,0.0,0.0,-0.002181661564992912,-27.2270714412524,52.96644591845802,-30.75
1772912185.4979773,0.00019347116554102237,0.4691784386352744,-9.106557137160257,0.32646041483689614,-1.534733141328196,9.761781448952215,0.0,0.0,-0.002181661564992912,-27.2270714412524,52.96644591845802,-30.75
1772912185.5159574,0.00019347116554102237,0.4691784386352744,-9.106557137160257,0.32475690550414943,-1.5292787895776758,9.76118553437761,0.0005611463152102317,-0.002108260419657235,-0.002181661564992912,-27.2270714412524,52.96644591845802,-30.75
1772912185.5383615,0.00019347116554102237,0.4691784386352744,-9.106557137160257,0.320390672333138,-1.5265093773532454,9.760788959885012,-0.00028057315760511586,0.0010541302098286175,0.002181661564992912,-27.2270714412524,52.96644591845802,-30.75
1772912185.5564058,0.00019347116554102237,0.4691784386352744,-9.106557137160257,0.31748499293185023,-1.5246663644542486,9.760525043990215,-0.0011222926304204634,0.00421652083931447,-0.001090830782496456,-27.2270714412524,52.96644591845802,-31.5
1772912185.56875,0.00019347116554102237,0.4691784386352744,-9.106557137160257,0.31748499293185023,-1.5246663644542486,9.760525043990215,-0.0011222926304204634,0.00421652083931447,-0.001090830782496456,-27.2270714412524,52.96644591845802,-31.5
1772912185.5839589,0.00019347116554102237,0.4691784386352744,-9.106557137160257,0.31555129574885893,-1.5234398599577692,9.760349410910363,0.0005611463152102317,-0.002108260419657235,-0.002181661564992912,-27.2270714412524,52.96644591845802,-31.5
1772912185.596696,0.00019347116554102237,0.4691784386352744,-9.106557137160257,0.31921780448678433,-1.5282283704589052,9.763577640764991,-0.0015471141044470034,-0.002669406734867467,0.0,-27.2270714412524,52.96644591845802,-31.5
1772912185.6102123,0.00019347116554102237,0.4691784386352744,-9.106557137160257,0.31921780448678433,-1.5282283704589052,9.763577640764991,-0.0015471141044470034,-0.002669406734867467,0.0,-27.2270714412524,52.96644591845802,-31.5
1772912185.622577,0.00019347116554102237,0.4691784386352744,-9.106557137160257,0.3216578250942874,-1.5314150707062437,9.765725991671555,-0.002108260419657235,-0.0005611463152102317,0.001090830782496456,-28.012235198297855,52.75746236737741,-31.0625
1772912185.6347537,0.00019347116554102237,0.4691784386352744,-9.106557137160257,0.321560835678886,-1.5270706506440443,9.77384591861586,-0.0010541302098286175,-0.00028057315760511586,0.001090830782496456,-28.012235198297855,52.75746236737741,-31.0625
1772912185.6502218,0.00019347116554102237,0.4691784386352744,-9.106557137160257,0.321560835678886,-1.5270706506440443,9.77384591861586,-0.0010541302098286175,-0.00028057315760511586,0.001090830782496456,-28.012235198297855,52.75746236737741,-31.0625
1772912185.668204,0.00019347116554102237,0.4691784386352744,-9.106557137160257,0.32149629030637905,-1.5241794876230024,9.779249639291768,-0.00028057315760511586,0.0010541302098286175,-0.001090830782496456,-28.012235198297855,52.75746236737741,-31.0625
1772912185.6885629,0.00019347116554102237,0.4691784386352744,-9.106557137160257,0.3214533360819947,-1.5222554509289061,9.77281041991611,-0.0004929838946183858,-0.002388833577262351,0.001090830782496456,-27.835402962768104,52.09309303449279,-32.25
1772912185.7068992,0.00019347116554102237,0.4691784386352744,-9.106557137160257,0.3214247505254971,-1.520975026001883,9.765180079645086,-0.0023888335772623507,0.0004929838946183859,-0.001090830782496456,-27.835402962768104,52.09309303449279,-32.25
1772912185.7259028,0.00019347116554102237,0.4691784386352744,-9.106557137160257,0.3214247505254971,-1.520975026001883,9.765180079645086,-0.0023888335772623507,0.0004929838946183859,-0.001090830782496456,-27.835402962768104,52.09309303449279,-32.25
1772912185.7397244,0.00019347116554102237,0.4691784386352744,-9.106557137160257,0.3214057271569695,-1.520122917516233,9.763447285138524,0.0013347033674337334,-0.0007735570522235017,0.0,-27.835402962768104,52.09309303449279,-32.25
1772912185.7525313,0.00019347116554102237,0.4691784386352744,-9.106557137160257,0.3213930673177194,-1.5195558488377083,9.758949018043669,-0.00028057315760511586,0.0010541302098286175,0.0,-27.509076424857756,52.56800591140333,-31.5
1772912185.7705207,0.00019347116554102237,0.4691784386352744,-9.106557137160257,0.3213930673177194,-1.5195558488377083,9.758949018043669,-0.00028057315760511586,0.0010541302098286175,0.0,-27.509076424857756,52.56800591140333,-31.5
1772912185.7886157,0.00019347116554102237,0.4691784386352744,-9.106557137160257,0.3246172090756327,-1.518318073030283,9.75595547154098,0.0,0.0,-0.002181661564992912,-27.509076424857756,52.56800591140333,-31.5
1772912185.8037922,0.00019347116554102237,0.4691784386352744,-9.106557137160257,0.3267628393995007,-1.5174943470573032,9.753963299783546,-0.00028057315760511586,0.0010541302098286175,-0.001090830782496456,-27.509076424857756,52.56800591140333,-31.5
1772912185.8161702,0.00019347116554102237,0.4691784386352744,-9.106557137160257,0.3267628393995007,-1.5174943470573032,9.753963299783546,-0.00028057315760511586,0.0010541302098286175,-0.001090830782496456,-27.509076424857756,52.56800591140333,-31.5
1772912185.834283,0.00019347116554102237,0.4691784386352744,-9.106557137160257,0.329051130348213,-1.5201787333634218,9.75263753173299,-0.00028057315760511586,0.0010541302098286175,0.001090830782496456,-28.012235198297855,52.75746236737741,-31.0625
1772912185.8494756,0.00019347116554102237,0.4691784386352744,-9.106557137160257,0.3273413956731816,-1.5228255604000231,9.755100359612465,-0.002108260419657235,-0.0005611463152102317,0.001090830782496456,-28.012235198297855,52.75746236737741,-31.0625
1772912185.8653774,0.00019347116554102237,0.4691784386352744,-9.106557137160257,0.3253431884094966,-1.5213544274863715,9.760084455761984,0.0010541302098286175,0.00028057315760511586,-0.004363323129985824,-28.012235198297855,52.75746236737741,-31.0625
1772912185.8785348,0.00019347116554102237,0.4691784386352744,-9.106557137160257,0.3253431884094966,-1.5213544274863715,9.760084455761984,0.0010541302098286175,0.00028057315760511586,-0.004363323129985824,-28.012235198297855,52.75746236737741,-31.0625
1772912185.8927495,0.00019347116554102237,0.4691784386352744,-9.106557137160257,0.324013403796952,-1.5203754049659677,9.763401316073487,0.0005611463152102317,-0.002108260419657235,-0.002181661564992912,-27.589454713734916,52.869991971805426,-30.25
1772912185.9064665,0.00019347116554102237,0.4691784386352744,-9.106557137160257,0.32312844699197096,-1.5197238764150371,9.765608649559034,-0.0004929838946183858,-0.002388833577262351,-0.001090830782496456,-27.589454713734916,52.869991971805426,-30.25
1772912185.918918,0.00019347116554102237,0.4691784386352744,-9.106557137160257,0.32312844699197096,-1.5197238764150371,9.765608649559034,-0.0004929838946183858,-0.002388833577262351,-0.001090830782496456,-27.589454713734916,52.869991971805426,-30.25
1772912185.9312034,0.00019347116554102237,0.4691784386352744,-9.106557137160257,0.32339991606031065,-1.5225228581819583,9.763732493628817,-0.0010541302098286175,-0.00028057315760511586,0.0,-27.589454713734916,52.869991971805426,-30.25
1772912185.9431245,0.00019347116554102237,0.4691784386352744,-9.106557137160257,0.32339991606031065,-1.5225228581819583,9.763732493628817,-0.0010541302098286175,-0.00028057315760511586,0.0,-27.589454713734916,52.869991971805426,-30.25
1772912185.9599147,0.00019347116554102237,0.4691784386352744,-9.106557137160257,0.32358057569278253,-1.5243855492811693,9.762483932815291,-0.002108260419657235,-0.0005611463152102317,0.002181661564992912,-28.189067433827606,53.42183170026202,-32.0
1772912185.9805834,0.00019347116554102237,0.4691784386352744,-9.106557137160257,0.3237008026600923,-1.5256251494000714,9.761653029541229,-0.0010541302098286175,-0.00028057315760511586,-0.001090830782496456,-28.189067433827606,53.42183170026202,-32.0
1772912186.0007434,0.00019347116554102237,0.4691784386352744,-9.106557137160257,0.3214086435607384,-1.530543054107914,9.761100072694138,0.0,0.0,0.001090830782496456,-28.189067433827606,53.42183170026202,-32.0
1772912186.0443828,0.00019347116554102237,0.4691784386352744,-9.106557137160257,0.31449035927838986,-1.5325518075063442,9.760487195114512,0.0007735570522235017,0.0013347033674337334,-0.001090830782496456,-28.596226242305313,52.278644071445555,-31.5
1772912186.065926,0.00019347116554102237,0.4691784386352744,-9.106557137160257,0.31449035927838986,-1.5325518075063442,9.760487195114512,0.0007735570522235017,0.0013347033674337334,-0.001090830782496456,-28.596226242305313,52.278644071445555,-31.5
1772912186.0842237,0.00019347116554102237,0.4691784386352744,-9.106557137160257,0.31118623170165555,-1.5327804988987224,9.760324222906382,-0.00028057315760511586,0.0010541302098286175,-0.002181661564992912,-28.596226242305313,52.278644071445555,-31.5
1772912186.09663,0.00019347116554102237,0.4691784386352744,-9.106557137160257,0.3163129031243308,-1.5344444613323356,9.76021576672239,-0.0015471141044470034,-0.002669406734867467,0.0,1950.8016052692888,579.1261763456789,-32.0
1772912186.1174843,0.00019347116554102237,0.4691784386352744,-9.106557137160257,0.3163129031243308,-1.5344444613323356,9.76021576672239,-0.0015471141044470034,-0.002669406734867467,0.0,1950.8016052692888,579.1261763456789,-32.0
1772912186.1456163,0.00019347116554102237,0.4691784386352744,-9.106557137160257,0.31886424775100974,-1.5323192430047123,9.766833813758117,-0.0023888335772623507,0.0004929838946183859,0.0,1950.8016052692888,579.1261763456789,-32.0
1772912186.1656241,0.00019347116554102237,0.4691784386352744,-9.106557137160257,0.31884134322679897,-1.524439800468894,9.767892938424644,-0.0023888335772623507,0.0004929838946183859,0.0,1950.8016052692888,579.1261763456789,-32.0
1772912186.1837962,0.00019347116554102237,0.4691784386352744,-9.106557137160257,0.318826100521797,-1.5191961194804473,9.768597774059021,-0.0004929838946183858,-0.002388833577262351,0.001090830782496456,-26.84470709197314,52.744838146933084,-30.75
1772912186.208807,0.00019347116554102237,0.4691784386352744,-9.106557137160257,0.32053675254476904,-1.5221716418374198,9.75903149917821,0.0004929838946183858,0.002388833577262351,0.001090830782496456,-26.84470709197314,52.744838146933084,-30.75
1772912186.2278264,0.00019347116554102237,0.4691784386352744,-9.106557137160257,0.3216751723568217,-1.5241518187272227,9.752665250107324,0.0010541302098286175,0.00028057315760511586,0.0,-26.84470709197314,52.744838146933084,-30.75
1772912186.241887,0.00019347116554102237,0.4691784386352744,-9.106557137160257,0.3216751723568217,-1.5241518187272227,9.752665250107324,0.0010541302098286175,0.00028057315760511586,0.0,-26.84470709197314,52.744838146933084,-30.75
1772912186.256019,0.00019347116554102237,0.4691784386352744,-9.106557137160257,0.3224327780247603,-1.5254696043273612,9.755118805880949,-0.00028057315760511586,0.0010541302098286175,0.0,-27.931856909420695,52.45547630697531,-30.75
1772912186.2713528,0.00019347116554102237,0.4691784386352744,-9.106557137160257,0.3224327780247603,-1.5254696043273612,9.755118805880949,-0.00028057315760511586,0.0010541302098286175,0.0,-27.931856909420695,52.45547630697531,-30.75
1772912186.284532,0.00019347116554102237,0.4691784386352744,-9.106557137160257,0.3229369561337635,-1.5263465759236237,9.756751619840282,-0.0016152765250388491,0.0018276872620521193,-0.001090830782496456,-27.931856909420695,52.45547630697531,-30.75
1772912186.3025753,0.00019347116554102237,0.4691784386352744,-9.106557137160257,0.32327248103326667,-1.5269301907245216,9.757838239290491,0.0007735570522235017,0.0013347033674337334,0.0,-27.931856909420695,52.45547630697531,-30.75
1772912186.3165748,0.00019347116554102237,0.4691784386352744,-9.106557137160257,0.32327248103326667,-1.5269301907245216,9.757838239290491,0.0007735570522235017,0.0013347033674337334,0.0,-27.931856909420695,52.45547630697531,-30.75
1772912186.3304703,0.00019347116554102237,0.4691784386352744,-9.106557137160257,0.322635371169388,-1.5240860131156002,9.75856137239627,-0.0007735570522235017,-0.0013347033674337334,-0.001090830782496456,-28.294240181903213,52.35902236032271,-32.0
1772912186.3442106,0.00019347116554102237,0.4691784386352744,-9.106557137160257,0.32307177960839956,-1.5254258114279233,9.759042609400241,-0.002108260419657235,-0.0005611463152102317,-0.002181661564992912,-28.294240181903213,52.35902236032271,-32.0
1772912186.3602204,0.00019347116554102237,0.4691784386352744,-9.106557137160257,0.32307177960839956,-1.5254258114279233,9.759042609400241,-0.002108260419657235,-0.0005611463152102317,-0.002181661564992912,-28.294240181903213,52.35902236032271,-32.0
1772912186.3736298,0.00019347116554102237,0.4691784386352744,-9.106557137160257,0.32336220454956005,-1.5263174322382467,9.759362867250614,0.0007735570522235017,0.0013347033674337334,0.001090830782496456,-28.294240181903213,52.35902236032271,-32.0
1772912186.3862128,0.00019347116554102237,0.4691784386352744,-9.106557137160257,0.32355547910364324,-1.5269107959274595,9.762921106979842,-0.0005611463152102317,0.002108260419657235,-0.001090830782496456,-28.012235198297855,52.75746236737741,-32.0
1772912186.4006119,0.00019347116554102237,0.4691784386352744,-9.106557137160257,0.32355547910364324,-1.5269107959274595,9.762921106979842,-0.0005611463152102317,0.002108260419657235,-0.001090830782496456,-28.012235198297855,52.75746236737741,-32.0
1772912186.4140122,0.00019347116554102237,0.4691784386352744,-9.106557137160257,0.32454449909680666,-1.5305382395738387,9.761943964064182,-0.00028057315760511586,0.0010541302098286175,-0.001090830782496456,-28.012235198297855,52.75746236737741,-32.0
1772912186.4283946,0.00019347116554102237,0.4691784386352744,-9.106557137160257,0.3252026808541797,-1.5329522627993035,9.761293686369212,-0.0015471141044470034,-0.002669406734867467,-0.001090830782496456,-28.012235198297855,52.75746236737741,-32.0
1772912186.444988,0.00019347116554102237,0.4691784386352744,-9.106557137160257,0.3252026808541797,-1.5329522627993035,9.761293686369212,-0.0015471141044470034,-0.002669406734867467,-0.001090830782496456,-28.012235198297855,52.75746236737741,-32.0
1772912186.458684,0.00019347116554102237,0.4691784386352744,-9.106557137160257,0.32564069346133945,-1.534558768289444,9.760860933827287,0.0010541302098286175,0.00028057315760511586,0.001090830782496456,-27.2270714412524,52.96644591845802,-31.5
1772912186.4733224,0.00019347116554102237,0.4691784386352744,-9.106557137160257,0.32593218595848283,-1.5356278797472902,9.760572941844798,-0.0005611463152102317,0.002108260419657235,0.0,-27.2270714412524,52.96644591845802,-31.5
1772912186.4858286,0.00019347116554102237,0.4691784386352744,-9.106557137160257,0.3252657730227079,-1.5331067947402146,9.760381286397532,-0.0005611463152102317,0.002108260419657235,0.0,-27.2270714412524,52.96644591845802,-31.5
1772912186.501509,0.00019347116554102237,0.4691784386352744,-9.106557137160257,0.3252657730227079,-1.5331067947402146,9.760381286397532,-0.0005611463152102317,0.002108260419657235,0.0,-27.2270714412524,52.96644591845802,-31.5
1772912186.5158684,0.00019347116554102237,0.4691784386352744,-9.106557137160257,0.32396188472183063,-1.528196474090856,9.75690863013099,-0.0016152765250388491,0.0018276872620521193,0.001090830782496456,-27.2270714412524,52.96644591845802,-31.0625
1772912186.528442,0.00019347116554102237,0.4691784386352744,-9.106557137160257,0.32396188472183063,-1.528196474090856,9.75690863013099,-0.0016152765250388491,0.0018276872620521193,0.001090830782496456,-27.2270714412524,52.96644591845802,-31.0625
1772912186.5441926,0.00019347116554102237,0.4691784386352744,-9.106557137160257,0.3239545595594228,-1.5281612772900983,9.754597616177719,0.0,0.0,0.0,-27.2270714412524,52.96644591845802,-31.0625
1772912186.5596707,0.00019347116554102237,0.4691784386352744,-9.106557137160257,0.32481008268210715,-1.5313704209518826,9.756404773914854,-0.00028057315760511586,0.0010541302098286175,0.0,-27.2270714412524,52.96644591845802,-31.0625
1772912186.5761619,0.00019347116554102237,0.4691784386352744,-9.106557137160257,0.32481008268210715,-1.5313704209518826,9.756404773914854,-0.00028057315760511586,0.0010541302098286175,0.0,-27.2270714412524,52.96644591845802,-31.0625
1772912186.6057575,0.00019347116554102237,0.4691784386352744,-9.106557137160257,0.32537942376343415,-1.5335060702103167,9.757607417201642,0.0,0.0,0.001090830782496456,-27.589454713734916,52.869991971805426,-31.0625
1772912186.6351476,0.00019347116554102237,0.4691784386352744,-9.106557137160257,0.324037518020222,-1.5284621874560098,9.758407762874594,-0.0007735570522235017,-0.0013347033674337334,-0.001090830782496456,-27.589454713734916,52.869991971805426,-31.0625
1772912186.6544123,0.00019347116554102237,0.4691784386352744,-9.106557137160257,0.3263770614776983,-1.5242451418904415,9.758940383979496,-0.00028057315760511586,0.0010541302098286175,0.001090830782496456,-27.931856909420695,52.45547630697531,-31.0625
1772912186.667917,0.00019347116554102237,0.4691784386352744,-9.106557137160257,0.3263770614776983,-1.5242451418904415,9.758940383979496,-0.00028057315760511586,0.0010541302098286175,0.001090830782496456,-27.931856909420695,52.45547630697531,-31.0625
1772912186.6846676,0.00019347116554102237,0.4691784386352744,-9.106557137160257,0.32965479738711456,-1.5279038786530705,9.755949725667723,0.0010541302098286175,0.00028057315760511586,-0.001090830782496456,-27.931856909420695,52.45547630697531,-31.0625
1772912186.6971912,0.00019347116554102237,0.4691784386352744,-9.106557137160257,0.32860352728060727,-1.531199125034272,9.75395947596908,-0.0013347033674337334,0.0007735570522235017,-0.002181661564992912,-27.931856909420695,52.45547630697531,-31.0625
1772912186.7133863,0.00019347116554102237,0.4691784386352744,-9.106557137160257,0.3279039187681832,-1.5333920746906473,9.755980098734497,-0.00028057315760511586,0.0010541302098286175,0.0,-27.835402962768104,52.09309303449279,-32.25
1772912186.7285376,0.00019347116554102237,0.4691784386352744,-9.106557137160257,0.3279039187681832,-1.5333920746906473,9.755980098734497,-0.00028057315760511586,0.0010541302098286175,0.0,-27.835402962768104,52.09309303449279,-32.25
1772912186.7407584,0.00019347116554102237,0.4691784386352744,-9.106557137160257,0.3298105059213795,-1.5307584935141587,9.757324800613047,0.0,0.0,-0.001090830782496456,-27.835402962768104,52.09309303449279,-32.25
1772912186.7544599,0.00019347116554102237,0.4691784386352744,-9.106557137160257,0.3298105059213795,-1.5307584935141587,9.757324800613047,0.0,0.0,-0.001090830782496456,-27.835402962768104,52.09309303449279,-32.25
1772912186.775607,0.00019347116554102237,0.4691784386352744,-9.106557137160257,0.33021892043741824,-1.52577330792072,9.758219684691918,0.0013347033674337334,-0.0007735570522235017,0.0,-27.835402962768104,52.09309303449279,-32.25
1772912186.7974358,0.00019347116554102237,0.4691784386352744,-9.106557137160257,0.32725814899603833,-1.523316120532898,9.758815220049897,-0.0016152765250388491,0.0018276872620521193,0.0,-29.03898780366499,52.48417618519506,-31.5
1772912186.8196876,0.00019347116554102237,0.4691784386352744,-9.106557137160257,0.3252877886757842,-1.521680889774884,9.759211542178065,0.0,0.0,-0.002181661564992912,-29.03898780366499,52.48417618519506,-31.5
1772912186.8462,0.00019347116554102237,0.4691784386352744,-9.106557137160257,0.32397653589302194,-1.5205926619721502,9.756130178419834,-0.002108260419657235,-0.0005611463152102317,0.002181661564992912,-29.03898780366499,52.48417618519506,-31.5
1772912186.8723805,0.00019347116554102237,0.4691784386352744,-9.106557137160257,0.32397653589302194,-1.5205926619721502,9.756130178419834,-0.002108260419657235,-0.0005611463152102317,0.002181661564992912,-29.03898780366499,52.48417618519506,-31.5
1772912186.8867428,0.00019347116554102237,0.4691784386352744,-9.106557137160257,0.3239643097501863,-1.5231010252652464,9.75407956525982,-0.00028057315760511586,0.0010541302098286175,0.001090830782496456,-27.72287335834008,51.67031254992985,-31.0625
1772912186.9002354,0.00019347116554102237,0.4691784386352744,-9.106557137160257,0.3239561733887042,-1.5247703130165482,9.756060016815999,-0.00028057315760511586,0.0010541302098286175,-0.002181661564992912,-27.72287335834008,51.67031254992985,-31.0625
1772912186.912426,0.00019347116554102237,0.4691784386352744,-9.106557137160257,0.3239561733887042,-1.5247703130165482,9.756060016815999,-0.00028057315760511586,0.0010541302098286175,-0.002181661564992912,-27.72287335834008,51.67031254992985,-31.0625
1772912186.9274795,0.00019347116554102237,0.4691784386352744,-9.106557137160257,0.3271833254705416,-1.525020807431434,9.760723096910862,0.00028057315760511586,-0.0010541302098286175,0.002181661564992912,-27.72287335834008,51.67031254992985,-31.0625
1772912186.941457,0.00019347116554102237,0.4691784386352744,-9.106557137160257,0.3293309591313535,-1.5251875086663347,9.760481212916657,-0.002108260419657235,-0.0005611463152102317,0.002181661564992912,-27.2270714412524,52.96644591845802,-31.5
1772912186.9560199,0.00019347116554102237,0.4691784386352744,-9.106557137160257,0.3293309591313535,-1.5251875086663347,9.760481212916657,-0.002108260419657235,-0.0005611463152102317,0.002181661564992912,-27.2270714412524,52.96644591845802,-31.5
1772912186.9704828,0.00019347116554102237,0.4691784386352744,-9.106557137160257,0.3316205832784232,-1.5285310132155008,9.763665353527854,-0.00028057315760511586,0.0010541302098286175,0.001090830782496456,-27.2270714412524,52.96644591845802,-31.5
1772912186.9851475,0.00019347116554102237,0.4691784386352744,-9.106557137160257,0.3316205832784232,-1.5285310132155008,9.763665353527854,-0.00028057315760511586,0.0010541302098286175,0.001090830782496456,-27.2270714412524,52.96644591845802,-31.5
1772912186.9995966,0.00019347116554102237,0.4691784386352744,-9.106557137160257,0.3290513378955666,-1.5283839093405025,9.765784363535424,0.00028057315760511586,-0.0010541302098286175,0.002181661564992912,-27.2270714412524,52.96644591845802,-31.5
1772912187.0148978,0.00019347116554102237,0.4691784386352744,-9.106557137160257,0.32410896705411235,-1.5291464112913884,9.77053965273189,-0.0007735570522235017,-0.0013347033674337334,0.0,-29.312273985847334,53.5109287905622,-31.5
1772912187.039859,0.00019347116554102237,0.4691784386352744,-9.106557137160257,0.31995947653258505,-1.5264212810824833,9.773704244572075,0.0007735570522235017,0.0013347033674337334,0.001090830782496456,-29.312273985847334,53.5109287905622,-31.5
1772912187.058209,0.00019347116554102237,0.4691784386352744,-9.106557137160257,0.31995947653258505,-1.5264212810824833,9.773704244572075,0.0007735570522235017,0.0013347033674337334,0.001090830782496456,-29.312273985847334,53.5109287905622,-31.5
1772912187.0728629,0.00019347116554102237,0.4691784386352744,-9.106557137160257,0.3212910016193089,-1.5269799061732314,9.769120021676274,-0.0005611463152102317,0.002108260419657235,0.003272492347489368,-29.312273985847334,53.5109287905622,-31.5
1772912187.0863326,0.00019347116554102237,0.4691784386352744,-9.106557137160257,0.3212910016193089,-1.5269799061732314,9.769120021676274,-0.0005611463152102317,0.002108260419657235,0.003272492347489368,-29.312273985847334,53.5109287905622,-31.5
1772912187.0990858,0.00019347116554102237,0.4691784386352744,-9.106557137160257,0.32131671875397444,-1.5241190981913586,9.766069272548243,-0.0008417194728153476,0.003162390629485853,-0.001090830782496456,-28.012235198297855,52.75746236737741,-31.0625
1772912187.1135964,0.00019347116554102237,0.4691784386352744,-9.106557137160257,0.32219423115625445,-1.5254478291762559,9.76403903308264,0.0,0.0,0.001090830782496456,-28.012235198297855,52.75746236737741,-31.0625
1772912187.1262102,0.00019347116554102237,0.4691784386352744,-9.106557137160257,0.32219423115625445,-1.5254478291762559,9.76403903308264,0.0,0.0,0.001090830782496456,-28.012235198297855,52.75746236737741,-31.0625
1772912187.1401527,0.00019347116554102237,0.4691784386352744,-9.106557137160257,0.3195456391180014,-1.5271924827402468,9.76603304310486,0.0013347033674337334,-0.0007735570522235017,0.0,-28.012235198297855,52.75746236737741,-31.0625
1772912187.1522944,0.00019347116554102237,0.4691784386352744,-9.106557137160257,0.3210155974427703,-1.5274931322615861,9.767360034500097,-0.0016152765250388491,0.0018276872620521193,0.001090830782496456,-27.931856909420695,52.45547630697531,-32.25
1772912187.1683896,0.00019347116554102237,0.4691784386352744,-9.106557137160257,0.3210155974427703,-1.5274931322615861,9.767360034500097,-0.0016152765250388491,0.0018276872620521193,0.001090830782496456,-27.931856909420695,52.45547630697531,-32.25
1772912187.1883187,0.00019347116554102237,0.4691784386352744,-9.106557137160257,0.3219938382873936,-1.5276932111595622,9.768243132450161,0.0010541302098286175,0.00028057315760511586,0.0,-27.931856909420695,52.45547630697531,-32.25
1772912187.2068055,0.00019347116554102237,0.4691784386352744,-9.106557137160257,0.32264484664182413,-1.5278263614311376,9.76883082427108,-0.0016152765250388491,0.0018276872620521193,0.001090830782496456,-27.931856909420695,52.45547630697531,-32.25
1772912187.229185,0.00019347116554102237,0.4691784386352744,-9.106557137160257,0.32221768749301855,-1.5246824047099705,9.765876814905633,-0.0013347033674337334,0.0007735570522235017,0.001090830782496456,-28.294240181903213,52.35902236032271,-30.75
1772912187.2433417,0.00019347116554102237,0.4691784386352744,-9.106557137160257,0.32221768749301855,-1.5246824047099705,9.765876814905633,-0.0013347033674337334,0.0007735570522235017,0.001090830782496456,-28.294240181903213,52.35902236032271,-30.75
1772912187.2657743,0.00019347116554102237,0.4691784386352744,-9.106557137160257,0.3227938157876081,-1.525822703371846,9.763910954671374,0.0,0.0,0.001090830782496456,-28.294240181903213,52.35902236032271,-30.75
1772912187.2835767,0.00019347116554102237,0.4691784386352744,-9.106557137160257,0.3223168247954433,-1.5233489926538388,9.762602696645573,-0.0010541302098286175,-0.00028057315760511586,0.0,-28.294240181903213,52.35902236032271,-30.75
