timestamp,yaw,pitch,roll,ax,ay,az,gx,gy,gz,mx,my,mz
1774889698.2708979,0.0,0.0,0.0,-0.018932006944144646,-1.0434391528975946,5.017667560979075,-0.001090830782496456,0.002181661564992912,0.0,43.1875,26.375,-58.875
1774889698.6315966,-0.011711255174272383,0.15341989247307947,-8.729883306186009,-0.022634374258911783,-1.1928187446648664,6.593995402034055,0.0,0.003272492347489368,0.0,43.5625,26.75,-57.6875
1774889699.1416628,0.0,0.0,0.0,-0.030055273768191622,-1.4024121789037105,8.807624844553333,-0.001090830782496456,0.002181661564992912,-0.002181661564992912,44.0,28.1875,-57.6875
1774889699.1935585,0.0,0.0,0.0,-0.030055273768191622,-1.4024121789037105,8.807624844553333,-0.001090830782496456,0.002181661564992912,-0.002181661564992912,44.0,28.1875,-57.6875
1774889699.4165115,-0.011711255174272383,0.15341989247307947,-8.729883306186009,-0.030036784075283075,-1.43171128348049,9.132895196192448,0.001090830782496456,0.002181661564992912,0.0,42.5,26.0625,-58.5
1774889699.440341,0.0,0.0,0.0,-0.01998914426923769,-1.4512095102838933,9.332633423163777,0.002181661564992912,0.003272492347489368,-0.003272492347489368,42.75,24.1875,-58.875
1774889699.464558,0.0,0.0,0.0,-0.013302552217805375,-1.4641853624120933,9.465556981991005,0.002181661564992912,0.003272492347489368,-0.001090830782496456,42.75,24.1875,-58.875
1774889699.4854352,0.0,0.0,0.0,-0.013302552217805375,-1.4641853624120933,9.465556981991005,0.002181661564992912,0.003272492347489368,-0.001090830782496456,42.75,24.1875,-58.875
1774889699.5408158,-0.011711255174272383,0.15341989247307947,-8.729883306186009,-0.018888035023662708,-1.4728206470536447,9.5573612372444,0.0,0.003272492347489368,0.0,42.75,24.1875,-58.875
1774889699.7814376,-0.011711255174272383,0.15341989247307947,-8.729883306186009,-0.018888035023662708,-1.4728206470536447,9.5573612372444,0.0,0.003272492347489368,0.0,42.75,24.1875,-58.875
1774889699.816133,0.0,0.0,0.0,-0.025950223144348975,-1.485257555934786,9.628491278716767,0.001090830782496456,0.002181661564992912,0.0,44.0,25.6875,-60.0625
1774889699.842399,-0.011711255174272383,0.15341989247307947,-8.729883306186009,-0.027087476295077916,-1.4956970689286402,9.703984159314937,0.0,0.002181661564992912,-0.002181661564992912,42.75,26.375,-57.6875
1774889700.1389449,-0.011711255174272383,0.15341989247307947,-8.729883306186009,-0.027087476295077916,-1.4956970689286402,9.703984159314937,0.0,0.002181661564992912,-0.002181661564992912,42.75,26.375,-57.6875
1774889700.185254,0.0,0.0,0.0,-0.02471663630207654,-1.4971364474388995,9.722722083762031,-0.001090830782496456,0.003272492347489368,-0.001090830782496456,42.75,26.375,-57.6875
1774889700.212867,-0.011711255174272383,0.15341989247307947,-8.729883306186009,-0.023138868770752156,-1.4980943377585656,9.731846851457922,-0.002181661564992912,0.001090830782496456,-0.002181661564992912,42.75,25.6875,-57.6875
1774889700.47436,-0.011711255174272383,0.15341989247307947,-8.729883306186009,-0.032124217225432086,-1.495386691358648,9.741264394136522,0.0,0.003272492347489368,-0.001090830782496456,42.75,25.6875,-57.6875
1774889700.5013893,0.0,0.0,0.0,-0.03141364283446385,-1.493584782925895,9.747531663588285,0.0,0.003272492347489368,0.004363323129985824,43.1875,25.6875,-58.5
1774889700.526811,0.0,0.0,0.0,-0.03141364283446385,-1.493584782925895,9.747531663588285,0.0,0.003272492347489368,0.004363323129985824,43.1875,25.6875,-58.5
1774889700.5607388,-0.011711255174272383,0.15341989247307947,-8.729883306186009,-0.030626067610155915,-1.5038490817030976,9.765620573112635,-0.001090830782496456,0.0,0.0,42.75,27.5,-57.6875
1774889700.8136053,-0.011711255174272383,0.15341989247307947,-8.729883306186009,-0.030626067610155915,-1.5038490817030976,9.765620573112635,-0.001090830782496456,0.0,0.0,42.75,27.5,-57.6875
1774889700.8311107,0.0,0.0,0.0,-0.030416641000925313,-1.5025615208763516,9.77043065203518,0.0,0.002181661564992912,0.0,42.75,27.5,-57.6875
1774889700.8706138,-0.011711255174272383,0.15341989247307947,-8.729883306186009,-0.026932158224611476,-1.5017046635291489,9.770286594118714,-0.001090830782496456,0.0,0.001090830782496456,44.0,26.375,-59.25
1774889701.190486,0.0,0.0,0.0,-0.027958385568517038,-1.5011344345363093,9.770190725184538,-0.001090830782496456,0.001090830782496456,-0.001090830782496456,44.0,26.0625,-58.0625
1774889701.2102127,0.0,0.0,0.0,-0.027958385568517038,-1.5011344345363093,9.770190725184538,-0.001090830782496456,0.001090830782496456,-0.001090830782496456,44.0,26.0625,-58.0625
1774889701.262645,-0.011711255174272383,0.15341989247307947,-8.729883306186009,-0.028641328402175623,-1.5007549535114497,9.77012692547977,-0.001090830782496456,0.001090830782496456,-0.001090830782496456,44.0,26.0625,-58.0625
1774889701.4984238,-0.011711255174272383,0.15341989247307947,-8.729883306186009,-0.02909581922900409,-1.4971573014211672,9.766739355781617,0.001090830782496456,0.002181661564992912,0.0,43.5625,27.5,-58.5
1774889701.529806,0.0,0.0,0.0,-0.03274338950458262,-1.4947631041434912,9.76448496598913,0.001090830782496456,0.001090830782496456,0.003272492347489368,43.5625,27.5,-58.5
1774889701.573871,-0.011711255174272383,0.15341989247307947,-8.729883306186009,-0.035170806776950364,-1.4898246808928144,9.762984694765413,0.0,0.001090830782496456,0.0,43.1875,25.25,-58.5
1774889701.5995135,-0.011711255174272383,0.15341989247307947,-8.729883306186009,-0.035170806776950364,-1.4898246808928144,9.762984694765413,0.0,0.001090830782496456,0.0,43.1875,25.25,-58.5
1774889701.8013604,-0.011711255174272383,0.15341989247307947,-8.729883306186009,-0.03344111414836406,-1.4932284387999302,9.765331392732476,-0.001090830782496456,0.004363323129985824,0.0,43.1875,25.25,-58.5
1774889701.8269567,0.0,0.0,0.0,-0.03229002302597256,-1.4954936016646485,9.766893094015222,-0.001090830782496456,0.002181661564992912,0.001090830782496456,43.1875,26.0625,-58.5
1774889701.8462658,0.0,0.0,0.0,-0.03152398474255138,-1.50369126566223,9.767932388773543,0.001090830782496456,0.0,-0.001090830782496456,43.1875,26.0625,-58.5
1774889701.8871267,-0.011711255174272383,0.15341989247307947,-8.729883306186009,-0.031014194822142904,-1.5091467194787136,9.765278916118204,-0.001090830782496456,-0.001090830782496456,-0.001090830782496456,43.1875,26.0625,-58.5
1774889701.91349,-0.011711255174272383,0.15341989247307947,-8.729883306186009,-0.027329823617518227,-1.5094321513448519,9.763513059707307,0.001090830782496456,0.0,0.001090830782496456,43.1875,26.0625,-58.5
1774889702.1332552,-0.011711255174272383,0.15341989247307947,-8.729883306186009,-0.027329823617518227,-1.5094321513448519,9.763513059707307,0.001090830782496456,0.0,0.001090830782496456,43.1875,26.0625,-58.5
1774889702.158634,0.0,0.0,0.0,-0.024877915737963593,-1.5062769913559646,9.755647678577127,0.002181661564992912,0.006544984694978736,-0.003272492347489368,42.75,24.875,-59.25
1774889702.1992083,0.0,0.0,0.0,-0.023246198433725645,-1.5041772676288065,9.747068243589736,-0.001090830782496456,0.001090830782496456,0.001090830782496456,42.75,24.875,-59.25
1774889702.2171993,-0.011711255174272383,0.15341989247307947,-8.729883306186009,-0.022160308795231894,-1.5027799249438338,9.741358725444195,0.0,0.0,-0.001090830782496456,42.75,24.875,-59.25
1774889702.232499,-0.011711255174272383,0.15341989247307947,-8.729883306186009,-0.022160308795231894,-1.5027799249438338,9.741358725444195,0.0,0.0,-0.001090830782496456,42.75,24.875,-59.25
1774889702.4725335,-0.011711255174272383,0.15341989247307947,-8.729883306186009,-0.022160308795231894,-1.5027799249438338,9.741358725444195,0.0,0.0,-0.001090830782496456,42.75,24.875,-59.25
1774889702.5039077,0.0,0.0,0.0,-0.03147299649295452,-1.5018500089963251,9.744249328312474,0.001090830782496456,0.002181661564992912,0.0,44.0,26.0625,-58.5
1774889702.5219107,0.0,0.0,0.0,-0.03147299649295452,-1.5018500089963251,9.744249328312474,0.001090830782496456,0.002181661564992912,0.0,44.0,26.0625,-58.5
1774889702.5786827,-0.012253407479246898,0.16039354176972312,-8.73694074039966,-0.037670486126251033,-1.5012311603210997,9.749518103938483,0.0,0.0,0.0,44.0,26.0625,-58.5
1774889702.8255782,-0.012253407479246898,0.16039354176972312,-8.73694074039966,-0.037670486126251033,-1.5012311603210997,9.749518103938483,0.0,0.0,0.0,44.0,26.0625,-58.5
1774889702.8513336,0.0,0.0,0.0,-0.04179484624671448,-1.517544881977327,9.896864218676244,0.0,0.00545415391248228,-0.003272492347489368,43.1875,25.25,-58.875
1774889702.8910608,0.0,0.0,0.0,-0.03784933842012281,-1.5083308112594183,9.85108160865554,-0.002181661564992912,0.001090830782496456,0.0,43.1875,25.25,-58.875
1774889702.9176624,-0.012253407479246898,0.16039354176972312,-8.73694074039966,-0.03187853532841696,-1.4988538384172447,9.797198011160791,0.0,-0.001090830782496456,0.0,43.1875,25.25,-58.875
1774889703.271631,0.0,0.0,0.0,-0.02455992086180813,-1.4925470188555015,9.761339078947259,0.001090830782496456,0.001090830782496456,0.001090830782496456,43.1875,25.25,-58.875
1774889703.3034022,0.0,0.0,0.0,-0.02455992086180813,-1.4925470188555015,9.761339078947259,0.001090830782496456,0.001090830782496456,0.001090830782496456,43.1875,25.25,-58.875
1774889703.5580552,-0.012253407479246898,0.16039354176972312,-8.73694074039966,-0.023034576395879705,-1.488349900888952,9.754200918666271,0.0,0.002181661564992912,0.0,43.5625,27.0625,-58.875
1774889703.6140468,0.0,0.0,0.0,-0.028709700107657245,-1.4822116540597736,9.749450552737748,0.0,0.001090830782496456,0.0,43.1875,25.6875,-57.6875
1774889703.6374092,0.0,0.0,0.0,-0.028709700107657245,-1.4822116540597736,9.749450552737748,0.0,0.001090830782496456,0.0,43.1875,25.6875,-57.6875
1774889703.6580062,-0.012253407479246898,0.16039354176972312,-8.73694074039966,-0.0324864315425595,-1.4781267193636654,9.74294412557006,-0.001090830782496456,0.0,0.002181661564992912,43.1875,25.6875,-57.6875
1774889703.9186463,-0.012253407479246898,0.16039354176972312,-8.73694074039966,-0.0324864315425595,-1.4781267193636654,9.74294412557006,-0.001090830782496456,0.0,0.002181661564992912,43.1875,25.6875,-57.6875
1774889703.9369779,0.0,0.0,0.0,-0.04503513924559064,-1.478753352662435,9.738614170971518,-0.001090830782496456,0.00545415391248228,0.001090830782496456,44.0,26.0625,-59.25
1774889703.9780521,0.0,0.0,0.0,-0.04335082892174979,-1.4791703701228138,9.735732634554951,0.001090830782496456,0.003272492347489368,-0.001090830782496456,44.0,26.0625,-59.25
1774889704.234303,-0.012253407479246898,0.16039354176972312,-8.73694074039966,-0.042229939216212826,-1.482793002291625,9.733815004258597,-0.001090830782496456,0.0,0.001090830782496456,44.0,26.0625,-59.25
1774889704.2653494,0.0,0.0,0.0,-0.04148399963833641,-1.4852038235325158,9.732538842717707,-0.001090830782496456,0.00545415391248228,-0.001090830782496456,44.0,26.0625,-59.25
1774889704.3275993,-0.012253407479246898,0.16039354176972312,-8.73694074039966,-0.03508598072534463,-1.4878758915153962,9.737814614352779,-0.001090830782496456,0.002181661564992912,0.0,43.5625,26.375,-58.5
1774889704.5637486,0.0,0.0,0.0,-0.03338466335858952,-1.4885864295313427,9.741890761971451,0.002181661564992912,0.0,0.003272492347489368,44.0,26.0625,-58.5
1774889704.5962205,0.0,0.0,0.0,-0.03338466335858952,-1.4885864295313427,9.741890761971451,0.002181661564992912,0.0,0.003272492347489368,44.0,26.0625,-58.5
1774889704.6341772,-0.012253407479246898,0.16039354176972312,-8.73694074039966,-0.025927737896278277,-1.4927190761461977,9.736373282989387,0.001090830782496456,0.001090830782496456,0.002181661564992912,44.0,26.0625,-58.5
1774889704.8990984,0.0,0.0,0.0,-0.023944843352802152,-1.4918095148012238,9.730896236927881,-0.001090830782496456,0.001090830782496456,-0.001090830782496456,44.0,26.0625,-58.5
1774889704.9271095,0.0,0.0,0.0,-0.023944843352802152,-1.4918095148012238,9.730896236927881,-0.001090830782496456,0.001090830782496456,-0.001090830782496456,44.0,26.0625,-58.5
1774889704.941236,-0.012253407479246898,0.16039354176972312,-8.73694074039966,-0.025970360891821583,-1.4878591001792902,9.723906212249243,0.0,-0.001090830782496456,0.002181661564992912,43.1875,25.25,-57.6875
1774889705.214695,-0.012253407479246898,0.16039354176972312,-8.73694074039966,-0.02731832018752555,-1.4852301433774162,9.719254428909302,0.001090830782496456,0.002181661564992912,-0.001090830782496456,43.1875,25.25,-57.6875
1774889705.2503254,0.0,0.0,0.0,-0.028215372041124582,-1.493515937115099,9.729539165889674,-0.001090830782496456,0.004363323129985824,-0.001090830782496456,42.75,26.375,-58.0625
1774889705.2969134,-0.012253407479246898,0.16039354176972312,-8.73694074039966,-0.025467238321649564,-1.499030040289146,9.736383543462072,-0.001090830782496456,0.0,0.0,42.75,26.375,-58.0625
1774889705.5606723,-0.012253407479246898,0.16039354176972312,-8.73694074039966,-0.026983497737323434,-1.4993545026475867,9.737593288572475,0.0,0.0,0.002181661564992912,43.5625,27.875,-56.875
1774889705.5905623,0.0,0.0,0.0,-0.02799255144072691,-1.4995704287226468,9.738398360429711,0.001090830782496456,0.001090830782496456,-0.006544984694978736,43.5625,27.875,-56.875
1774889705.6268907,-0.012253407479246898,0.16039354176972312,-8.73694074039966,-0.028664065408473494,-1.4896787899915889,9.73224390334282,-0.001090830782496456,0.0,-0.001090830782496456,44.25,25.6875,-58.5
1774889705.8661475,-0.012253407479246898,0.16039354176972312,-8.73694074039966,-0.025765838745386935,-1.4897862383275533,9.728148180901284,0.001090830782496456,0.001090830782496456,0.001090830782496456,44.25,25.6875,-58.5
1774889705.8832133,0.0,0.0,0.0,-0.02383710127641598,-1.489857743994861,9.735457858490618,0.001090830782496456,0.001090830782496456,0.0,43.1875,24.875,-58.0625
1774889705.90013,0.0,0.0,0.0,-0.02383710127641598,-1.489857743994861,9.735457858490618,0.001090830782496456,0.001090830782496456,0.0,43.1875,24.875,-58.0625
1774889705.9214656,0.0,0.0,0.0,-0.022553548036225057,-1.4899053302176837,9.74032236727187,0.001090830782496456,0.0,0.0,43.1875,24.875,-58.0625
1774889705.936371,-0.012253407479246898,0.16039354176972312,-8.73694074039966,-0.02169935769310717,-1.4899369983173993,9.736869420111033,0.0,0.001090830782496456,-0.001090830782496456,43.1875,24.875,-58.0625
1774889705.9715707,-0.012253407479246898,0.16039354176972312,-8.73694074039966,-0.02169935769310717,-1.4899369983173993,9.736869420111033,0.0,0.001090830782496456,-0.001090830782496456,43.1875,24.875,-58.0625
1774889706.2173634,0.0,0.0,0.0,-0.01778579185437418,-1.4832678496693654,9.724536187225484,0.0,0.0,0.001090830782496456,43.5625,26.375,-58.0625
1774889706.239671,-0.012253407479246898,0.16039354176972312,-8.73694074039966,-0.015181357506092284,-1.48217471745069,9.716328558511389,0.001090830782496456,0.0,-0.001090830782496456,43.5625,26.375,-58.0625
1774889706.279235,-0.012253407479246898,0.16039354176972312,-8.73694074039966,-0.013448135540748637,-1.4814472501702485,9.714211584994699,0.001090830782496456,0.001090830782496456,-0.001090830782496456,44.0,27.5,-58.875
1774889706.563235,-0.012253407479246898,0.16039354176972312,-8.73694074039966,-0.013448135540748637,-1.4814472501702485,9.714211584994699,0.001090830782496456,0.001090830782496456,-0.001090830782496456,44.0,27.5,-58.875
1774889706.5944278,0.0,0.0,0.0,-0.018984919098809172,-1.4809631288214566,9.722838097889444,0.002181661564992912,0.003272492347489368,0.0,44.0,27.5,-58.875
1774889706.622606,-0.012253407479246898,0.16039354176972312,-8.73694074039966,-0.02266958670677353,-1.4806409514718255,9.728578945856432,-0.001090830782496456,-0.001090830782496456,-0.002181661564992912,43.1875,25.6875,-58.5
1774889706.8877096,-0.012253407479246898,0.16039354176972312,-8.73694074039966,-0.02512169183943968,-1.4770814343372833,9.73239941604899,-0.001090830782496456,0.001090830782496456,0.0,43.1875,25.6875,-58.5
1774889706.926389,-0.012253407479246898,0.16039354176972312,-8.73694074039966,-0.024494405703141337,-1.4675649467551923,9.736633888480181,0.0,-0.001090830782496456,-0.002181661564992912,43.5625,25.6875,-59.0
1774889706.981429,-0.012253407479246898,0.16039354176972312,-8.73694074039966,-0.02299097678963923,-1.4650343875595881,9.73775989038549,0.001090830782496456,0.0,0.001090830782496456,43.5625,25.6875,-59.0
1774889707.2243073,0.0,0.0,0.0,-0.021990461642104955,-1.4700405520977509,9.738509232075208,-0.001090830782496456,0.0,-0.00545415391248228,43.5625,25.6875,-59.0
1774889707.2395673,0.0,0.0,0.0,-0.021990461642104955,-1.4700405520977509,9.738509232075208,-0.001090830782496456,0.0,-0.00545415391248228,43.5625,25.6875,-59.0
1774889707.2865155,-0.012253407479246898,0.16039354176972312,-8.73694074039966,-0.02132462998790741,-1.4767172103826953,9.73231768718438,0.001090830782496456,0.0,0.001090830782496456,44.25,26.75,-56.5625
1774889707.3132722,-0.012253407479246898,0.16039354176972312,-8.73694074039966,-0.02088152645986587,-1.4845055635954854,9.734887506638263,-0.001090830782496456,0.0,0.001090830782496456,44.25,26.75,-56.5625
1774889707.5442152,-0.012253407479246898,0.16039354176972312,-8.73694074039966,-0.02088152645986587,-1.4845055635954854,9.734887506638263,-0.001090830782496456,0.0,0.001090830782496456,44.25,26.75,-56.5625
1774889707.577305,0.0,0.0,0.0,-0.020586646011744956,-1.489688625656991,9.736597692778057,0.0,-0.002181661564992912,0.0,44.0,26.0625,-59.0
1774889707.6202853,-0.012253407479246898,0.16039354176972312,-8.73694074039966,-0.02583105725767451,-1.492088234442807,9.735148090182488,-0.001090830782496456,0.001090830782496456,-0.001090830782496456,42.75,26.75,-58.5
1774889707.8481207,0.0,0.0,0.0,-0.02722561517512423,-1.491389696694581,9.73342599650851,0.001090830782496456,0.003272492347489368,-0.002181661564992912,42.75,26.75,-58.5
1774889707.8965678,0.0,0.0,0.0,-0.02722561517512423,-1.491389696694581,9.73342599650851,0.001090830782496456,0.003272492347489368,-0.002181661564992912,42.75,26.75,-58.5
1774889707.9311178,-0.012253407479246898,0.16039354176972312,-8.73694074039966,-0.024808566183634966,-1.4909248276263143,9.732279962405524,0.001090830782496456,0.0,-0.002181661564992912,43.5625,25.25,-58.5
1774889708.1670835,-0.012253407479246898,0.16039354176972312,-8.73694074039966,-0.026545158787324608,-1.4906154624543106,9.738207512926666,0.0,0.0,0.001090830782496456,43.5625,25.25,-58.5
1774889708.2033796,0.0,0.0,0.0,-0.027700841766069604,-1.4904095833881776,9.742152231583407,0.0,0.002181661564992912,-0.003272492347489368,44.0,24.5625,-58.875
1774889708.2231755,0.0,0.0,0.0,-0.027700841766069604,-1.4904095833881776,9.742152231583407,0.0,0.002181661564992912,-0.003272492347489368,44.0,24.5625,-58.875
1774889708.249083,0.0,0.0,0.0,-0.028469935878599636,-1.490272573169486,9.744777397784075,0.001090830782496456,0.0,0.0,44.0,24.5625,-58.875
1774889708.2834425,-0.012253407479246898,0.16039354176972312,-8.73694074039966,-0.025636647711824823,-1.490181394399451,9.733143969736314,0.0,0.003272492347489368,0.002181661564992912,44.0,26.0625,-58.0625
1774889708.5581155,-0.012253407479246898,0.16039354176972312,-8.73694074039966,-0.0237511260867388,-1.486775604239207,9.725402053324435,0.001090830782496456,-0.001090830782496456,-0.002181661564992912,44.0,26.0625,-58.0625
1774889708.6138349,-0.012253407479246898,0.16039354176972312,-8.73694074039966,-0.025841444215220073,-1.4811639772254142,9.726940117849841,0.002181661564992912,-0.001090830782496456,0.002181661564992912,43.5625,27.0625,-58.875
1774889708.918723,-0.012253407479246898,0.16039354176972312,-8.73694074039966,-0.03372952419993816,-1.4749442506770114,9.718609518402282,0.002181661564992912,0.0,-0.001090830782496456,44.6875,27.5,-58.0625
1774889709.3191621,-0.012253407479246898,0.16039354176972312,-8.73694074039966,-0.03248195669354375,-1.4766354553019716,9.692313756370861,0.0,0.0,0.0,44.6875,27.5,-58.0625
1774889709.395154,-0.012253407479246898,0.16039354176972312,-8.73694074039966,-0.028306602746961076,-1.477760933087889,9.694884890725776,0.002181661564992912,-0.001090830782496456,-0.001090830782496456,44.0,27.5,-59.0
1774889709.6278281,0.0,0.0,0.0,-0.02552795133726999,-1.4785099259820063,9.709976398746797,0.003272492347489368,0.001090830782496456,0.001090830782496456,44.0,27.5,-59.0
1774889709.6716452,0.0,0.0,0.0,-0.027023901571010006,-1.482353484093562,9.720019628751595,0.0,-0.002181661564992912,-0.001090830782496456,42.75,25.25,-59.25
1774889709.7121427,-0.012253407479246898,0.16039354176972312,-8.73694074039966,-0.028681959271746875,-1.4888396808217552,9.714437446909665,0.001090830782496456,0.002181661564992912,0.0,43.5625,27.5,-57.6875
1774889709.961912,-0.012253407479246898,0.16039354176972312,-8.73694074039966,-0.028681959271746875,-1.4888396808217552,9.714437446909665,0.001090830782496456,0.002181661564992912,0.0,43.5625,27.5,-57.6875
1774889709.9916627,0.0,0.0,0.0,-0.035813082033465976,-1.492572932255812,9.72298840647081,-0.001090830782496456,0.001090830782496456,-0.001090830782496456,43.5625,27.5,-57.6875
1774889710.0142548,-0.012253407479246898,0.16039354176972312,-8.73694074039966,-0.037026739873224086,-1.4833421077002764,9.739156207434002,0.001090830782496456,0.002181661564992912,-0.001090830782496456,43.5625,25.6875,-58.875
1774889710.2899444,-0.012253407479246898,0.16039354176972312,-8.73694074039966,-0.037026739873224086,-1.4833421077002764,9.739156207434002,0.001090830782496456,0.002181661564992912,-0.001090830782496456,43.5625,25.6875,-58.875
1774889710.3365052,0.0,0.0,0.0,-0.027985993477164336,-1.4788790236334253,9.739438465473109,-0.001090830782496456,0.002181661564992912,0.001090830782496456,44.0,26.0625,-58.5
1774889710.3616965,-0.012253407479246898,0.16039354176972312,-8.73694074039966,-0.02196947774234109,-1.4759088910428517,9.729590969923148,0.001090830782496456,-0.002181661564992912,0.001090830782496456,44.0,26.0625,-58.5
1774889710.5727408,-0.012253407479246898,0.16039354176972312,-8.73694074039966,-0.01796555372970069,-1.47393230098238,9.723037571638383,0.001090830782496456,0.0,-0.002181661564992912,44.0,26.0625,-58.5
1774889710.6091805,0.0,0.0,0.0,-0.015300987026050355,-1.4726169023770936,9.718676358286126,0.001090830782496456,0.001090830782496456,-0.001090830782496456,44.0,25.6875,-58.5
1774889710.6363392,-0.012253407479246898,0.16039354176972312,-8.73694074039966,-0.013527747649931435,-1.471741519299241,9.719119131225463,0.001090830782496456,-0.001090830782496456,0.001090830782496456,44.0,25.6875,-58.5
1774889710.6775882,-0.012253407479246898,0.16039354176972312,-8.73694074039966,-0.01569278836082541,-1.4711589616395995,9.719413791670496,0.001090830782496456,0.001090830782496456,0.0,43.5625,26.75,-57.25
1774889710.9123616,-0.012253407479246898,0.16039354176972312,-8.73694074039966,-0.01569278836082541,-1.4711589616395995,9.719413791670496,0.001090830782496456,0.001090830782496456,0.0,43.5625,26.75,-57.25
1774889710.935613,0.0,0.0,0.0,-0.017133598768835932,-1.4707712760247036,9.719609884905092,-0.00545415391248228,-0.001090830782496456,0.0,43.5625,26.75,-57.25
1774889710.978487,-0.012253407479246898,0.16039354176972312,-8.73694074039966,-0.018092442000460094,-1.4805486107006807,9.71974038276221,0.0,0.001090830782496456,0.0,44.0,25.6875,-59.6875
1774889711.0049152,-0.012253407479246898,0.16039354176972312,-8.73694074039966,-0.022075653167444646,-1.4870553177075587,9.719827227628365,-0.001090830782496456,0.001090830782496456,0.0,44.0,25.6875,-59.6875
1774889711.2393732,-0.012253407479246898,0.16039354176972312,-8.73694074039966,-0.022075653167444646,-1.4870553177075587,9.719827227628365,-0.001090830782496456,0.001090830782496456,0.0,44.0,25.6875,-59.6875
1774889711.3737075,-0.0804595836936239,1.0530763837544952,-8.738385173742103,-0.02649050187037792,-1.4942671188864123,9.719923483369934,-0.001090830782496456,0.001090830782496456,0.001090830782496456,43.5625,25.25,-57.6875
1774889711.6208405,-0.012253407479246898,0.16039354176972312,-8.73694074039966,-0.025100617968315073,-1.485199578491711,9.719966112668239,0.001090830782496456,0.0,0.001090830782496456,42.75,25.25,-58.0625
1774889712.1584868,-0.004232169893970472,0.14697985572751376,-8.751035586537862,-0.01765531637989009,-1.5881373898134663,9.806524981353599,-0.001090830782496456,-0.01090830782496456,0.02399827721492203,42.75,24.875,-58.5
1774889712.4555533,0.11538708741984283,0.14210393891670942,-8.75089495482933,-0.0078191049839662,-1.5188804699765805,9.691464829984852,-0.03490658503988659,-0.017453292519943295,0.018544123302439753,43.5625,25.6875,-59.6875
1774889712.6733155,0.0,0.0,0.0,-0.008548638729023117,-1.412211390641164,9.650833487503863,0.007635815477475192,-0.00545415391248228,0.04690572364734761,46.0625,27.5,-62.5
1774889712.7393873,0.270861354484669,0.1261131415539712,-8.820800468034419,-0.03579502894548765,-1.3746754269883295,9.704076463940266,-0.016362461737446838,-0.006544984694978736,0.0,46.0625,27.5,-62.5
1774889713.0737002,0.4934445716317347,0.15042142888670526,-8.848793523390992,-0.06156532378268594,-1.4356395739449936,9.794290416130695,0.001090830782496456,-0.017453292519943295,0.032724923474893676,48.75,27.875,-66.0625
1774889713.285494,0.4934445716317347,0.15042142888670526,-8.848793523390992,-0.06156532378268594,-1.4356395739449936,9.794290416130695,0.001090830782496456,-0.017453292519943295,0.032724923474893676,48.75,27.875,-66.0625
1774889713.3069432,0.0,0.0,0.0,-0.04097103524764882,-1.4772395256573765,9.869792793276234,-0.002181661564992912,0.0,0.001090830782496456,51.0,33.0625,-68.75
1774889713.3292794,0.0,0.0,0.0,-0.03730110140281645,-1.54841028101521,9.920038781849776,-0.006544984694978736,-0.001090830782496456,0.014180800172453928,51.0,33.0625,-68.75
1774889713.3539572,0.5765731178257038,0.16394141236812815,-8.862791998427992,-0.03151368971760834,-1.5522871714812663,9.903300250351208,-0.007635815477475192,-0.008726646259971648,0.009817477042468103,51.0,33.0625,-68.75
1774889713.6167526,0.0,0.0,0.0,-0.02766223189072689,-1.5013454114616125,9.892160944620558,-0.006544984694978736,-0.009817477042468103,0.04363323129985824,52.75,36.375,-69.25
1774889713.6396098,0.7584369222431404,0.17097269526697562,-8.855593363848037,0.06856399807440251,-1.4674442392252784,9.874712525969052,-0.002181661564992912,-0.009817477042468103,0.05999569303730508,52.75,36.375,-69.25
1774889713.678639,0.7996619884318387,0.18137683011780253,-8.883197398695557,0.13260147919877574,-1.4850247282907383,9.863100798268082,-0.001090830782496456,-0.002181661564992912,0.017453292519943295,53.5,39.25,-70.0625
1774889713.9925168,0.9176720694115893,0.1975589174527456,-8.883021719376917,0.005350541615014965,-1.6111168349369815,9.760808637328035,0.003272492347489368,0.01090830782496456,-0.006544984694978736,54.6875,41.5,-69.5625
1774889714.2473345,0.0,0.0,0.0,0.006905837382645736,-1.6575748050771688,9.79398925618193,-0.002181661564992912,0.0,0.003272492347489368,57.5625,45.1875,-68.5
1774889714.264102,0.0,0.0,0.0,0.00794086934221191,-1.5212364798699636,9.668885672255346,0.001090830782496456,0.002181661564992912,0.05672320068981571,57.5625,45.1875,-68.5
1774889714.2949483,0.0,0.0,0.0,0.00794086934221191,-1.5212364798699636,9.668885672255346,0.001090830782496456,0.002181661564992912,0.05672320068981571,57.5625,45.1875,-68.5
1774889714.5658913,1.0920662321101535,0.21069729661875417,-8.840495350830444,0.005284559841919246,-1.4305048474434523,9.585630634650805,0.006544984694978736,0.002181661564992912,0.028361600344907856,57.5625,45.1875,-68.5
1774889714.6359859,1.0577201162118786,0.20115930271400762,-8.854707219757293,-0.008802090904327755,-1.4971258186506982,9.717369835025368,0.001090830782496456,0.00545415391248228,-0.028361600344907856,60.1875,48.0625,-67.5625
1774889714.6732147,1.0020119988270333,0.1966607422618961,-8.83412963169941,-0.0125479165856709,-1.541573716613901,9.781806777029319,0.002181661564992912,-0.001090830782496456,-0.02399827721492203,60.1875,48.0625,-67.5625
1774889714.99134,1.0020119988270333,0.1966607422618961,-8.83412963169941,-0.0125479165856709,-1.541573716613901,9.781806777029319,0.002181661564992912,-0.001090830782496456,-0.02399827721492203,60.1875,48.0625,-67.5625
1774889715.0439932,0.7515040463681568,0.1701534958235776,-8.813264261046458,-0.028421168562267722,-1.5410472908269848,9.757786607978755,-0.011999138607461015,0.003272492347489368,-0.0545415391248228,61.25,53.25,-66.0625
1774889715.0839689,0.6404739699747412,0.15450162758829608,-8.799298552193234,-0.04232975214416947,-1.5373518486390338,9.654828549408169,0.013089969389957472,0.00545415391248228,-0.039269908169872414,61.25,53.25,-66.0625
1774889715.3692539,0.0,0.0,0.0,-0.051585759148866255,-1.4780256741193172,9.586311111546317,0.020725784867432664,0.011999138607461015,-0.028361600344907856,62.0,58.0625,-63.25
1774889715.425903,0.23710216154431485,0.10943805318093411,-8.800221728353042,0.008402559802693811,-1.4066994193161106,9.721004493204635,0.013089969389957472,0.00545415391248228,-0.04036073895236887,62.75,59.1875,-63.6875
1774889715.6926923,0.23710216154431485,0.10943805318093411,-8.800221728353042,0.008402559802693811,-1.4066994193161106,9.721004493204635,0.013089969389957472,0.00545415391248228,-0.04036073895236887,62.75,59.1875,-63.6875
1774889715.730077,0.0,0.0,0.0,-0.027859307387244257,-1.3944230535954962,9.787570713153148,-0.004363323129985824,0.0,-0.022907446432425576,62.75,59.1875,-63.6875
1774889715.7716928,0.07185664874846703,0.06868482563122709,-8.83511402910563,0.02545880468576183,-1.38304250366167,9.894777806102693,-0.002181661564992912,0.00545415391248228,-0.015271630954950384,62.375,60.6875,-60.5
1774889716.0392845,0.06487191583902158,0.06815890069012823,-8.856286266803117,0.02545880468576183,-1.38304250366167,9.894777806102693,-0.002181661564992912,0.00545415391248228,-0.015271630954950384,62.375,60.6875,-60.5
1774889716.0681782,0.0,0.0,0.0,0.08718989597859894,-1.4154758692730425,9.909905135126348,-0.01090830782496456,0.01090830782496456,0.003272492347489368,62.0,64.375,-59.25
1774889716.1293318,0.02303269394692403,0.06491882751727819,-8.856309043875623,0.03126300814024681,-1.4370599117829777,9.913281980193613,-0.016362461737446838,0.001090830782496456,-0.022907446432425576,62.0,64.375,-59.25
1774889716.3363757,0.02303269394692403,0.06491882751727819,-8.856309043875623,0.03126300814024681,-1.4370599117829777,9.913281980193613,-0.016362461737446838,0.001090830782496456,-0.022907446432425576,62.0,64.375,-59.25
1774889716.3644016,0.0,0.0,0.0,-0.0026105992645849563,-1.4514238509637865,9.848626998717661,0.0,0.001090830782496456,0.0,60.5,66.1875,-57.6875
1774889716.4038706,-0.01182946781473908,0.06221919358600391,-8.849271748741078,-0.025153106599512393,-1.4843986739841364,9.75876826688641,0.001090830782496456,0.008726646259971648,-0.017453292519943295,60.5,66.1875,-57.6875
1774889716.6498876,-0.025768184845917353,0.06114258439420928,-8.835167178678493,-0.02677444658532241,-1.5063430503512705,9.698968284640518,0.001090830782496456,0.0,-0.031634092692397225,59.5,68.75,-57.6875
1774889716.669957,0.0,0.0,0.0,-0.017818095112366462,-1.5209467876888523,9.659172064465448,0.0,0.00545415391248228,-0.01090830782496456,59.5,68.75,-57.6875
1774889716.6970882,0.0,0.0,0.0,-0.021893078378073878,-1.4403473956549546,9.485503209369794,0.004363323129985824,0.028361600344907856,0.006544984694978736,59.5,68.75,-57.6875
1774889716.713591,0.0,0.0,0.0,-0.021893078378073878,-1.4403473956549546,9.485503209369794,0.004363323129985824,0.028361600344907856,0.006544984694978736,59.5,68.75,-57.6875
1774889716.7381957,-0.05903220377575082,0.12872569537215173,-8.821118578925503,-0.026421463983827755,-1.3510139140842437,9.463615562863902,-0.013089969389957472,0.004363323129985824,-0.017453292519943295,58.0,68.75,-55.25
1774889716.962306,-0.07298674857506453,0.12764609589456033,-8.828190379588694,-0.026421463983827755,-1.3510139140842437,9.463615562863902,-0.013089969389957472,0.004363323129985824,-0.017453292519943295,58.0,68.75,-55.25
1774889716.9982703,0.0,0.0,0.0,-0.18441004756870324,-1.5187408602355679,9.603132172773822,-0.00545415391248228,-0.00545415391248228,-0.030543261909900768,58.0,69.875,-52.0625
1774889717.0302796,-0.09496130075118696,0.14000194182979167,-8.80759354744652,-0.20969573105206785,-1.5860642906986708,9.752614452821689,0.031634092692397225,0.006544984694978736,0.04036073895236887,58.0,69.875,-52.0625
1774889717.2521782,-0.09496130075118696,0.14000194182979167,-8.80759354744652,-0.20969573105206785,-1.5860642906986708,9.752614452821689,0.031634092692397225,0.006544984694978736,0.04036073895236887,58.0,69.875,-52.0625
1774889717.276802,0.0,0.0,0.0,-0.12282460802375403,-1.5873808294247191,9.788536117927995,-0.004363323129985824,0.003272492347489368,0.00545415391248228,57.1875,71.0,-49.75
1774889717.2978263,0.0,0.0,0.0,-0.0650128460624397,-1.588256971240203,9.886034042345978,-0.011999138607461015,-0.003272492347489368,-0.002181661564992912,57.1875,71.0,-49.75
1774889717.3178582,-0.06010202008977565,0.1426840799009417,-8.814605180912404,-0.04326532281347771,-1.5821498104166234,9.87732536436194,0.01090830782496456,-0.014180800172453928,0.037088246604879506,57.1875,71.0,-49.75
1774889717.357023,-0.06010202008977565,0.1426840799009417,-8.814605180912404,-0.04326532281347771,-1.5821498104166234,9.87732536436194,0.01090830782496456,-0.014180800172453928,0.037088246604879506,57.1875,71.0,-49.75
1774889717.5499566,-0.06010202008977565,0.1426840799009417,-8.814605180912404,-0.04326532281347771,-1.5821498104166234,9.87732536436194,0.01090830782496456,-0.014180800172453928,0.037088246604879506,57.1875,71.0,-49.75
1774889717.5722654,0.0,0.0,0.0,-0.02879258902704604,-1.5513246694514324,9.747760703275054,-0.013089969389957472,0.00545415391248228,0.002181661564992912,56.0625,71.375,-47.375
1774889717.5883389,0.0,0.0,0.0,-0.02879258902704604,-1.5513246694514324,9.747760703275054,-0.013089969389957472,0.00545415391248228,0.002181661564992912,56.0625,71.375,-47.375
1774889717.6489978,0.04180098077088804,0.18560644645221078,-8.820995352470218,-0.006061305446044709,-1.3723067856909528,9.697818997701688,0.00545415391248228,0.018544123302439753,0.02399827721492203,56.0625,71.375,-47.375
1774889717.8373728,0.04180098077088804,0.18560644645221078,-8.820995352470218,-0.006061305446044709,-1.3723067856909528,9.697818997701688,0.00545415391248228,0.018544123302439753,0.02399827721492203,56.0625,71.375,-47.375
1774889717.8634655,0.0,0.0,0.0,0.002656492349514348,-1.324703576206373,9.7219643492851,0.0,0.0,0.0,56.0625,71.75,-45.75
1774889717.8892531,0.0,0.0,0.0,0.0017678659836378658,-1.3365106242522298,9.717962140798695,0.002181661564992912,-0.001090830782496456,0.004363323129985824,56.0625,71.75,-45.75
1774889717.9031165,0.09059146604347344,0.18938441506607687,-8.835030290403692,0.0011764950637539935,-1.3242974125894624,9.591529582587775,-0.003272492347489368,-0.003272492347489368,0.00545415391248228,56.0625,71.75,-45.75
1774889717.9192224,0.09059146604347344,0.18938441506607687,-8.835030290403692,0.0011764950637539935,-1.3242974125894624,9.591529582587775,-0.003272492347489368,-0.003272492347489368,0.00545415391248228,56.0625,71.75,-45.75
1774889717.9324877,0.13189229652451712,0.19959005715591283,-8.834959102481207,0.05095961993240805,-1.4633545717804572,9.607743478662204,0.003272492347489368,0.002181661564992912,0.02945243112740431,56.0625,71.75,-45.75
1774889718.1102352,0.13189229652451712,0.19959005715591283,-8.834959102481207,0.05095961993240805,-1.4633545717804572,9.607743478662204,0.003272492347489368,0.002181661564992912,0.02945243112740431,56.0625,71.75,-45.75
1774889718.1237173,0.0,0.0,0.0,0.08408973341855436,-1.408710642729762,9.518180294159068,0.003272492347489368,0.0,0.001090830782496456,56.0625,71.75,-45.75
1774889718.1422231,0.0,0.0,0.0,0.05596077824617714,-1.425867505676318,9.558930346578139,0.006544984694978736,-0.003272492347489368,0.0272707695624114,56.0625,71.75,-45.75
1774889718.1626732,0.0,0.0,0.0,0.05596077824617714,-1.425867505676318,9.558930346578139,0.006544984694978736,-0.003272492347489368,0.0272707695624114,56.0625,71.75,-45.75
1774889718.1810865,0.20164810069978223,0.2049509352887456,-8.820733484208967,0.037241272799978034,-1.367037860458827,9.559288157596564,0.006544984694978736,0.004363323129985824,0.018544123302439753,52.25,67.0625,-41.5
1774889718.194649,0.20913698986892915,0.19854289745853196,-8.83484384403431,0.058234768109303725,-1.3981347345904904,9.619738287564063,-0.019634954084936207,0.008726646259971648,-0.008726646259971648,52.25,67.0625,-41.5
1774889718.2095294,0.20913698986892915,0.19854289745853196,-8.83484384403431,0.058234768109303725,-1.3981347345904904,9.619738287564063,-0.019634954084936207,0.008726646259971648,-0.008726646259971648,52.25,67.0625,-41.5
1774889718.4036748,0.0,0.0,0.0,0.07220570472495143,-1.3485820110965605,9.599755163053487,0.00545415391248228,-0.001090830782496456,0.015271630954950384,51.1875,66.0625,-38.6875
1774889718.4242828,0.0,0.0,0.0,0.08150320697707711,-1.4059232432491644,9.703535526674004,-0.009817477042468103,0.007635815477475192,0.01090830782496456,51.1875,66.0625,-38.6875
1774889718.4575987,0.27248491339280606,0.19637643396536733,-8.814122812472633,0.060929697207406326,-1.3771809585568013,9.772600199360836,-0.007635815477475192,-0.006544984694978736,-0.006544984694978736,51.1875,66.0625,-38.6875
1774889718.470397,0.25851009821679255,0.1953075031159204,-8.82066846227632,0.04723825627685309,-1.4249555233127789,9.818561967530977,0.003272492347489368,0.004363323129985824,0.008726646259971648,51.1875,66.0625,-38.6875
1774889718.6494095,0.25851009821679255,0.1953075031159204,-8.82066846227632,0.04723825627685309,-1.4249555233127789,9.818561967530977,0.003272492347489368,0.004363323129985824,0.008726646259971648,51.1875,66.0625,-38.6875
1774889718.667277,0.0,0.0,0.0,0.03143653186634762,-1.389846728334638,9.661822755211729,0.0,0.0,0.0,51.1875,62.75,-37.0625
1774889718.6884637,0.0,0.0,0.0,0.02092066078798379,-1.466835568687204,9.557514560304995,-0.014180800172453928,0.004363323129985824,-0.05999569303730508,51.1875,62.75,-37.0625
1774889718.700635,0.0,0.0,0.0,0.02092066078798379,-1.466835568687204,9.557514560304995,-0.014180800172453928,0.004363323129985824,-0.05999569303730508,51.1875,62.75,-37.0625
1774889718.7156222,0.0,0.0,0.0,0.013922466055309576,-1.5180707819201391,9.571726414476432,-0.0272707695624114,0.003272492347489368,-0.07744898555724837,51.1875,62.75,-37.0625
1774889718.7321692,0.022426163787569346,0.1630880621336058,-8.870418155714049,0.009265245635672298,-1.5521672439918244,9.58118424467071,0.009817477042468103,0.006544984694978736,-0.04908738521234052,51.1875,62.75,-37.0625
1774889718.746203,0.022426163787569346,0.1630880621336058,-8.870418155714049,0.009265245635672298,-1.5521672439918244,9.58118424467071,0.009817477042468103,0.006544984694978736,-0.04908738521234052,51.1875,62.75,-37.0625
1774889718.9176295,0.022426163787569346,0.1630880621336058,-8.870418155714049,0.009265245635672298,-1.5521672439918244,9.58118424467071,0.009817477042468103,0.006544984694978736,-0.04908738521234052,51.1875,62.75,-37.0625
1774889718.9339874,0.0,0.0,0.0,0.0061659174709645746,-1.347390462520375,9.477089638672577,0.0,0.0,0.0,49.6875,62.0,-36.6875
1774889718.9509594,0.0,0.0,0.0,0.004103349199115702,-1.2111138019576586,9.40781584119376,0.020725784867432664,0.002181661564992912,-0.07853981633974483,49.6875,62.0,-36.6875
1774889718.97276,0.0,0.0,0.0,0.004103349199115702,-1.2111138019576586,9.40781584119376,0.020725784867432664,0.002181661564992912,-0.07853981633974483,49.6875,62.0,-36.6875
1774889718.9858284,0.0,0.0,0.0,0.002730733054597547,-1.1538743237364093,9.441997583786293,0.007635815477475192,0.007635815477475192,-0.038179077387375956,49.6875,62.0,-36.6875
1774889719.002395,-0.27796423493687217,0.14680397777838075,-8.870854420072163,0.0018172723435477193,-1.2395512235578525,9.534992497500248,0.009817477042468103,0.0,-0.04581489286485115,49.6875,62.0,-36.6875
1774889719.015356,-0.27796423493687217,0.14680397777838075,-8.870854420072163,0.0018172723435477193,-1.2395512235578525,9.534992497500248,0.009817477042468103,0.0,-0.04581489286485115,49.6875,62.0,-36.6875
1774889719.1975873,0.0,0.0,0.0,0.0012093744443687983,-1.2965682433153416,9.596879573755633,0.00545415391248228,0.006544984694978736,-0.014180800172453928,48.5625,60.5,-36.25
1774889719.2189772,0.0,0.0,0.0,0.0012093744443687983,-1.2965682433153416,9.596879573755633,0.00545415391248228,0.006544984694978736,-0.014180800172453928,48.5625,60.5,-36.25
1774889719.2353983,0.0,0.0,0.0,0.0008048251831297041,-1.3713086618226202,9.611303838021096,-0.006544984694978736,0.019634954084936207,-0.07090400086226964,48.5625,60.5,-36.25
1774889719.2517376,0.0,0.0,0.0,0.00053560216888644,-1.3708708998242434,9.610867689638214,0.017453292519943295,0.013089969389957472,-0.0545415391248228,48.5625,60.5,-36.25
1774889719.2650456,0.0,0.0,0.0,0.00053560216888644,-1.3708708998242434,9.610867689638214,0.017453292519943295,0.013089969389957472,-0.0545415391248228,48.5625,60.5,-36.25
1774889719.2841914,-0.6534107682048815,0.1038078331196592,-8.843092002201287,-0.01971423298359063,-1.4207562497142363,9.610577437761503,-0.004363323129985824,-0.004363323129985824,-0.09599310885968812,48.5625,60.5,-36.25
1774889719.456217,-0.6534107682048815,0.1038078331196592,-8.843092002201287,-0.01971423298359063,-1.4207562497142363,9.610577437761503,-0.004363323129985824,-0.004363323129985824,-0.09599310885968812,48.5625,60.5,-36.25
1774889719.4700685,0.0,0.0,0.0,-0.03319027207208383,-1.4037777172003645,9.603694054965239,-0.001090830782496456,0.006544984694978736,-0.014180800172453928,47.1875,59.0625,-35.0625
1774889719.4830408,0.0,0.0,0.0,-0.03319027207208383,-1.4037777172003645,9.603694054965239,-0.001090830782496456,0.006544984694978736,-0.014180800172453928,47.1875,59.0625,-35.0625
1774889719.537465,-0.9441255444196638,0.05349917199541936,-8.815021903599783,-0.08030926112535909,-1.5492203913010814,9.62746350700105,0.016362461737446838,0.00545415391248228,-0.04581489286485115,47.1875,59.0625,-35.0625
1774889719.5562248,-0.9441255444196638,0.05349917199541936,-8.815021903599783,-0.08030926112535909,-1.5492203913010814,9.62746350700105,0.016362461737446838,0.00545415391248228,-0.04581489286485115,47.1875,59.0625,-35.0625
1774889719.7279458,-0.9441255444196638,0.05349917199541936,-8.815021903599783,-0.08030926112535909,-1.5492203913010814,9.62746350700105,0.016362461737446838,0.00545415391248228,-0.04581489286485115,47.1875,59.0625,-35.0625
1774889719.7458367,0.0,0.0,0.0,-0.05344491616569828,-1.378880482046381,9.58482554004853,0.002181661564992912,0.001090830782496456,-0.016362461737446838,48.5625,57.875,-33.0625
1774889719.761147,0.0,0.0,0.0,-0.05344491616569828,-1.378880482046381,9.58482554004853,0.002181661564992912,0.001090830782496456,-0.016362461737446838,48.5625,57.875,-33.0625
1774889719.779016,0.0,0.0,0.0,-0.035566994689440246,-1.2655211752588424,9.556450449338929,0.003272492347489368,-0.002181661564992912,-0.007635815477475192,48.5625,57.875,-33.0625
1774889719.7942314,-1.0063484751381022,0.04174996188316262,-8.807972138913643,-0.023669437656458955,-1.2469487219225939,9.59108893075933,0.001090830782496456,0.009817477042468103,0.015271630954950384,48.5625,57.875,-33.0625
1774889719.814359,-1.0208419261553945,0.04758721407904391,-8.815105428835224,0.00766403559580545,-1.2981460841342864,9.660972017109888,-0.017453292519943295,0.01090830782496456,-0.019634954084936207,48.5625,57.875,-33.0625
1774889720.0028353,-1.0208419261553945,0.04758721407904391,-8.815105428835224,0.00766403559580545,-1.2981460841342864,9.660972017109888,-0.017453292519943295,0.01090830782496456,-0.019634954084936207,48.5625,57.875,-33.0625
1774889720.0172234,0.0,0.0,0.0,0.02851611202735701,-1.3322173567741586,9.660646866528488,0.0,0.0,0.0,47.5,56.5,-32.0
1774889720.032455,0.0,0.0,0.0,0.01897715400836271,-1.4184485305540084,9.596873360009669,-0.00545415391248228,0.009817477042468103,-0.008726646259971648,47.5,56.5,-32.0
1774889720.05109,0.0,0.0,0.0,0.01897715400836271,-1.4184485305540084,9.596873360009669,-0.00545415391248228,0.009817477042468103,-0.008726646259971648,47.5,56.5,-32.0
1774889720.0643883,0.0,0.0,0.0,0.012629084003865003,-1.4758344134391714,9.55443280381814,0.004363323129985824,-0.001090830782496456,0.007635815477475192,47.5,56.5,-32.0
1774889720.0774682,0.0,0.0,0.0,0.012629084003865003,-1.4758344134391714,9.55443280381814,0.004363323129985824,-0.001090830782496456,0.007635815477475192,47.5,56.5,-32.0
1774889720.0945463,-1.0493012161463133,0.05221979164201949,-8.836368324691712,0.008404514328460125,-1.5140240774569327,9.526189087764754,-0.013089969389957472,0.004363323129985824,-0.006544984694978736,47.5,56.5,-32.0
1774889720.2806277,-1.03535252832066,0.053297254440390324,-8.836352295527696,0.01562844552297173,-1.5294035371322952,9.65792323706358,0.004363323129985824,0.004363323129985824,0.013089969389957472,47.5,56.5,-32.0
1774889720.2964404,0.0,0.0,0.0,0.010400555914362135,-1.4560106030634428,9.591715703318387,0.0,0.0,0.0,47.0,52.75,-32.5625
1774889720.3160756,0.0,0.0,0.0,0.006921453779185871,-1.4071684252934142,9.701530467734264,0.007635815477475192,-0.003272492347489368,-0.026179938779914945,47.0,52.75,-32.5625
1774889720.3330445,0.0,0.0,0.0,0.006921453779185871,-1.4071684252934142,9.701530467734264,0.007635815477475192,-0.003272492347489368,-0.026179938779914945,47.0,52.75,-32.5625
1774889720.3504994,0.0,0.0,0.0,0.004606150172343407,-1.371319389883016,9.764575631619776,0.026179938779914945,0.007635815477475192,-0.016362461737446838,47.0,52.75,-32.5625
1774889720.3648589,-1.100714606530224,0.08398062101039414,-8.766214534594907,0.05658712880273583,-1.400984044594471,9.806531483924958,0.016362461737446838,0.008726646259971648,0.003272492347489368,47.0,52.75,-32.5625
1774889720.378725,-1.100714606530224,0.08398062101039414,-8.766214534594907,0.0911798894156838,-1.417380429221719,9.83445263495648,0.008726646259971648,0.020725784867432664,-0.02181661564992912,47.0,52.75,-32.5625
1774889720.5655525,-1.1221728767411687,0.08935043650340628,-8.766315181570429,0.0911798894156838,-1.417380429221719,9.83445263495648,0.008726646259971648,0.020725784867432664,-0.02181661564992912,47.0,52.75,-32.5625
1774889720.5882092,0.0,0.0,0.0,0.06067919786003474,-1.428292040031535,9.832963178824345,0.0,0.0,0.0,46.25,51.375,-30.5625
1774889720.6249952,0.0,0.0,0.0,-0.000982907981501368,-1.3345324014964273,9.586177486980866,-0.011999138607461015,0.004363323129985824,-0.030543261909900768,46.25,51.375,-30.5625
1774889720.6571038,-1.1849763017267025,0.08432511904823457,-8.787574654631268,-0.017379672818484498,-1.3096004806143946,9.60752683052995,-0.004363323129985824,0.003272492347489368,-0.006544984694978736,46.25,51.375,-30.5625
1774889720.8343832,-1.1849763017267025,0.08432511904823457,-8.787574654631268,-0.017379672818484498,-1.3096004806143946,9.60752683052995,-0.004363323129985824,0.003272492347489368,-0.006544984694978736,46.25,51.375,-30.5625
1774889720.8465393,0.0,0.0,0.0,-0.011565978117035202,-1.286318342360568,9.621734580174072,0.0,0.0,0.0,45.5,49.875,-29.0
1774889720.859301,0.0,0.0,0.0,-0.011565978117035202,-1.286318342360568,9.621734580174072,0.0,0.0,0.0,45.5,49.875,-29.0
1774889720.8754249,0.0,0.0,0.0,-0.007697029236445776,-1.2708243394311716,9.631189678851273,0.011999138607461015,-0.006544984694978736,0.0272707695624114,45.5,49.875,-29.0
1774889720.8960726,0.0,0.0,0.0,-0.0051222869754043426,-1.2437876950244149,9.476916579449247,-0.001090830782496456,-0.003272492347489368,-0.001090830782496456,45.5,49.875,-29.0
1774889720.912132,0.0,0.0,0.0,-0.0051222869754043426,-1.2437876950244149,9.476916579449247,-0.001090830782496456,-0.003272492347489368,-0.001090830782496456,45.5,49.875,-29.0
1774889720.9273345,-1.1355667027467566,0.08144576441310623,-8.752156108388284,0.023352068896118197,-1.2525560038493804,9.618442709774952,0.017453292519943295,-0.004363323129985824,0.015271630954950384,45.5,49.875,-29.0
1774889721.1055503,-1.1355667027467566,0.08144576441310623,-8.752156108388284,0.023352068896118197,-1.2525560038493804,9.618442709774952,0.017453292519943295,-0.004363323129985824,0.015271630954950384,45.5,49.875,-29.0
1774889721.1203313,0.0,0.0,0.0,0.015540540990664816,-1.2316303217654125,9.46843361392193,0.0,0.0,0.0,45.875,46.5625,-28.875
1774889721.133848,0.0,0.0,0.0,0.01034205643006985,-1.244465407752272,9.612797390977457,0.0,-0.018544123302439753,0.028361600344907856,45.875,46.5625,-28.875
1774889721.1502888,0.0,0.0,0.0,0.01034205643006985,-1.244465407752272,9.612797390977457,0.0,-0.018544123302439753,0.028361600344907856,45.875,46.5625,-28.875
1774889721.1702943,0.0,0.0,0.0,-0.04663926429123873,-1.1760694448308764,9.554994733422163,0.015271630954950384,-0.004363323129985824,0.025089107997418487,45.875,46.5625,-28.875
1774889721.1892464,-1.0154524501445676,0.06966794670144938,-8.745265578872935,-0.08455969670821031,-1.3446398448080956,9.600155503200092,-0.003272492347489368,0.003272492347489368,0.015271630954950384,45.875,46.5625,-28.875
1774889721.3837664,-1.0154524501445676,0.06966794670144938,-8.745265578872935,-0.08455969670821031,-1.3446398448080956,9.600155503200092,-0.003272492347489368,0.003272492347489368,0.015271630954950384,45.875,46.5625,-28.875
1774889721.3972821,0.0,0.0,0.0,-0.05627353356560925,-1.2427344136697436,9.546581698325467,-0.009817477042468103,0.003272492347489368,0.0,45.875,46.5625,-28.875
1774889721.415243,0.0,0.0,0.0,-0.010688514312799192,-1.3221024027274775,9.363744014517964,-0.015271630954950384,-0.009817477042468103,0.009817477042468103,45.875,46.5625,-28.875
1774889721.4311235,0.0,0.0,0.0,-0.010688514312799192,-1.3221024027274775,9.363744014517964,-0.015271630954950384,-0.009817477042468103,0.009817477042468103,45.875,46.5625,-28.875
1774889721.446254,0.0,0.0,0.0,0.019647806781915418,-1.3749209128468691,9.242067578374824,0.003272492347489368,-0.007635815477475192,0.04036073895236887,45.1875,43.5625,-27.75
1774889721.4624867,-0.9800204896286301,0.06511434180814839,-8.77285109150684,0.03983628959153704,-1.4100710413099062,9.345074413238983,0.002181661564992912,-0.011999138607461015,0.014180800172453928,45.1875,43.5625,-27.75
1774889721.4751089,-0.9735724326642738,0.0726813431112878,-8.765848823601283,0.026510605722655452,-1.4000119420762012,9.507287438984283,-0.007635815477475192,0.003272492347489368,-0.00545415391248228,45.1875,43.5625,-27.75
1774889721.658945,-0.9735724326642738,0.0726813431112878,-8.765848823601283,0.026510605722655452,-1.4000119420762012,9.507287438984283,-0.007635815477475192,0.003272492347489368,-0.00545415391248228,45.1875,43.5625,-27.75
1774889721.673612,0.0,0.0,0.0,0.01764251196555715,-1.3799372770743938,9.52157526777461,0.0,0.0,0.0,43.6875,41.75,-27.0
1774889721.6907136,0.0,0.0,0.0,0.01764251196555715,-1.3799372770743938,9.52157526777461,0.0,0.0,0.0,43.6875,41.75,-27.0
1774889721.7099233,0.0,0.0,0.0,0.011740894633306399,-1.37995825859367,9.62474678603401,-0.014180800172453928,0.002181661564992912,0.013089969389957472,43.6875,41.75,-27.0
1774889721.723949,-0.9242614053005077,0.06916976941321173,-8.80100375962155,0.007813434224078743,-1.4268037854628408,9.669990496983031,0.003272492347489368,-0.018544123302439753,0.031634092692397225,43.6875,41.75,-27.0
1774889721.7418735,-0.8888461814655275,0.06493334167858317,-8.793850635855565,0.02527042343826147,-1.457978960295451,9.700099681214237,-0.002181661564992912,-0.001090830782496456,0.0272707695624114,43.6875,41.75,-27.0
1774889721.9339783,-0.8888461814655275,0.06493334167858317,-8.793850635855565,0.02527042343826147,-1.457978960295451,9.700099681214237,-0.002181661564992912,-0.001090830782496456,0.0272707695624114,43.6875,41.75,-27.0
1774889721.9472916,0.0,0.0,0.0,0.05695852499686941,-1.4787256908970317,9.72013700697848,0.00545415391248228,0.002181661564992912,0.002181661564992912,43.25,37.375,-25.375
1774889721.9631538,0.0,0.0,0.0,0.05695852499686941,-1.4787256908970317,9.72013700697848,0.00545415391248228,0.002181661564992912,0.002181661564992912,43.25,37.375,-25.375
1774889721.9811826,0.0,0.0,0.0,0.07804660260483486,-1.4758068498196206,9.700020506369794,-0.001090830782496456,0.004363323129985824,0.00545415391248228,43.25,37.375,-25.375
1774889721.9974966,-0.805191168659673,0.07117272388957288,-8.821976175461016,0.0920804826836738,-1.5073155107613887,9.766915880906415,-0.00545415391248228,-0.001090830782496456,0.031634092692397225,43.25,37.375,-25.375
1774889722.0113792,-0.805191168659673,0.07117272388957288,-8.821976175461016,0.0920804826836738,-1.5073155107613887,9.766915880906415,-0.00545415391248228,-0.001090830782496456,0.031634092692397225,43.25,37.375,-25.375
1774889722.0279593,-0.7772957388831034,0.07332423518876377,-8.821944115849133,0.07131386774155425,-1.5082135023994139,9.7010453190487,-0.008726646259971648,0.004363323129985824,0.016362461737446838,43.25,37.375,-25.375
1774889722.2090316,-0.7772957388831034,0.07332423518876377,-8.821944115849133,0.07131386774155425,-1.5082135023994139,9.7010453190487,-0.008726646259971648,0.004363323129985824,0.016362461737446838,43.25,37.375,-25.375
1774889722.225635,0.0,0.0,0.0,0.04745858235390432,-1.5088111058032958,9.657209195954778,0.0,0.003272492347489368,0.009817477042468103,43.6875,33.25,-25.75
1774889722.243367,0.0,0.0,0.0,0.03158315640942168,-1.415545676387969,9.628036745717354,0.00545415391248228,0.00545415391248228,0.04908738521234052,43.6875,33.25,-25.75
1774889722.271214,0.0,0.0,0.0,0.02101823778349611,-1.35347857495518,9.605277694254651,-0.008726646259971648,-0.002181661564992912,0.009817477042468103,43.6875,33.25,-25.75
1774889722.2847857,0.0,0.0,0.0,0.02101823778349611,-1.35347857495518,9.605277694254651,-0.008726646259971648,-0.002181661564992912,0.009817477042468103,43.6875,33.25,-25.75
1774889722.2987828,-0.6802182406397967,0.08774576701890076,-8.83598660352487,0.013987402455816565,-1.4058367400915541,9.630273140229317,-0.002181661564992912,-0.004363323129985824,0.025089107997418487,43.6875,33.25,-25.75
1774889722.479062,-0.6802182406397967,0.08774576701890076,-8.83598660352487,0.013987402455816565,-1.4058367400915541,9.630273140229317,-0.002181661564992912,-0.004363323129985824,0.025089107997418487,43.6875,33.25,-25.75
1774889722.4927444,0.0,0.0,0.0,0.009308460084822575,-1.4406805141107835,9.606765989820198,-0.002181661564992912,0.001090830782496456,0.019634954084936207,41.875,29.1875,-27.0
1774889722.5073333,0.0,0.0,0.0,0.009308460084822575,-1.4406805141107835,9.606765989820198,-0.002181661564992912,0.001090830782496456,0.019634954084936207,41.875,29.1875,-27.0
1774889722.5260074,0.0,0.0,0.0,0.006194676204137058,-1.4638686564901213,9.728271823815101,-0.016362461737446838,-0.002181661564992912,0.015271630954950384,41.875,29.1875,-27.0
1774889722.5420463,0.0,0.0,0.0,0.004122487814785891,-1.375601643288147,9.678673242444152,-0.0272707695624114,0.003272492347489368,0.006544984694978736,41.875,29.1875,-27.0
1774889722.555311,0.0,0.0,0.0,0.004122487814785891,-1.375601643288147,9.678673242444152,-0.0272707695624114,0.003272492347489368,0.006544984694978736,41.875,29.1875,-27.0
1774889722.5676818,-0.562804879451675,0.11050399154171466,-8.905944967087887,0.00943369300417248,-1.3971436129850419,9.66239149913084,-0.015271630954950384,-0.00545415391248228,0.015271630954950384,41.875,29.1875,-27.0
1774889722.582537,-0.562804879451675,0.11050399154171466,-8.905944967087887,0.00943369300417248,-1.3971436129850419,9.66239149913084,-0.015271630954950384,-0.00545415391248228,0.015271630954950384,41.875,29.1875,-27.0
1774889722.75169,-0.562804879451675,0.11050399154171466,-8.905944967087887,0.00943369300417248,-1.3971436129850419,9.66239149913084,-0.015271630954950384,-0.00545415391248228,0.015271630954950384,41.875,29.1875,-27.0
1774889722.7656975,0.0,0.0,0.0,0.006278017313021047,-1.3311968722030914,9.634830622298223,0.006544984694978736,-0.003272492347489368,0.006544984694978736,41.5,25.875,-28.1875
1774889722.780853,0.0,0.0,0.0,0.006278017313021047,-1.3311968722030914,9.634830622298223,0.006544984694978736,-0.003272492347489368,0.006544984694978736,41.5,25.875,-28.1875
1774889722.800405,0.0,0.0,0.0,0.004177950391766999,-1.3374867284958576,9.576347826153452,0.004363323129985824,-0.002181661564992912,0.00545415391248228,41.5,25.875,-28.1875
1774889722.8139896,-0.45928173026059227,0.1327141093416808,-8.878174290942548,0.0027803793149570595,-1.3416725575963948,9.537428178614745,0.020725784867432664,0.0,0.04254240051736178,41.5,25.875,-28.1875
1774889722.827426,-0.45928173026059227,0.1327141093416808,-8.878174290942548,0.0027803793149570595,-1.3416725575963948,9.537428178614745,0.020725784867432664,0.0,0.04254240051736178,41.5,25.875,-28.1875
1774889722.8413095,-0.4522980595981983,0.13328229723402696,-8.871107489036095,-0.04498125252723947,-1.4113604142504153,9.511527587938685,0.002181661564992912,0.007635815477475192,-0.001090830782496456,41.5,25.875,-28.1875
1774889723.0225055,-0.4522980595981983,0.13328229723402696,-8.871107489036095,-0.04498125252723947,-1.4113604142504153,9.511527587938685,0.002181661564992912,0.007635815477475192,-0.001090830782496456,41.5,25.875,-28.1875
1774889723.0361085,0.0,0.0,0.0,-0.02993452108336363,-1.4577369043892998,9.480910587343045,0.0,0.0,0.0,40.0,23.0,-30.5625
1774889723.0501819,0.0,0.0,0.0,-0.02993452108336363,-1.4577369043892998,9.480910587343045,0.0,0.0,0.0,40.0,23.0,-30.5625
1774889723.0695548,0.0,0.0,0.0,-0.019921089390467772,-1.471874381980791,9.427084198387758,0.011999138607461015,0.004363323129985824,0.0,40.0,23.0,-30.5625
1774889723.0839965,0.0,0.0,0.0,0.006813407787709499,-1.4812827153919559,9.39126333781818,0.008726646259971648,-0.007635815477475192,0.02181661564992912,40.0,23.0,-30.5625
1774889723.0985107,0.0,0.0,0.0,0.006813407787709499,-1.4812827153919559,9.39126333781818,0.008726646259971648,-0.007635815477475192,0.02181661564992912,40.0,23.0,-30.5625
1774889723.1137388,-0.39007850239102554,0.14512331890194594,-8.87104238616111,0.024604917015884988,-1.4875438561791157,9.477813641595894,0.00545415391248228,-0.007635815477475192,0.025089107997418487,40.0,23.0,-30.5625
1774889723.295152,-0.39007850239102554,0.14512331890194594,-8.87104238616111,0.024604917015884988,-1.4875438561791157,9.477813641595894,0.00545415391248228,-0.007635815477475192,0.025089107997418487,40.0,23.0,-30.5625
1774889723.3088374,0.0,0.0,0.0,0.01637429741913911,-1.4883654637241257,9.53541190192972,-0.002181661564992912,0.003272492347489368,0.014180800172453928,40.0,21.0625,-33.75
1774889723.3230562,0.0,0.0,0.0,0.01637429741913911,-1.4883654637241257,9.53541190192972,-0.002181661564992912,0.003272492347489368,0.014180800172453928,40.0,21.0625,-33.75
1774889723.3431456,0.0,0.0,0.0,0.01089691201954993,-1.478876899245414,9.573742900767156,0.01090830782496456,0.011999138607461015,0.03381575425739013,40.0,21.0625,-33.75
1774889723.356106,0.0,0.0,0.0,0.007251773222527352,-1.3487932324082246,9.455411948893422,-0.003272492347489368,-0.007635815477475192,-0.00545415391248228,40.0,21.0625,-33.75
1774889723.370603,0.0,0.0,0.0,0.007251773222527352,-1.3487932324082246,9.455411948893422,-0.003272492347489368,-0.007635815477475192,-0.00545415391248228,40.0,21.0625,-33.75
1774889723.3834655,-0.27951798133252065,0.16782097607672852,-8.828575155230398,0.00817108577929659,-1.3491969096481509,9.530539160801489,0.017453292519943295,-0.00545415391248228,0.03490658503988659,40.0,21.0625,-33.75
1774889723.5656395,-0.27951798133252065,0.16782097607672852,-8.828575155230398,0.00817108577929659,-1.3491969096481509,9.530539160801489,0.017453292519943295,-0.00545415391248228,0.03490658503988659,40.0,21.0625,-33.75
1774889723.5797927,0.0,0.0,0.0,0.005437766309112996,-1.2624926479516474,9.42666034256367,0.003272492347489368,0.00545415391248228,0.011999138607461015,39.6875,21.0625,-35.75
1774889723.5997682,0.0,0.0,0.0,0.005437766309112996,-1.2624926479516474,9.42666034256367,0.003272492347489368,0.00545415391248228,0.011999138607461015,39.6875,21.0625,-35.75
1774889723.6152935,0.0,0.0,0.0,0.003618772734884916,-1.2917648347329937,9.544856405038718,-0.003272492347489368,-0.006544984694978736,0.014180800172453928,39.6875,21.0625,-35.75
1774889723.631131,-0.13415604489676677,0.19307188398278877,-8.828357657015125,0.0024082528307257443,-1.3580767119466992,9.623514564279333,0.00545415391248228,-0.001090830782496456,0.055632369907319255,39.6875,21.0625,-35.75
1774889723.6446958,-0.13415604489676677,0.19307188398278877,-8.828357657015125,0.0024082528307257443,-1.3580767119466992,9.623514564279333,0.00545415391248228,-0.001090830782496456,0.055632369907319255,39.6875,21.0625,-35.75
1774889723.6597478,-0.11323629927705968,0.19468680608040995,-8.82832095763463,0.008292888771539938,-1.4256223074314514,9.719347142779903,-0.007635815477475192,0.0,0.016362461737446838,39.6875,21.0625,-35.75
1774889723.8412886,-0.11323629927705968,0.19468680608040995,-8.82832095763463,0.008292888771539938,-1.4256223074314514,9.719347142779903,-0.007635815477475192,0.0,0.016362461737446838,39.6875,21.0625,-35.75
1774889723.8565834,0.0,0.0,0.0,0.012209048254461135,-1.4705731466928131,9.783122653251986,0.0,0.0,0.0,38.5,20.6875,-39.25
1774889723.8704782,0.0,0.0,0.0,0.012209048254461135,-1.4705731466928131,9.783122653251986,0.0,0.0,0.0,38.5,20.6875,-39.25
1774889723.8906002,0.0,0.0,0.0,0.008124985229338612,-1.3533025129654206,9.822219431344708,0.002181661564992912,0.008726646259971648,0.020725784867432664,38.5,20.6875,-39.25
1774889723.911271,-0.038159274281362204,0.221526638598191,-8.835258114343931,0.005407086908092846,-1.2752602162186546,9.834857453596507,-0.001090830782496456,0.002181661564992912,0.02181661564992912,38.5,20.6875,-39.25
1774889723.9277565,-0.003293030171932817,0.22422031483152677,-8.835190622373624,-0.009782090893060164,-1.3036066204989238,9.8566483630584,0.009817477042468103,0.0,0.0272707695624114,38.5,20.6875,-39.25
1774889724.1138523,-0.003293030171932817,0.22422031483152677,-8.835190622373624,-0.009782090893060164,-1.3036066204989238,9.8566483630584,0.009817477042468103,0.0,0.0272707695624114,38.5,20.6875,-39.25
1774889724.1283903,0.0,0.0,0.0,-0.006509872216216376,-1.3224708358973594,9.857769523055602,0.0,0.0,0.0,38.5,20.6875,-39.25
1774889724.1430442,0.0,0.0,0.0,-0.027748029191090207,-1.3049187551520502,9.87189608933884,0.00545415391248228,0.006544984694978736,0.031634092692397225,38.5,20.6875,-39.25
1774889724.1604428,0.0,0.0,0.0,-0.027748029191090207,-1.3049187551520502,9.87189608933884,0.00545415391248228,0.006544984694978736,0.031634092692397225,38.5,20.6875,-39.25
1774889724.1763084,0.0,0.0,0.0,-0.06529756736334599,-1.293238041485636,9.801014480420585,-0.020725784867432664,-0.002181661564992912,-0.015271630954950384,37.375,20.375,-40.5
1774889724.1944811,0.06587262802297257,0.23659116812834335,-8.849167112417893,-0.09028636556115689,-1.3724375614130624,9.793984901972772,-0.015271630954950384,0.0,0.008726646259971648,37.375,20.375,-40.5
1774889724.2082257,0.06587262802297257,0.23659116812834335,-8.849167112417893,0.01350788984486391,-1.4251439572081581,9.789306796041288,0.01090830782496456,0.030543261909900768,0.032724923474893676,37.375,20.375,-40.5
1774889724.3922982,0.08463424447229227,0.26610299227785195,-8.849118432308531,0.01350788984486391,-1.4251439572081581,9.789306796041288,0.01090830782496456,0.030543261909900768,0.032724923474893676,37.375,20.375,-40.5
1774889724.443362,0.0,0.0,0.0,0.054957270298691845,-1.3164244545702497,9.740635298655718,-0.025089107997418487,-0.007635815477475192,0.002181661564992912,37.0,20.6875,-42.0625
1774889724.458679,0.152629149495156,0.2924934494670056,-8.898343168767262,0.03657344947084485,-1.3310009612872382,9.710316778792755,-0.020725784867432664,0.002181661564992912,0.014180800172453928,37.0,20.6875,-42.0625
1774889724.4718094,0.152629149495156,0.2924934494670056,-8.898343168767262,0.03657344947084485,-1.3310009612872382,9.710316778792755,-0.020725784867432664,0.002181661564992912,0.014180800172453928,37.0,20.6875,-42.0625
1774889724.486748,0.1805224511280344,0.29466377056617926,-8.898275688085945,0.02433922207064715,-1.3607721339210612,9.690140142504012,-0.006544984694978736,0.0,0.013089969389957472,37.0,20.6875,-42.0625
1774889724.66909,0.1805224511280344,0.29466377056617926,-8.898275688085945,0.02433922207064715,-1.3607721339210612,9.690140142504012,-0.006544984694978736,0.0,0.013089969389957472,37.0,20.6875,-42.0625
1774889724.7000005,0.0,0.0,0.0,0.016197480401090338,-1.3872747401577203,9.556288794978151,-0.00545415391248228,-0.00545415391248228,0.016362461737446838,36.25,20.6875,-45.25
1774889724.7318494,0.0,0.0,0.0,0.010779242269213982,-1.404911928554707,9.467212218417213,0.002181661564992912,-0.007635815477475192,0.039269908169872414,36.25,20.6875,-45.25
1774889724.7503593,0.3285375420548995,0.2851649902546022,-8.911547220308615,0.007173465318136017,-1.4166492804125979,9.518321438108007,-0.011999138607461015,-0.002181661564992912,0.017453292519943295,36.25,20.6875,-45.25
1774889724.9968765,0.3285375420548995,0.2851649902546022,-8.911547220308615,0.007173465318136017,-1.4166492804125979,9.518321438108007,-0.011999138607461015,-0.002181661564992912,0.017453292519943295,36.25,20.6875,-45.25
1774889725.0260875,0.0,0.0,0.0,0.004773861036361382,-1.4043896867152967,9.552334052884838,0.013089969389957472,-0.018544123302439753,0.014180800172453928,36.1875,20.6875,-47.375
1774889725.050893,0.0,0.0,0.0,0.004773861036361382,-1.4043896867152967,9.552334052884838,0.013089969389957472,-0.018544123302439753,0.014180800172453928,36.1875,20.6875,-47.375
1774889725.0868752,0.496557983333126,0.2910603718196104,-8.869393511490589,-0.005718615104588293,-1.4063845331351086,9.703766215879922,0.017453292519943295,-0.001090830782496456,0.018544123302439753,37.1875,22.1875,-47.75
1774889725.3123083,0.5105358784179317,0.2920772293986787,-8.855250030106301,-0.005718615104588293,-1.4063845331351086,9.703766215879922,0.017453292519943295,-0.001090830782496456,0.018544123302439753,37.1875,22.1875,-47.75
1774889725.3425498,0.0,0.0,0.0,-0.027221456422222803,-1.4443901759693392,9.789479278987004,-0.004363323129985824,-0.001090830782496456,-0.006544984694978736,37.1875,22.1875,-47.75
1774889725.3700428,0.0,0.0,0.0,-0.0415313571166323,-1.4964434003832265,9.816414359641241,0.014180800172453928,0.0,0.03381575425739013,36.5,21.75,-48.5625
1774889725.6201406,0.6559688567708394,0.31719859356743085,-8.82663431219397,0.012502686262371193,-1.531084239758052,9.830994243224751,0.002181661564992912,-0.003272492347489368,0.017453292519943295,36.5,21.75,-48.5625
1774889725.6446059,0.0,0.0,0.0,0.04846173853128388,-1.5708628899350645,9.844042104588926,-0.003272492347489368,0.007635815477475192,-0.008726646259971648,35.375,21.75,-49.75
1774889725.6722429,0.0,0.0,0.0,0.03894096905411779,-1.5438133499541182,9.849380198865301,0.013089969389957472,0.003272492347489368,0.016362461737446838,35.375,21.75,-49.75
1774889726.077394,0.8641977512872844,0.3470235428389987,-8.790778391972834,0.015929286995142667,-1.4375514646777283,9.941502606345352,0.001090830782496456,0.007635815477475192,-0.008726646259971648,35.0625,21.375,-50.875
1774889726.3740742,0.46603083106119136,0.3236438316135148,-8.84110617332695,0.007007409089002374,-1.3932502972871308,9.751231277205397,-0.006544984694978736,0.008726646259971648,-0.08508480103472356,35.0625,24.0,-52.0625
1774889726.6534698,0.46603083106119136,0.3236438316135148,-8.84110617332695,0.007007409089002374,-1.3932502972871308,9.751231277205397,-0.006544984694978736,0.008726646259971648,-0.08508480103472356,35.0625,24.0,-52.0625
1774889726.7264469,0.05503707245401173,0.2848879372782652,-8.884465202851873,-0.04146656047326863,-1.4538421618788446,9.655834117282238,0.0,-0.00545415391248228,-0.08399397025222712,36.875,24.0,-53.25
1774889726.7785585,-0.16115175213248492,0.26808590311688424,-8.892045195630967,-0.04766620302704512,-1.4659373626398882,9.70071410378244,0.0,0.004363323129985824,-0.06326818538479445,36.5,25.875,-54.5
1774889727.0368047,0.0,0.0,0.0,-0.0517919958920383,-1.463951248512159,9.730581233456027,0.00545415391248228,0.0,-0.02399827721492203,36.5,25.875,-54.5
1774889727.1225178,-0.9319978384507774,0.16571769578955628,-8.935363316513174,-0.040758295743056734,-1.421608570205895,9.746959332539369,0.003272492347489368,0.004363323129985824,-0.07417649320975901,36.875,25.0625,-55.25
1774889727.4295633,-1.1836239873772187,0.1526382599120439,-8.977760534471901,-0.01247959961081343,-1.5578146961722554,9.83340013315363,-0.022907446432425576,-0.004363323129985824,-0.05999569303730508,36.5,27.6875,-55.25
1774889727.4819305,-1.3772411810080474,0.11648084568049771,-8.97085602705485,-0.008305034134734386,-1.6221028271531475,9.892474761363513,0.014180800172453928,0.01090830782496456,-0.0272707695624114,34.25,26.875,-56.5
1774889727.7740362,-1.3772411810080474,0.11648084568049771,-8.97085602705485,-0.008305034134734386,-1.6221028271531475,9.892474761363513,0.014180800172453928,0.01090830782496456,-0.0272707695624114,34.25,26.875,-56.5
1774889727.8756835,-1.4195363956685518,0.12077277500025525,-8.92162603580474,-0.025939439902700343,-1.5016971661065108,9.927844959692385,0.019634954084936207,-0.004363323129985824,0.00545415391248228,35.75,27.25,-56.0625
1774889728.14556,0.0,0.0,0.0,-0.0038819606634397583,-1.4643332163047822,10.012193637431643,0.007635815477475192,0.016362461737446838,0.013089969389957472,32.0625,28.75,-56.0625
1774889728.17117,-1.4013352487988622,0.15726615688683523,-8.92202529384609,0.010797045372100342,-1.5364761646066611,9.981353835840348,0.004363323129985824,0.004363323129985824,0.007635815477475192,32.0625,28.75,-56.0625
1774889728.2266388,-1.359505325597684,0.16044732972026524,-8.928985908405414,-0.05971692106215448,-1.601212049348622,9.890582946530792,-0.025089107997418487,0.003272492347489368,0.001090830782496456,32.875,29.875,-56.5
1774889728.471301,0.0,0.0,0.0,-0.10664317803153411,-1.6409479457898621,9.810105263428637,-0.003272492347489368,0.0,0.004363323129985824,31.0,28.75,-56.5
1774889728.549577,-1.278030656784461,0.19471455388412248,-8.943232400414676,-0.1345269661366994,-1.66739174099246,9.68630091846507,-0.015271630954950384,0.009817477042468103,0.006544984694978736,31.0,28.75,-56.5
1774889728.7890081,-1.278030656784461,0.19471455388412248,-8.943232400414676,-0.1345269661366994,-1.66739174099246,9.68630091846507,-0.015271630954950384,0.009817477042468103,0.006544984694978736,31.0,28.75,-56.5
1774889728.8173268,0.0,0.0,0.0,-0.15308331563836455,-1.6849897913032412,9.603910509876968,-0.00545415391248228,0.001090830782496456,0.008726646259971648,28.375,29.5625,-55.6875
1774889728.8359945,0.0,0.0,0.0,-0.16543235894371666,-1.6866657620800054,9.549080613322754,0.007635815477475192,0.003272492347489368,0.017453292519943295,28.375,29.5625,-55.6875
1774889728.8614545,-1.2024836148175555,0.21436726788636004,-8.971421049923974,-0.13685428053506282,-1.7580284477638286,9.57280394038775,-0.011999138607461015,0.006544984694978736,0.0,28.375,29.5625,-55.6875
1774889729.1070457,-1.2024836148175555,0.21436726788636004,-8.971421049923974,-0.13685428053506282,-1.7580284477638286,9.57280394038775,-0.011999138607461015,0.006544984694978736,0.0,28.375,29.5625,-55.6875
1774889729.1332443,0.0,0.0,0.0,-0.11114566517751813,-1.7787586242544258,9.588591549542578,0.001090830782496456,0.004363323129985824,0.001090830782496456,27.6875,29.5625,-55.6875
1774889729.1574368,0.0,0.0,0.0,-0.06058575176792897,-1.7925543251376737,9.669345372929673,-0.001090830782496456,-0.00545415391248228,0.026179938779914945,27.6875,29.5625,-55.6875
1774889729.2024999,0.0,0.0,0.0,-0.02693869418508691,-1.7281427524063722,9.810059044704774,-0.01090830782496456,0.006544984694978736,0.019634954084936207,26.875,31.375,-55.25
1774889729.4454901,0.0,0.0,0.0,-0.004546953225966294,-1.6852775702781038,9.903702421396398,-0.003272492347489368,-0.002181661564992912,0.008726646259971648,26.875,31.375,-55.25
1774889729.484028,0.0,0.0,0.0,-0.004546953225966294,-1.6852775702781038,9.903702421396398,-0.003272492347489368,-0.002181661564992912,0.008726646259971648,26.875,31.375,-55.25
1774889729.5236225,-1.0217732729829216,0.23537453036320555,-8.992178447678,0.020389835372150743,-1.6567512704072,9.966021042519614,0.02181661564992912,-0.008726646259971648,0.05126904677733343,25.5,30.5625,-57.25
1774889729.8164053,0.0,0.0,0.0,0.012422547806299415,-1.7811286336272356,9.87569366711489,-0.008726646259971648,-0.00545415391248228,0.004363323129985824,23.1875,29.875,-58.5
1774889729.8497217,-0.9397592646609804,0.26281336737675803,-8.999193214876748,0.0015768433815019581,-1.8142022101444555,9.816922172838101,0.001090830782496456,0.011999138607461015,0.020725784867432664,23.1875,29.875,-58.5
1774889730.176936,-0.7591916715497758,0.28353426250803687,-9.075819782838078,0.026500653748658676,-1.7008735070048795,9.658641718542844,-0.016362461737446838,0.004363323129985824,0.022907446432425576,22.5,32.0625,-59.25
1774889730.6274614,-0.9336560958926773,0.26931449690426473,-9.125754180773395,0.0641038372536452,-1.675911195528752,9.773203168587905,-0.02399827721492203,0.011999138607461015,-0.03381575425739013,19.875,32.0625,-61.25
1774889730.8367317,-1.6030404647593652,0.21539137657715884,-9.161936736732383,-0.018394272526696297,-1.700474153883138,10.07783714447728,0.001090830782496456,0.017453292519943295,-0.1189005552921137,20.25,32.0625,-62.0625
1774889730.9408047,-1.8529736631329496,0.1814596465766369,-9.15538637222585,-0.05238252337686139,-1.7003155441125823,10.011658409663921,0.00545415391248228,-0.003272492347489368,-0.14508049407202864,20.25,32.0625,-62.0625
1774889731.3699312,-2.7342903725602645,0.14627890526856088,-9.142964068558813,-0.05328129542424175,-1.7346389210679134,10.04535184309192,-0.01090830782496456,0.003272492347489368,-0.10144726277217041,18.875,34.0,-64.75
1774889731.6220548,-3.512767743517137,0.04984971505965851,-9.115002800692716,-0.04476298154943528,-1.7599106948454373,9.890662095525212,-0.004363323129985824,0.019634954084936207,-0.1341721862470641,17.375,38.375,-67.5625
1774889731.8553267,-3.512767743517137,0.04984971505965851,-9.115002800692716,-0.04476298154943528,-1.7599106948454373,9.890662095525212,-0.004363323129985824,0.019634954084936207,-0.1341721862470641,17.375,38.375,-67.5625
1774889731.8951347,0.0,0.0,0.0,-0.03982459930783968,-1.7666307918318813,9.753291037175842,-0.003272492347489368,0.007635815477475192,-0.04581489286485115,17.375,38.375,-67.5625
1774889732.1940756,-4.30142425317564,-0.007088455716086354,-9.142984561250154,-0.01981260255480512,-1.6908202603322926,9.651836797257648,0.00545415391248228,0.025089107997418487,-0.11999138607461016,16.5625,39.875,-68.375
1774889732.2233775,0.0,0.0,0.0,0.006885604564965633,-1.5968827462832897,9.62780658610536,0.009817477042468103,0.013089969389957472,-0.09817477042468103,13.5625,41.375,-67.25
1774889732.276449,-5.066446068345008,-0.010322977212677406,-9.103161037411503,0.0008115102842987457,-1.5094913261636995,9.601172360077818,-0.019634954084936207,0.02945243112740431,-0.13526301702956053,14.25,41.6875,-66.75
1774889732.5375178,0.0,0.0,0.0,-0.006150172385601804,-1.596634387634505,9.64426664473082,-0.013089969389957472,0.01090830782496456,-0.16580627893946132,14.25,41.6875,-66.75
1774889732.5923684,-6.286942061514363,-0.12380026324569088,-9.143889654753913,0.002597352393947862,-1.617830892811033,9.67294540977269,0.00545415391248228,0.016362461737446838,-0.10581058590215622,12.375,42.5,-64.75
1774889732.6126502,-6.286942061514363,-0.12380026324569088,-9.143889654753913,0.002597352393947862,-1.617830892811033,9.67294540977269,0.00545415391248228,0.016362461737446838,-0.10581058590215622,12.375,42.5,-64.75
1774889732.8970277,-6.442347540372697,-0.11558907727822869,-9.152074407433098,0.008418732418483729,-1.6687331590060481,9.69203080754526,-0.002181661564992912,0.031634092692397225,-0.14508049407202864,12.375,42.5,-64.75
1774889732.928044,0.0,0.0,0.0,0.05577924799088857,-1.6858824900066631,9.647865027540613,0.0,0.007635815477475192,-0.05235987755982989,12.0625,41.375,-62.0
1774889732.962283,-7.40698284522249,-0.1862147633774721,-9.158485779723597,-0.003020874044923287,-1.7340914069975062,9.618473194311608,-0.013089969389957472,0.025089107997418487,-0.16689710972195776,12.0625,41.375,-62.0
1774889732.987787,-7.40698284522249,-0.1862147633774721,-9.158485779723597,-0.003020874044923287,-1.7340914069975062,9.618473194311608,-0.013089969389957472,0.025089107997418487,-0.16689710972195776,12.0625,41.375,-62.0
1774889733.208343,0.0,0.0,0.0,-0.0388065867120355,-1.7293776739455102,9.662470380065065,0.009817477042468103,0.006544984694978736,-0.05345070834232634,12.6875,38.875,-60.0625
1774889733.2215602,0.0,0.0,0.0,-0.0388065867120355,-1.7293776739455102,9.662470380065065,0.009817477042468103,0.006544984694978736,-0.05345070834232634,12.6875,38.875,-60.0625
1774889733.2640867,0.0,0.0,0.0,-0.06262157873939524,-1.7195505138406164,9.69175001570322,0.009817477042468103,0.013089969389957472,-0.10799224746714914,12.6875,38.875,-60.0625
1774889733.2815237,-8.269647440862322,-0.21334315926404807,-9.159568484752514,-0.06843485478075295,-1.7130106485673808,9.734651068096689,-0.011999138607461015,0.015271630954950384,-0.1308996938995747,12.6875,38.875,-60.0625
1774889733.30049,-8.471798636255311,-0.23498264495832255,-9.137606252872821,-0.07230352504772816,-1.6417562071367369,9.719714787033233,0.013089969389957472,0.008726646259971648,-0.11780972450961724,12.6875,38.875,-60.0625
1774889733.4911945,-8.471798636255311,-0.23498264495832255,-9.137606252872821,-0.07230352504772816,-1.6417562071367369,9.719714787033233,0.013089969389957472,0.008726646259971648,-0.11780972450961724,12.6875,38.875,-60.0625
1774889733.504085,0.0,0.0,0.0,-0.07487808189452165,-1.594337172328908,9.709774858834695,0.002181661564992912,0.004363323129985824,-0.04690572364734761,13.0625,38.1875,-59.75
1774889733.5163329,0.0,0.0,0.0,-0.07487808189452165,-1.594337172328908,9.709774858834695,0.002181661564992912,0.004363323129985824,-0.04690572364734761,13.0625,38.1875,-59.75
1774889733.5374265,0.0,0.0,0.0,-0.11338764949689155,-1.5627803343696243,9.703159947654843,-0.017453292519943295,0.025089107997418487,-0.19198621771937624,13.0625,38.1875,-59.75
1774889733.5699496,-9.243079520045123,-0.27035141649662314,-9.15895290353004,-0.07545821411714368,-1.5484698346353374,9.712138244987328,-0.016362461737446838,0.0272707695624114,-0.16689710972195776,13.0625,38.1875,-59.75
1774889733.5848737,-9.243079520045123,-0.27035141649662314,-9.15895290353004,-0.08032260393735112,-1.555671915457523,9.771634988885054,-0.025089107997418487,0.015271630954950384,-0.16689710972195776,13.0625,38.1875,-59.75
1774889733.7979722,-9.411555304820144,-0.2779979008249389,-9.17317863856727,-0.08032260393735112,-1.555671915457523,9.771634988885054,-0.025089107997418487,0.015271630954950384,-0.16689710972195776,13.0625,38.1875,-59.75
1774889733.8305826,0.0,0.0,0.0,-0.08355980102390445,-1.560464819792173,9.904892535131756,-0.004363323129985824,0.009817477042468103,-0.037088246604879506,13.0625,37.0625,-58.875
1774889733.854471,0.0,0.0,0.0,-0.0857141195231448,-1.5937604494525077,10.003609278696567,-0.02399827721492203,0.01090830782496456,-0.1712604328519436,13.0625,37.0625,-58.875
1774889733.875753,0.0,0.0,0.0,-0.0857141195231448,-1.5937604494525077,10.003609278696567,-0.02399827721492203,0.01090830782496456,-0.1712604328519436,13.0625,37.0625,-58.875
1774889734.0925725,-10.301552993463583,-0.3391635617262797,-9.214206972418229,-0.07376734758979725,-1.615918319054907,10.069304168800668,0.014180800172453928,0.00545415391248228,-0.09926560120717749,13.0625,37.0625,-58.875
1774889734.112776,0.0,0.0,0.0,-0.04909134578574434,-1.5737972347312523,10.082917378939065,0.009817477042468103,0.01090830782496456,-0.0272707695624114,13.0625,37.0625,-58.875
1774889734.1373007,0.0,0.0,0.0,-0.03266974223414859,-1.519005229978647,9.86450922211893,0.004363323129985824,0.02399827721492203,-0.12217304763960307,13.0625,37.0625,-58.875
1774889734.1532032,-10.852777950056085,-0.31805195343938075,-9.190469767278344,-0.03177668363385105,-1.4189846404435174,9.719161033534103,-0.004363323129985824,0.03381575425739013,-0.15926129424448257,12.6875,37.0625,-59.75
1774889734.1692922,-10.852777950056085,-0.31805195343938075,-9.190469767278344,-0.03177668363385105,-1.4189846404435174,9.719161033534103,-0.004363323129985824,0.03381575425739013,-0.15926129424448257,12.6875,37.0625,-59.75
1774889734.189755,-11.140449793452142,-0.33351575174353476,-9.183276933588544,-0.047907921648068175,-1.4159791778501507,9.782998799627883,-0.006544984694978736,0.016362461737446838,-0.18216874067690814,12.6875,37.0625,-59.75
1774889734.3828242,-11.140449793452142,-0.33351575174353476,-9.183276933588544,-0.047907921648068175,-1.4159791778501507,9.782998799627883,-0.006544984694978736,0.016362461737446838,-0.18216874067690814,12.6875,37.0625,-59.75
1774889734.4116406,0.0,0.0,0.0,-0.05864308034879399,-1.5310579858236608,9.855588125214595,0.007635815477475192,-0.002181661564992912,-0.06654067773228381,14.1875,37.0625,-60.875
1774889734.4350467,0.0,0.0,0.0,-0.05864308034879399,-1.5310579858236608,9.855588125214595,0.007635815477475192,-0.002181661564992912,-0.06654067773228381,14.1875,37.0625,-60.875
1774889734.456558,-11.818301991862358,-0.4089064061970763,-9.17886285512191,-0.06578720854454685,-1.6076416470155162,9.87378950515078,-0.009817477042468103,0.020725784867432664,-0.15271630954950383,14.1875,37.0625,-60.875
1774889734.4735937,-12.00809368024612,-0.4226089802277907,-9.164588514191209,-0.06719643434636,-1.695403446823659,10.029742123590308,0.013089969389957472,0.001090830782496456,-0.09272061651219876,14.1875,37.0625,-60.875
1774889734.6833549,0.0,0.0,0.0,-0.04471847642414728,-1.553101241793275,9.839157018812815,-0.002181661564992912,0.0,-0.03381575425739013,14.1875,37.0625,-60.875
1774889734.708256,0.0,0.0,0.0,-0.029759646522157186,-1.5554089534776032,9.658802973241398,-0.003272492347489368,0.02181661564992912,-0.1439896632895322,14.1875,37.0625,-60.875
1774889734.7312958,0.0,0.0,0.0,-0.029759646522157186,-1.5554089534776032,9.658802973241398,-0.003272492347489368,0.02181661564992912,-0.1439896632895322,14.1875,37.0625,-60.875
1774889734.751178,-12.618425857930488,-0.4668929931861808,-9.183725603209618,-0.019804712323461728,-1.556944709824695,9.538779370600318,-0.025089107997418487,0.006544984694978736,-0.17998707911191522,15.25,37.75,-60.0625
1774889734.764618,-12.618425857930488,-0.4668929931861808,-9.183725603209618,-0.013179814818131299,-1.557966738518162,9.646231259404056,0.001090830782496456,0.01090830782496456,-0.14289883250703572,15.25,37.75,-60.0625
1774889734.9753435,-12.922996185268149,0.40123633895653876,-9.283953519099743,-0.013179814818131299,-1.557966738518162,9.646231259404056,0.001090830782496456,0.01090830782496456,-0.14289883250703572,15.25,37.75,-60.0625
1774889734.990426,0.0,0.0,0.0,-0.008771019533288049,-1.551956663782217,9.717739291086698,-0.003272492347489368,0.013089969389957472,-0.07526732399225546,16.375,39.25,-61.0
1774889735.0083969,0.0,0.0,0.0,0.004198319601262988,-1.5245412442311437,9.765327087374441,0.037088246604879506,0.011999138607461015,-0.09926560120717749,16.375,39.25,-61.0
1774889735.0280602,0.0,0.0,0.0,0.004198319601262988,-1.5245412442311437,9.765327087374441,0.037088246604879506,0.011999138607461015,-0.09926560120717749,16.375,39.25,-61.0
1774889735.041927,-13.448951830276583,-0.5007582789937308,-9.141618282306403,0.0027939347963376613,-1.5062965887702071,9.589599308359617,0.014180800172453928,0.03490658503988659,-0.16035212502697901,16.375,39.25,-61.0
1774889735.065291,-13.756201807556701,-0.5393239700896265,-9.138162900300571,-0.06504290174972163,-1.5309512031476227,9.736918259311397,-0.006544984694978736,0.00545415391248228,-0.19634954084936207,16.375,39.25,-61.0
1774889735.2628975,-13.756201807556701,-0.5393239700896265,-9.138162900300571,-0.06504290174972163,-1.5309512031476227,9.736918259311397,-0.006544984694978736,0.00545415391248228,-0.19634954084936207,16.375,39.25,-61.0
1774889735.2827547,0.0,0.0,0.0,-0.11018755868400748,-1.5473585736057045,9.570693550631065,0.0,0.0,0.0,17.0625,41.5,-62.5625
1774889735.3040323,0.0,0.0,0.0,-0.10343459479440043,-1.5582774953632208,9.526975098002353,0.001090830782496456,0.008726646259971648,-0.1505346479845109,17.0625,41.5,-62.5625
1774889735.3246272,-14.296266816437154,-0.5920120576570698,-9.09903625278755,-0.07552479081018065,-1.4819161231375153,9.49788095614506,0.001090830782496456,0.017453292519943295,-0.15271630954950383,17.0625,41.5,-62.5625
1774889735.3411686,-14.296266816437154,-0.5920120576570698,-9.09903625278755,-0.056951128031621154,-1.4310984829337279,9.522005581937044,-0.006544984694978736,0.01090830782496456,-0.11671889372712078,17.0625,41.5,-62.5625
1774889735.5513904,-14.521802193604133,-0.6038729001700823,-9.105784543703926,-0.056951128031621154,-1.4310984829337279,9.522005581937044,-0.006544984694978736,0.01090830782496456,-0.11671889372712078,17.0625,41.5,-62.5625
1774889735.5732567,0.0,0.0,0.0,-0.03790033951925905,-1.303616783243401,9.538060250911881,0.003272492347489368,0.0,-0.039269908169872414,17.0625,41.5,-62.5625
1774889735.5987086,0.0,0.0,0.0,-0.015186917453575602,-1.2187791361633826,9.495222666455122,-0.004363323129985824,0.04036073895236887,-0.13962634015954636,17.0625,41.5,-62.5625
1774889735.6174698,-15.10639173186758,-0.6374401271999761,-9.111353628825901,-0.010106723916370719,-1.2827446511937421,9.466714732526322,-0.032724923474893676,0.01090830782496456,-0.16580627893946132,20.0625,44.375,-60.1875
1774889735.6298616,-15.267141877196588,-0.6641483168509243,-9.108635474401709,-0.016761246988799217,-1.4189761147097673,9.584892600951289,-0.003272492347489368,0.003272492347489368,-0.13526301702956053,20.0625,44.375,-60.1875
1774889735.6426842,-15.267141877196588,-0.6641483168509243,-9.108635474401709,-0.016761246988799217,-1.4189761147097673,9.584892600951289,-0.003272492347489368,0.003272492347489368,-0.13526301702956053,20.0625,44.375,-60.1875
1774889735.8253455,-15.267141877196588,-0.6641483168509243,-9.108635474401709,-0.016761246988799217,-1.4189761147097673,9.584892600951289,-0.003272492347489368,0.003272492347489368,-0.13526301702956053,20.0625,44.375,-60.1875
1774889735.8401968,0.0,0.0,0.0,-0.021189757757606967,-1.5096366318745216,9.663538652254815,-0.002181661564992912,0.016362461737446838,-0.06326818538479445,22.25,46.5625,-58.5625
1774889735.86784,0.0,0.0,0.0,-0.014101547082583687,-1.5465544113520953,9.68242560379016,-0.004363323129985824,-0.002181661564992912,-0.14726215563702155,22.25,46.5625,-58.5625
1774889735.8931015,-15.87994960551406,-0.7069732543978926,-9.112905696589433,0.02741180672165615,-1.4406634246103462,9.664888653689985,0.015271630954950384,0.003272492347489368,-0.13962634015954636,22.25,46.5625,-58.5625
1774889735.9240685,-16.10841781983453,-0.6874536897995259,-9.095706355799312,0.05503847994383056,-1.500653512398996,9.653218009298888,-0.00545415391248228,0.04581489286485115,-0.14289883250703572,22.25,46.5625,-58.5625
1774889736.1099718,-16.10841781983453,-0.6874536897995259,-9.095706355799312,0.05503847994383056,-1.500653512398996,9.653218009298888,-0.00545415391248228,0.04581489286485115,-0.14289883250703572,22.25,46.5625,-58.5625
1774889736.134351,0.0,0.0,0.0,0.07342372236302672,-1.493744681786681,9.645451325826253,0.002181661564992912,0.0,-0.03381575425739013,22.25,46.5625,-58.5625
1774889736.1758235,0.0,0.0,0.0,0.07562356069442891,-1.5393236078006711,9.754016482783612,0.018544123302439753,0.018544123302439753,-0.07308566242726255,22.6875,50.25,-55.75
1774889736.4086833,-16.766244472622912,-0.709909179506153,-9.082017142541655,0.01687551779842386,-1.5194791983032263,9.826265381986468,-0.02181661564992912,0.02181661564992912,-0.1341721862470641,22.6875,50.25,-55.75
1774889736.4339163,0.0,0.0,0.0,-0.005495089953631488,-1.5564496410690465,9.947938674893908,0.003272492347489368,0.003272492347489368,-0.03599741582238305,23.6875,52.875,-50.5625
1774889736.454381,0.0,0.0,0.0,-0.005495089953631488,-1.5564496410690465,9.947938674893908,0.003272492347489368,0.003272492347489368,-0.03599741582238305,23.6875,52.875,-50.5625
1774889736.4856167,-17.18929670941623,-0.7445452978921674,-9.086326070968443,-0.020382479516561823,-1.5275312704256838,9.962008657997684,0.001090830782496456,0.007635815477475192,-0.08072147790473774,23.6875,52.875,-50.5625
1774889736.5016778,-17.32478087152898,-0.7324108858068032,-9.07459161189729,-0.013564312431056973,-1.6287104392653904,9.971372074581236,0.001090830782496456,0.025089107997418487,-0.10144726277217041,23.6875,52.875,-50.5625
1774889736.696636,-17.32478087152898,-0.7324108858068032,-9.07459161189729,-0.013564312431056973,-1.6287104392653904,9.971372074581236,0.001090830782496456,0.025089107997418487,-0.10144726277217041,23.6875,52.875,-50.5625
1774889736.720163,0.0,0.0,0.0,-0.00902689839957032,-1.5756200244193443,9.977603323721373,-0.002181661564992912,0.0,-0.061086523819801536,23.0,56.1875,-44.5625
1774889736.747935,0.0,0.0,0.0,-0.02942308199908748,-1.5503242815200518,9.864671240660343,-0.013089969389957472,0.01090830782496456,-0.19198621771937624,23.0,56.1875,-44.5625
1774889736.7608519,0.0,0.0,0.0,-0.02942308199908748,-1.5503242815200518,9.864671240660343,-0.013089969389957472,0.01090830782496456,-0.19198621771937624,23.0,56.1875,-44.5625
1774889736.7744076,-18.34042876870832,0.03934274648462078,-9.248171451383033,-0.05972207288086351,-1.5334902471925356,9.772790642380658,-0.009817477042468103,0.009817477042468103,-0.2181661564992912,23.0,56.1875,-44.5625
1774889736.7928987,-18.34042876870832,0.03934274648462078,-9.248171451383033,-0.05972207288086351,-1.5334902471925356,9.772790642380658,-0.009817477042468103,0.009817477042468103,-0.2181661564992912,23.0,56.1875,-44.5625
1774889736.977099,-18.34042876870832,0.03934274648462078,-9.248171451383033,-0.05972207288086351,-1.5334902471925356,9.772790642380658,-0.009817477042468103,0.009817477042468103,-0.2181661564992912,23.0,56.1875,-44.5625
1774889736.9998875,0.0,0.0,0.0,-0.0798857128507803,-1.5222873853960586,9.651433119867312,-0.008726646259971648,0.006544984694978736,-0.08072147790473774,21.5625,56.5625,-37.875
1774889737.0155652,0.0,0.0,0.0,-0.0798857128507803,-1.5222873853960586,9.651433119867312,-0.008726646259971648,0.006544984694978736,-0.08072147790473774,21.5625,56.5625,-37.875
1774889737.0440066,0.0,0.0,0.0,-0.06319838464226848,-1.5148320060146692,9.480353028189409,0.004363323129985824,0.014180800172453928,-0.13853550937704992,21.5625,56.5625,-37.875
1774889737.0606492,-19.202574338557117,-0.8884340384290613,-9.1026283482335,-0.042057819007215905,-1.5098705343183991,9.36650113826761,0.006544984694978736,0.015271630954950384,-0.17235126363444003,21.5625,56.5625,-37.875
1774889737.0811148,-19.202574338557117,-0.8884340384290613,-9.1026283482335,-0.042057819007215905,-1.5098705343183991,9.36650113826761,0.006544984694978736,0.015271630954950384,-0.17235126363444003,21.5625,56.5625,-37.875
1774889737.2709234,-19.202574338557117,-0.8884340384290613,-9.1026283482335,-0.042057819007215905,-1.5098705343183991,9.36650113826761,0.006544984694978736,0.015271630954950384,-0.17235126363444003,21.5625,56.5625,-37.875
1774889737.2952292,0.0,0.0,0.0,-0.02798900873268014,-1.5065687303278017,9.290733977333595,-0.006544984694978736,0.007635815477475192,-0.038179077387375956,20.1875,55.6875,-29.6875
1774889737.32757,0.0,0.0,0.0,-0.01862637265388486,-1.4943360815336681,9.46443426249705,-0.018544123302439753,0.02945243112740431,-0.1636246173744684,20.1875,55.6875,-29.6875
1774889737.3448558,-20.188430669830655,-0.9510177363350958,-9.126322872931686,-0.059227206833415855,-1.486195390408813,9.479676510694427,-0.00545415391248228,-0.002181661564992912,-0.18435040224190105,20.1875,55.6875,-29.6875
1774889737.3593812,-20.188430669830655,-0.9510177363350958,-9.126322872931686,-0.08624660843885863,-1.5075387450612552,9.590173407822293,0.002181661564992912,0.008726646259971648,-0.15489797111449674,20.1875,55.6875,-29.6875
1774889737.5657363,-20.356544878495374,-0.9783368158280241,-9.122061308141072,-0.08624660843885863,-1.5075387450612552,9.590173407822293,0.002181661564992912,0.008726646259971648,-0.15489797111449674,20.1875,55.6875,-29.6875
1774889737.5916088,0.0,0.0,0.0,-0.017254813990484355,-1.521742509161562,9.683778528773587,0.003272492347489368,0.007635815477475192,-0.05781403147231216,19.0,53.5,-22.5625
1774889737.6051066,0.0,0.0,0.0,0.028658454526066995,-1.567991184284388,9.829699483811943,0.007635815477475192,0.025089107997418487,-0.14508049407202864,19.0,53.5,-22.5625
1774889737.6245031,0.0,0.0,0.0,0.028658454526066995,-1.567991184284388,9.829699483811943,0.007635815477475192,0.025089107997418487,-0.14508049407202864,19.0,53.5,-22.5625
1774889737.6411934,-21.18151347191885,-1.0152032185860966,-9.113227413738565,0.02241699305850369,-1.5920789375324378,9.926808249346097,-0.006544984694978736,0.009817477042468103,-0.20398535632683726,19.0,53.5,-22.5625
1774889737.659897,-21.37943501495473,-1.0447250781064326,-9.109029605143405,0.01826337017353327,-1.6081090682411805,9.887734585106186,-0.002181661564992912,0.008726646259971648,-0.17780541754692233,19.0,53.5,-22.5625
1774889737.8611372,-21.37943501495473,-1.0447250781064326,-9.109029605143405,0.01826337017353327,-1.6081090682411805,9.887734585106186,-0.002181661564992912,0.008726646259971648,-0.17780541754692233,19.0,53.5,-22.5625
1774889737.8763468,0.0,0.0,0.0,0.01215406883527389,-1.588670935793681,9.828280380962761,0.001090830782496456,0.001090830782496456,-0.06435901616729091,19.0,53.5,-22.5625
1774889737.8929324,0.0,0.0,0.0,0.01215406883527389,-1.588670935793681,9.828280380962761,0.001090830782496456,0.001090830782496456,-0.06435901616729091,19.0,53.5,-22.5625
1774889737.9147294,0.0,0.0,0.0,0.008088397040029855,-1.575735075788037,9.571282011276528,0.026179938779914945,0.007635815477475192,-0.14289883250703572,19.0,53.5,-22.5625
1774889737.9298222,-22.147317737665382,-1.0921147677200158,-9.104473830438474,-0.0314134909036885,-1.49018883618896,9.400252467110237,0.001090830782496456,0.028361600344907856,-0.17780541754692233,17.5625,50.1875,-16.1875
1774889737.9517262,-22.529103473705277,-1.1404590585137044,-9.082680297183321,-0.13129401362625823,-1.4800903332523563,9.433619131114813,-0.020725784867432664,0.004363323129985824,-0.28688849579656794,17.5625,50.1875,-16.1875
1774889738.1566064,-22.529103473705277,-1.1404590585137044,-9.082680297183321,-0.13129401362625823,-1.4800903332523563,9.433619131114813,-0.020725784867432664,0.004363323129985824,-0.28688849579656794,17.5625,50.1875,-16.1875
1774889738.1731992,0.0,0.0,0.0,-0.1977633857595832,-1.4265383284532445,9.4558242732798,0.0,0.0,0.0,15.0,44.5625,-11.5
1774889738.1933854,0.0,0.0,0.0,-0.17509577625638506,-1.4377316313769972,9.447185765391673,0.008726646259971648,0.01090830782496456,-0.1461713248545251,15.0,44.5625,-11.5
1774889738.2085392,0.0,0.0,0.0,-0.17509577625638506,-1.4377316313769972,9.447185765391673,0.008726646259971648,0.01090830782496456,-0.1461713248545251,15.0,44.5625,-11.5
1774889738.2286196,-23.3835936816097,-1.2039790272228577,-9.053488763495732,-0.15666562363847675,-1.3983490855328968,9.44143693489058,-0.00545415391248228,0.016362461737446838,-0.19525871006686563,15.0,44.5625,-11.5
1774889738.253845,-23.648652246784767,-1.2165545033657097,-9.04563050311668,-0.14440056294955325,-1.4189720051079822,9.494478051435177,0.001090830782496456,0.01090830782496456,-0.14944381720201447,15.0,44.5625,-11.5
1774889738.451497,-23.648652246784767,-1.2165545033657097,-9.04563050311668,-0.14440056294955325,-1.4189720051079822,9.494478051435177,0.001090830782496456,0.01090830782496456,-0.14944381720201447,15.0,44.5625,-11.5
1774889738.4661758,0.0,0.0,0.0,-0.09609696158294723,-1.3858647638096238,9.52977632198751,0.0,0.0,0.0,14.25,39.5,-5.875
1774889738.478718,0.0,0.0,0.0,-0.017119890557582063,-1.3604871528503646,9.526506033074016,0.0,0.02945243112740431,-0.07090400086226964,14.25,39.5,-5.875
1774889738.501006,0.0,0.0,0.0,-0.01139309592436263,-1.3435986362434669,9.524329692333605,-0.026179938779914945,0.032724923474893676,-0.1189005552921137,14.25,39.5,-5.875
1774889738.5295324,-24.18326475532545,-1.1555017275070385,-9.02575329299959,-0.034342871726997876,-1.3323595170986682,9.569712925784653,-0.009817477042468103,0.00545415391248228,-0.136353847812057,14.25,39.5,-5.875
1774889738.552196,-24.18326475532545,-1.1555017275070385,-9.02575329299959,-0.034342871726997876,-1.3323595170986682,9.569712925784653,-0.009817477042468103,0.00545415391248228,-0.136353847812057,14.25,39.5,-5.875
1774889738.7313104,-24.18326475532545,-1.1555017275070385,-9.02575329299959,-0.034342871726997876,-1.3323595170986682,9.569712925784653,-0.009817477042468103,0.00545415391248228,-0.136353847812057,14.25,39.5,-5.875
1774889738.7489102,0.0,0.0,0.0,-0.07972169652373257,-1.405162689832657,9.676852529950736,-0.002181661564992912,0.0,-0.030543261909900768,13.1875,34.25,-3.0625
1774889738.7647254,0.0,0.0,0.0,-0.07972169652373257,-1.405162689832657,9.676852529950736,-0.002181661564992912,0.0,-0.030543261909900768,13.1875,34.25,-3.0625
1774889738.783326,0.0,0.0,0.0,-0.11661102092591077,-1.4904086168029131,9.67121517042712,0.02181661564992912,0.011999138607461015,-0.07417649320975901,13.1875,34.25,-3.0625
1774889738.800111,0.0,0.0,0.0,-0.11661102092591077,-1.4904086168029131,9.67121517042712,0.02181661564992912,0.011999138607461015,-0.07417649320975901,13.1875,34.25,-3.0625
1774889738.8266747,-24.802263843618512,-1.1449042612307168,-9.01117622701138,-0.13447023082016732,-1.5471388289422194,9.64404778868635,0.006544984694978736,0.014180800172453928,-0.08944812416470939,13.1875,34.25,-3.0625
1774889739.0272067,-24.802263843618512,-1.1449042612307168,-9.01117622701138,-0.13447023082016732,-1.5471388289422194,9.64404778868635,0.006544984694978736,0.014180800172453928,-0.08944812416470939,13.1875,34.25,-3.0625
1774889739.0411594,0.0,0.0,0.0,-0.08948843647991916,-1.4711583533540762,9.625968199617407,0.01090830782496456,0.006544984694978736,-0.06217735460229799,13.5,29.5625,4.0
1774889739.0574796,0.0,0.0,0.0,-0.05286333141141193,-1.4205941956076922,9.677493557493337,-0.0272707695624114,0.025089107997418487,-0.16689710972195776,13.5,29.5625,4.0
1774889739.0756192,-25.388928234601465,-1.172221638096474,-9.016365197205596,-0.015109286288273772,-1.4772623295637488,9.778685341730196,0.002181661564992912,0.02181661564992912,-0.16907877128695067,13.5,29.5625,4.0
1774889739.1036649,-25.388928234601465,-1.172221638096474,-9.016365197205596,-0.015109286288273772,-1.4772623295637488,9.778685341730196,0.002181661564992912,0.02181661564992912,-0.16907877128695067,13.5,29.5625,4.0
1774889739.11713,-25.644168194144463,-1.1381004694476167,-8.99762150102677,-0.003364837828420522,-1.5149743396869706,9.78247022131446,-0.008726646259971648,0.03599741582238305,-0.13308135546456762,13.5,29.5625,4.0
1774889739.3819497,0.0,0.0,0.0,0.004081042342966303,-1.4196588620169726,9.828961801392788,-0.002181661564992912,0.009817477042468103,-0.1090830782496456,13.5,29.5625,4.0
1774889739.4198697,-26.50835039468895,-1.1274898312483024,-9.021260139563305,-0.056178483071762035,-1.4777993346643243,9.673509854342882,-0.015271630954950384,0.03381575425739013,-0.15817046346198613,16.5,22.875,3.5625
1774889739.621473,0.0,0.0,0.0,-0.09759816366123145,-1.4986061520460667,9.612123758125797,-0.004363323129985824,0.004363323129985824,-0.04799655442984406,16.875,18.1875,1.5625
1774889739.642145,0.0,0.0,0.0,-0.09759816366123145,-1.4986061520460667,9.612123758125797,-0.004363323129985824,0.004363323129985824,-0.04799655442984406,16.875,18.1875,1.5625
1774889739.6781654,0.0,0.0,0.0,-0.1251624984053745,-1.5124528565862367,9.571271996820952,-0.02399827721492203,0.009817477042468103,-0.1908953869368798,16.875,18.1875,1.5625
1774889739.7045786,0.0,0.0,0.0,-0.1251624984053745,-1.5124528565862367,9.571271996820952,-0.02399827721492203,0.009817477042468103,-0.1908953869368798,16.875,18.1875,1.5625
1774889739.9031527,-27.443064282354584,-1.1873080283143136,-9.044427360097089,-0.0832942445320583,-1.4280045559749526,9.590917169919125,-0.007635815477475192,0.020725784867432664,-0.1461713248545251,16.875,18.1875,1.5625
1774889739.9234622,0.0,0.0,0.0,-0.11898851171747542,-1.4520878362431369,9.627406595116232,0.001090830782496456,0.003272492347489368,-0.06326818538479445,16.875,18.1875,1.5625
1774889739.9632707,0.0,0.0,0.0,-0.11898851171747542,-1.4520878362431369,9.627406595116232,0.001090830782496456,0.003272492347489368,-0.06326818538479445,16.875,18.1875,1.5625
1774889739.9943874,-28.733339333436284,-1.1546704099328324,-9.01437118220122,-0.15855076000896895,-1.4787808821794546,9.67788550321205,-0.017453292519943295,0.004363323129985824,-0.16471544815696484,18.0,14.5,-2.375
1774889740.342536,0.0,0.0,0.0,-0.08209797770669447,-1.4892240258308236,9.695318384544693,-0.019634954084936207,0.038179077387375956,-0.13962634015954636,19.0,10.75,-5.875
1774889740.3614287,0.0,0.0,0.0,-0.08209797770669447,-1.4892240258308236,9.695318384544693,-0.019634954084936207,0.038179077387375956,-0.13962634015954636,19.0,10.75,-5.875
1774889740.3969488,-29.69812930536214,-1.1457466772368627,-9.012188192579883,-0.031219505118067835,-1.5530407202976808,9.763786671357952,0.004363323129985824,0.015271630954950384,-0.15707963267948966,19.0,10.75,-5.875
1774889740.4260204,-29.98267060626693,-1.1233657358595361,-8.977703390943114,0.002639550039884468,-1.5955100175861872,9.809351551391298,0.002181661564992912,0.014180800172453928,-0.1265363707695889,19.375,10.75,-5.875
1774889740.642244,0.0,0.0,0.0,0.051933266675627934,-1.6471886424697884,9.849709805182387,0.001090830782496456,0.009817477042468103,-0.05235987755982989,19.375,10.75,-5.875
1774889740.6836967,0.0,0.0,0.0,0.051933266675627934,-1.6471886424697884,9.849709805182387,0.001090830782496456,0.009817477042468103,-0.05235987755982989,19.375,10.75,-5.875
1774889740.740381,-30.92293438297951,-1.1892892092471894,-8.992129380724842,0.10656865802918818,-1.704467380772147,9.961296403483216,0.00545415391248228,0.013089969389957472,-0.0916297857297023,21.25,8.5625,-11.875
1774889740.9495847,-30.92293438297951,-1.1892892092471894,-8.992129380724842,0.10656865802918818,-1.704467380772147,9.961296403483216,0.00545415391248228,0.013089969389957472,-0.0916297857297023,21.25,8.5625,-11.875
1774889740.9663637,0.0,0.0,0.0,0.12778715049294237,-1.6661767632194375,9.786916933255696,0.008726646259971648,0.013089969389957472,-0.05345070834232634,21.6875,8.1875,-15.875
1774889740.9859028,0.0,0.0,0.0,0.12778715049294237,-1.6661767632194375,9.786916933255696,0.008726646259971648,0.013089969389957472,-0.05345070834232634,21.6875,8.1875,-15.875
1774889741.0065482,0.0,0.0,0.0,0.14190782020147935,-1.640694784972334,9.670869343765599,-0.009817477042468103,0.026179938779914945,-0.1439896632895322,21.6875,8.1875,-15.875
1774889741.0201201,-31.56460063615591,-1.1752211473757477,-8.988779671590489,0.12119896278842016,-1.6404623716378315,9.637127421491606,-0.001090830782496456,0.001090830782496456,-0.14835298641951802,21.6875,8.1875,-15.875
1774889741.037992,-31.69008487822216,-1.1656974496376815,-8.971401896787853,0.10741744951312417,-1.6403077031599473,9.614672549140233,0.017453292519943295,0.017453292519943295,-0.12217304763960307,21.6875,8.1875,-15.875
1774889741.2375607,-31.69008487822216,-1.1656974496376815,-8.971401896787853,0.10741744951312417,-1.6403077031599473,9.614672549140233,0.017453292519943295,0.017453292519943295,-0.12217304763960307,21.6875,8.1875,-15.875
1774889741.2572803,0.0,0.0,0.0,0.07148511271945013,-1.5030551930155807,9.532826848281365,0.006544984694978736,0.002181661564992912,-0.07744898555724837,21.6875,8.1875,-15.875
1774889741.2831595,0.0,0.0,0.0,0.07148511271945013,-1.5030551930155807,9.532826848281365,0.006544984694978736,0.002181661564992912,-0.07744898555724837,21.6875,8.1875,-15.875
1774889741.3066895,-32.27879689036134,-1.183111686834334,-8.965954567108945,0.08436877275427551,-1.4117151807255033,9.478359448636175,-0.004363323129985824,0.003272492347489368,-0.13744467859455345,22.6875,7.875,-20.6875
1774889741.3388214,-32.51917961960866,-1.2144183079165747,-8.982192631361311,0.05614647580702595,-1.4813887794667053,9.549155577247241,-0.031634092692397225,0.017453292519943295,-0.15926129424448257,22.6875,7.875,-20.6875
1774889741.5185869,-32.51917961960866,-1.2144183079165747,-8.982192631361311,0.05614647580702595,-1.4813887794667053,9.549155577247241,-0.031634092692397225,0.017453292519943295,-0.15926129424448257,22.6875,7.875,-20.6875
1774889741.5447633,0.0,0.0,0.0,0.11764753342801046,-1.5277557811238807,9.639756062188482,-0.001090830782496456,0.00545415391248228,-0.04799655442984406,23.5,8.875,-23.0625
1774889741.5633917,0.0,0.0,0.0,0.09501867782387874,-1.5385418325294682,9.700049672843148,0.026179938779914945,0.01090830782496456,-0.09599310885968812,23.5,8.875,-23.0625
1774889741.5951045,0.0,0.0,0.0,0.09501867782387874,-1.5385418325294682,9.700049672843148,0.026179938779914945,0.01090830782496456,-0.09599310885968812,23.5,8.875,-23.0625
1774889741.8302393,0.0,0.0,0.0,-0.0973179212329603,-1.532687630096032,9.776912288175668,0.006544984694978736,0.01090830782496456,-0.07090400086226964,25.25,8.5625,-26.25
1774889741.8473983,0.0,0.0,0.0,-0.21529401629749645,-1.5016825824402393,9.704352704711882,-0.007635815477475192,0.020725784867432664,-0.20725784867432664,25.25,8.5625,-26.25
1774889741.9133608,-34.0294935979417,-1.288567458908229,-8.964345547903624,-0.2346295742142127,-1.49068619923278,9.798805925350594,-0.001090830782496456,0.013089969389957472,-0.24652775684419906,24.1875,7.875,-28.5625
1774889742.2003734,0.0,0.0,0.0,-0.10931179675300881,-1.470385987680151,9.78917002153755,0.0,0.006544984694978736,-0.028361600344907856,24.1875,7.875,-28.5625
1774889742.2398164,0.0,0.0,0.0,-0.1195773435488195,-1.456876423660098,9.776067211775429,-0.015271630954950384,0.017453292519943295,-0.12762720155208535,25.25,8.875,-31.375
1774889742.2732587,-35.590139020582654,-1.459878238922718,-8.915631648074104,-0.06619693953601116,-1.4177799543505967,9.743931656295477,0.001090830782496456,0.00545415391248228,-0.1439896632895322,25.25,8.875,-31.375
1774889742.4964864,0.0,0.0,0.0,-0.030672876963671193,-1.462009036615009,9.722545803101244,0.007635815477475192,0.002181661564992912,-0.00545415391248228,22.5,1.5625,-25.875
1774889742.53016,-35.87323805636046,-1.4198748491868636,-8.902577907049587,-0.007032010151559305,-1.4914429967907534,9.785251325964463,0.006544984694978736,0.006544984694978736,-0.03381575425739013,22.5,1.5625,-25.875
1774889742.5644815,-35.96844264719469,-1.4339079823883427,-8.89936271234449,-0.028095506154398018,-1.5110309684888323,9.826981150963348,0.0,-0.006544984694978736,-0.0545415391248228,22.5,1.5625,-25.875
1774889742.772727,0.0,0.0,0.0,-0.042113027449619644,-1.4973056511833678,9.764433867249794,0.0,0.0,0.0,22.5,1.5625,-25.875
1774889742.801933,0.0,0.0,0.0,-0.042113027449619644,-1.4973056511833678,9.764433867249794,0.0,0.0,0.0,22.5,1.5625,-25.875
1774889742.8381686,0.0,0.0,0.0,-0.028025749334381123,-1.3945084780334787,9.709428901808085,-0.006544984694978736,0.00545415391248228,0.019634954084936207,23.5625,0.375,-28.25
1774889742.859001,-35.939846401035474,-1.4009627287950595,-8.872439386728223,-0.011960599699258681,-1.3260981076218927,9.672823711752352,0.007635815477475192,0.008726646259971648,0.015271630954950384,23.5625,0.375,-28.25
1774889743.09878,0.0,0.0,0.0,0.035526806703948394,-1.3976506800630706,9.671879148628264,-0.004363323129985824,0.008726646259971648,0.015271630954950384,23.5625,1.1875,-31.0625
1774889743.119633,-35.79354415324239,-1.3806565704241331,-8.89169661151784,0.06712914519619534,-1.4486132294353875,9.778294127054865,-0.015271630954950384,0.003272492347489368,0.014180800172453928,23.5625,1.1875,-31.0625
1774889743.1340868,-35.79354415324239,-1.3806565704241331,-8.89169661151784,0.06712914519619534,-1.4486132294353875,9.778294127054865,-0.015271630954950384,0.003272492347489368,0.014180800172453928,23.5625,1.1875,-31.0625
1774889743.1642537,-35.74444803998214,-1.359037965814931,-8.883551112924842,0.04467369624638176,-1.4825282367536865,9.849112106464569,-0.003272492347489368,0.003272492347489368,0.03381575425739013,23.5625,1.1875,-31.0625
1774889743.3586528,0.0,0.0,0.0,0.0297298458140816,-1.4749922899026846,9.879515122136466,-0.001090830782496456,0.0,0.008726646259971648,23.5625,1.1875,-31.0625
1774889743.3870754,-35.55580840733216,-1.3068031915491092,-8.882811064201722,0.019784880285133144,-1.469977201455385,9.789359303100635,0.0,-0.006544984694978736,0.055632369907319255,24.0,1.5625,-33.75
1774889743.4249294,-35.522661086185295,-1.2728553793992798,-8.900841265406225,-0.006904053425754293,-1.49674572148179,9.689220272150944,0.0,-0.004363323129985824,0.0272707695624114,24.0,1.5625,-33.75
1774889743.4374602,-35.522661086185295,-1.2728553793992798,-8.900841265406225,-0.006904053425754293,-1.49674572148179,9.689220272150944,0.0,-0.004363323129985824,0.0272707695624114,24.0,1.5625,-33.75
1774889743.6476357,-35.522661086185295,-1.2728553793992798,-8.900841265406225,-0.006904053425754293,-1.49674572148179,9.689220272150944,0.0,-0.004363323129985824,0.0272707695624114,24.0,1.5625,-33.75
1774889743.6703134,0.0,0.0,0.0,-0.024665240675425675,-1.5145598725354013,9.662720206168029,-0.002181661564992912,-0.003272492347489368,0.025089107997418487,23.1875,2.6875,-36.1875
1774889743.6895077,-35.154099037327974,-1.266190466976315,-8.927024022211086,-0.0030339953114264726,-1.4929638739912794,9.718677165842559,-0.011999138607461015,-0.01090830782496456,0.09926560120717749,23.1875,2.6875,-36.1875
1774889743.7209334,-34.930631790725215,-1.2179328050646991,-8.902743818462142,0.011361356841471543,-1.425070190886167,9.775986567669678,-0.014180800172453928,-0.004363323129985824,0.14835298641951802,23.1875,2.6875,-36.1875
1774889743.939118,0.0,0.0,0.0,0.024286414599924498,-1.3798877032018488,9.81412533439766,-0.006544984694978736,-0.00545415391248228,0.10362892433716332,23.1875,2.6875,-36.1875
1774889743.9579144,0.0,0.0,0.0,0.0395781195704582,-1.3966508262718647,9.839506257617193,-0.01090830782496456,-0.018544123302439753,0.22143864884678055,23.1875,2.6875,-36.1875
1774889743.9928565,-33.74835943709005,-1.1272665262134647,-8.943734509570593,0.04975457840881128,-1.4412576144918,9.836326308252387,-0.002181661564992912,-0.0272707695624114,0.22143864884678055,22.5,3.0625,-39.0
1774889744.011478,-33.74835943709005,-1.1272665262134647,-8.943734509570593,0.04975457840881128,-1.4412576144918,9.836326308252387,-0.002181661564992912,-0.0272707695624114,0.22143864884678055,22.5,3.0625,-39.0
1774889744.2394643,0.0,0.0,0.0,0.006350222477450727,-1.4709429337616928,9.834210087472469,0.013089969389957472,-0.013089969389957472,0.17998707911191522,20.25,4.0625,-41.0
1774889744.2576616,0.0,0.0,0.0,-0.022534891536444654,-1.494043293836382,9.83280176618317,-0.004363323129985824,-0.017453292519943295,0.17235126363444003,20.25,4.0625,-41.0
1774889744.342883,-32.488128801130316,-1.0413674837788482,-8.973580174382803,-0.0445147830224361,-1.524099175155564,9.831240833268312,-0.011999138607461015,-0.018544123302439753,0.15162547876700738,20.25,4.5,-42.5625
1774889744.532559,0.0,0.0,0.0,-0.046349649375319706,-1.5361084021045186,9.874312212874198,0.003272492347489368,-0.002181661564992912,0.030543261909900768,20.25,4.5,-42.5625
1774889744.5472758,0.0,0.0,0.0,-0.047570732436363575,-1.5307199616579152,9.906320846570399,0.003272492347489368,-0.004363323129985824,0.05890486225480862,20.25,4.5,-42.5625
1774889744.576826,0.0,0.0,0.0,-0.047570732436363575,-1.5307199616579152,9.906320846570399,0.003272492347489368,-0.004363323129985824,0.05890486225480862,20.25,4.5,-42.5625
1774889744.640489,-32.068784966887534,-0.9843363094328672,-8.969647704201757,-0.02496756762186103,-1.5271340147335246,9.927622234735354,-0.004363323129985824,-0.004363323129985824,0.04036073895236887,19.5625,5.5625,-43.75
1774889744.8151224,0.0,0.0,0.0,-0.05341186612685668,-1.5247476071129944,9.941798070607035,0.007635815477475192,0.001090830782496456,0.008726646259971648,18.875,6.6875,-46.0625
1774889744.8409774,0.0,0.0,0.0,-0.03554500025778429,-1.5164692560848125,9.911090590537343,0.006544984694978736,0.003272492347489368,0.018544123302439753,18.875,6.6875,-46.0625
1774889744.8675914,0.0,0.0,0.0,-0.03554500025778429,-1.5164692560848125,9.911090590537343,0.006544984694978736,0.003272492347489368,0.018544123302439753,18.875,6.6875,-46.0625
1774889744.8918228,-31.854634577834638,-0.9154926244869611,-8.942492580314266,-0.023654800607885815,-1.5109601059507978,9.90069044069795,0.00545415391248228,-0.00545415391248228,0.032724923474893676,18.875,6.6875,-46.0625
1774889745.1187456,0.0,0.0,0.0,0.0006663635098622007,-1.4881284025718142,9.685123292671914,-0.004363323129985824,-0.002181661564992912,0.011999138607461015,16.1875,6.6875,-49.0
1774889745.1389048,0.0,0.0,0.0,0.0006663635098622007,-1.4881284025718142,9.685123292671914,-0.004363323129985824,-0.002181661564992912,0.011999138607461015,16.1875,6.6875,-49.0
1774889745.1727822,0.0,0.0,0.0,-0.026317436186509915,-1.475374025989378,9.552950137456774,-0.001090830782496456,-0.011999138607461015,0.016362461737446838,16.1875,6.6875,-49.0
1774889745.2110438,-31.64607603689988,-0.8703366012770621,-8.94486073843857,-0.04427485345565248,-1.486956801093405,9.672387304985786,-0.001090830782496456,-0.002181661564992912,0.022907446432425576,15.875,8.1875,-48.5625
1774889745.5797825,-31.559733408030322,-0.8539546723627255,-8.962706175366765,-0.05288020234345285,-1.5113905670736558,9.785322522848956,-0.00545415391248228,0.002181661564992912,0.003272492347489368,14.375,7.0625,-50.875
1774889745.8155146,0.0,0.0,0.0,-0.05860696590023833,-1.5276509653904629,9.827028531694657,-0.00545415391248228,0.00545415391248228,-0.10362892433716332,13.6875,8.1875,-53.6875
1774889745.8972654,-31.981283331893742,-0.8887819930364036,-8.966609739402484,-0.0624180630751385,-1.4615345095614014,9.804606739085035,0.00545415391248228,0.007635815477475192,-0.07090400086226964,13.6875,8.1875,-53.6875
1774889746.1223757,-31.981283331893742,-0.8887819930364036,-8.966609739402484,-0.0624180630751385,-1.4615345095614014,9.804606739085035,0.00545415391248228,0.007635815477475192,-0.07090400086226964,13.6875,8.1875,-53.6875
1774889746.1439362,0.0,0.0,0.0,-0.048228747135692716,-1.4175347467763657,9.789685286571165,-0.001090830782496456,0.0,-0.037088246604879506,14.375,8.1875,-54.5
1774889746.167534,0.0,0.0,0.0,-0.005334798809842459,-1.38825339615248,9.813206343679925,0.011999138607461015,0.02181661564992912,-0.08508480103472356,14.375,8.1875,-54.5
1774889746.1865351,-32.66593843199525,-0.8982771106004229,-8.959097462078727,0.023210644644212363,-1.38214743123568,9.828859344438381,-0.00545415391248228,0.018544123302439753,-0.11453723216212788,14.375,8.1875,-54.5
1774889746.4474514,-32.66593843199525,-0.8982771106004229,-8.959097462078727,0.023210644644212363,-1.38214743123568,9.828859344438381,-0.00545415391248228,0.018544123302439753,-0.11453723216212788,14.375,8.1875,-54.5
1774889746.4811978,0.0,0.0,0.0,0.01544642473083389,-1.378083979791647,9.755648448904674,0.008726646259971648,0.013089969389957472,-0.044724062082354694,16.1875,8.1875,-54.0625
1774889746.524603,-33.38965372348857,-0.9212460903779159,-8.963607720623763,0.01027942311049988,-1.445627144101077,9.676821410380406,0.003272492347489368,0.015271630954950384,-0.08944812416470939,16.1875,8.1875,-54.0625
1774889746.7370517,0.0,0.0,0.0,0.006840841251357621,-0.9620487156859572,8.004265556720714,-0.002181661564992912,0.001090830782496456,-0.061086523819801536,18.875,9.25,-52.875
1774889746.7653778,0.0,0.0,0.0,0.006840841251357621,-0.9620487156859572,8.004265556720714,-0.002181661564992912,0.001090830782496456,-0.061086523819801536,18.875,9.25,-52.875
1774889746.7987247,0.0,0.0,0.0,0.004552503435574645,-1.1252738710620005,8.467809207665638,-0.002181661564992912,0.020725784867432664,-0.11126473981463851,18.875,9.25,-52.875
1774889746.8153377,-34.013417112059635,-0.8995801295523599,-8.943119888143586,-0.003660583233059369,-1.2272081652056623,8.77629232924762,-0.009817477042468103,0.03381575425739013,-0.12544553998709243,18.875,9.25,-52.875
1774889746.8340805,-34.137417497121234,-0.9200207670198858,-8.953707662530174,-0.029196970908762044,-1.3017345226922328,9.025070852873322,-0.019634954084936207,0.003272492347489368,-0.12762720155208535,18.875,9.25,-52.875
1774889747.032234,-34.137417497121234,-0.9200207670198858,-8.953707662530174,-0.029196970908762044,-1.3017345226922328,9.025070852873322,-0.019634954084936207,0.003272492347489368,-0.12762720155208535,18.875,9.25,-52.875
1774889747.0608346,0.0,0.0,0.0,-0.04619115164680078,-1.4617196674271233,9.301018867649566,-0.001090830782496456,0.001090830782496456,-0.04799655442984406,20.0625,9.375,-49.6875
1774889747.082377,0.0,0.0,0.0,-0.04619115164680078,-1.4617196674271233,9.301018867649566,-0.001090830782496456,0.001090830782496456,-0.04799655442984406,20.0625,9.375,-49.6875
1774889747.1154613,0.0,0.0,0.0,-0.030739695431972948,-1.568187994097027,9.484659188941855,-0.014180800172453928,0.009817477042468103,-0.11562806294462433,20.0625,9.375,-49.6875
1774889747.1308334,-34.80203026409373,-0.9821750901005948,-9.00389550547774,-0.02045692392508046,-1.5922099122642392,9.650356223560223,-0.014180800172453928,0.016362461737446838,-0.11126473981463851,20.0625,9.375,-49.6875
1774889747.3275363,0.0,0.0,0.0,-0.013613854353327594,-1.5948157836328332,9.76062574914159,0.004363323129985824,0.003272492347489368,-0.037088246604879506,20.0625,9.375,-49.6875
1774889747.3509948,0.0,0.0,0.0,-0.013613854353327594,-1.5948157836328332,9.76062574914159,0.004363323129985824,0.003272492347489368,-0.037088246604879506,20.0625,9.375,-49.6875
1774889747.412964,-35.54752664555287,-0.9694293893196148,-9.027739984382707,-0.00602924094559649,-1.5040409103916967,9.725624294632306,-0.002181661564992912,0.039269908169872414,-0.13744467859455345,23.375,9.0,-47.6875
1774889747.7325635,0.0,0.0,0.0,-0.004012392498260069,-1.4424771699939984,9.653495559396605,0.016362461737446838,0.022907446432425576,-0.1090830782496456,24.875,7.1875,-45.75
1774889748.0018744,-36.18812131836394,-0.9561005278681934,-8.961571486298832,-0.07960777165457686,-1.4015071884713715,9.685777372803678,0.006544984694978736,0.011999138607461015,-0.1090830782496456,24.875,7.1875,-45.75
1774889748.045826,-36.65769318382151,-0.9797201310766734,-8.917428257513418,-0.04086302843241915,-1.3470629694016154,9.827411056897745,0.013089969389957472,0.013089969389957472,-0.09053895494720585,26.6875,7.875,-44.0625
1774889748.3955605,0.0,0.0,0.0,-0.03481096786538718,-1.3041292920025915,9.834424667016116,0.004363323129985824,0.006544984694978736,-0.032724923474893676,29.6875,7.875,-43.25
1774889748.4357853,-37.26068806355892,-1.0218261333884788,-8.83261757142088,0.0035945834081304445,-1.2927126625785526,9.816219007935858,0.014180800172453928,0.01090830782496456,-0.04363323129985824,29.6875,7.875,-43.25
1774889748.7208905,0.0,0.0,0.0,0.0026754697539793405,-1.207632678757476,9.846181722601678,-0.001090830782496456,0.007635815477475192,-0.009817477042468103,29.6875,7.875,-43.25
1774889748.798577,-37.555674128634,-1.0287607394508083,-8.783477918960603,-0.021635286716917865,-1.248565914645644,9.85414920245901,0.00545415391248228,0.007635815477475192,-0.031634092692397225,31.1875,8.5625,-42.875
1774889749.0487242,-37.555674128634,-1.0287607394508083,-8.783477918960603,-0.021635286716917865,-1.248565914645644,9.85414920245901,0.00545415391248228,0.007635815477475192,-0.031634092692397225,31.1875,8.5625,-42.875
1774889749.0844898,-37.881365109313386,-1.0225310357083703,-8.754018228666334,-0.034092855065502595,-1.4008956830337154,9.78718511993705,0.002181661564992912,0.004363323129985824,-0.04908738521234052,31.5,7.5,-41.75
1774889749.1211305,-37.881365109313386,-1.0225310357083703,-8.754018228666334,-0.034092855065502595,-1.4008956830337154,9.78718511993705,0.002181661564992912,0.004363323129985824,-0.04908738521234052,31.5,7.5,-41.75
1774889749.386465,0.0,0.0,0.0,-0.015098886206533567,-1.458335272251418,9.726362493683606,0.001090830782496456,0.003272492347489368,-0.039269908169872414,30.375,9.0,-42.5625
