timestamp,yaw,pitch,roll,ax,ay,az,gx,gy,gz,mx,my,mz
1772911089.271082,-0.05553705665841541,0.7042243216949083,-9.018245722348421,-0.1197330728613932,-1.5397935028814094,9.76464053009682,-0.001090830782496456,0.001090830782496456,0.002181661564992912,12.25,57.6875,-14.875
1772911089.4370754,0.0,0.0,0.0,-0.12316747467834807,-1.5398625784743019,9.769778444355955,-0.001090830782496456,0.001090830782496456,0.002181661564992912,10.5,56.375,-16.5
1772911089.462821,0.0,0.0,0.0,-0.12316747467834807,-1.5398625784743019,9.769778444355955,-0.001090830782496456,0.001090830782496456,0.002181661564992912,10.5,56.375,-16.5
1772911089.5141666,-148.57102877042425,-17.648313514072083,-8.360724690183513,-0.12545303072274946,-1.539908547509747,9.75312699865723,0.00545415391248228,-0.002181661564992912,-0.014180800172453928,10.5,56.375,-16.5
1772911089.5536373,13.086834894164813,0.6975635351095644,-9.018477037189044,-0.12028381932432593,-1.5399391393893278,9.732010312431607,-0.004363323129985824,-0.009817477042468103,0.009817477042468103,12.25,58.5,-14.0625
1772911089.5773983,13.086834894164813,0.6975635351095644,-9.018477037189044,-0.12028381932432593,-1.5399391393893278,9.732010312431607,-0.004363323129985824,-0.009817477042468103,0.009817477042468103,12.25,58.5,-14.0625
1772911089.6057312,13.086834894164813,0.6975635351095644,-9.018477037189044,-0.13022421371182746,-1.5700655033093298,9.717957393637295,-0.003272492347489368,0.00545415391248228,0.001090830782496456,12.25,58.5,-14.0625
1772911089.6309035,13.086834894164813,0.6975635351095644,-9.018477037189044,-0.12345898830595115,-1.560008256598681,9.718640668283028,0.004363323129985824,0.004363323129985824,-0.003272492347489368,13.0,58.875,-13.6875
1772911089.6607456,13.086834894164813,0.6975635351095644,-9.018477037189044,-0.1323372532001375,-1.5700408297961481,9.739166050171,-0.004363323129985824,-0.004363323129985824,0.009817477042468103,13.0,58.875,-13.6875
1772911089.6870196,13.086834894164813,0.6975635351095644,-9.018477037189044,-0.1323372532001375,-1.5700408297961481,9.739166050171,-0.004363323129985824,-0.004363323129985824,0.009817477042468103,13.0,58.875,-13.6875
1772911089.7214167,13.064963902538183,0.702837261842896,-9.017623180631324,-0.12821030418854315,-1.5767173951878766,9.752825462533908,0.001090830782496456,0.004363323129985824,-0.00545415391248228,12.25,57.75,-14.0625
1772911089.7545059,13.064963902538183,0.702837261842896,-9.017623180631324,-0.12880897742968764,-1.5811605748739497,9.761915648875789,-0.003272492347489368,0.001090830782496456,0.004363323129985824,12.25,57.75,-14.0625
1772911089.8124077,13.064963902538183,0.702837261842896,-9.017623180631324,-0.12586227607673162,-1.5908076847361008,9.761274842927637,0.001090830782496456,0.002181661564992912,-0.002181661564992912,11.5625,58.1875,-13.6875
1772911089.8435893,13.064963902538183,0.702837261842896,-9.017623180631324,-0.12586227607673162,-1.5908076847361008,9.761274842927637,0.001090830782496456,0.002181661564992912,-0.002181661564992912,11.5625,58.1875,-13.6875
1772911089.8771513,13.064963902538183,0.702837261842896,-9.017623180631324,-0.12724639095046966,-1.5671217232182098,9.774228840556692,0.002181661564992912,0.003272492347489368,0.0,11.5625,58.1875,-13.6875
1772911089.9137871,13.064963902538183,0.702837261842896,-9.017623180631324,-0.12724639095046966,-1.5671217232182098,9.774228840556692,0.002181661564992912,0.003272492347489368,0.0,11.5625,58.1875,-13.6875
1772911089.9347937,13.064963902538183,0.702837261842896,-9.017623180631324,-0.12482239223004674,-1.5714296506614964,9.772814246151233,-0.001090830782496456,0.001090830782496456,0.002181661564992912,13.0,58.1875,-13.75
1772911089.9672077,13.064963902538183,0.702837261842896,-9.017623180631324,-0.12655435986676458,-1.5609160814230234,9.778563072791096,0.002181661564992912,0.002181661564992912,-0.001090830782496456,13.0,58.1875,-13.75
1772911089.9913702,13.064963902538183,0.702837261842896,-9.017623180631324,-0.12655435986676458,-1.5609160814230234,9.778563072791096,0.002181661564992912,0.002181661564992912,-0.001090830782496456,13.0,58.1875,-13.75
1772911090.0127125,13.064963902538183,0.702837261842896,-9.017623180631324,-0.12436185327433473,-1.5539194185390832,9.775698629286683,-0.001090830782496456,0.0,0.001090830782496456,12.5625,58.5,-13.25
1772911090.0335145,13.064963902538183,0.702837261842896,-9.017623180631324,-0.12193175743457803,-1.5528547912156907,9.776976051569285,0.0,0.003272492347489368,-0.002181661564992912,12.5625,58.5,-13.25
1772911090.0629146,13.064963902538183,0.702837261842896,-9.017623180631324,-0.1212855629935672,-1.555244943371254,9.781332707806396,0.0,0.001090830782496456,-0.002181661564992912,11.875,58.1875,-14.0625
1772911090.0854826,13.064963902538183,0.702837261842896,-9.017623180631324,-0.1212855629935672,-1.555244943371254,9.781332707806396,0.0,0.001090830782496456,-0.002181661564992912,11.875,58.1875,-14.0625
1772911090.1063287,13.064963902538183,0.702837261842896,-9.017623180631324,-0.12085552781153938,-1.5434551161017551,9.777541790450515,0.0,0.001090830782496456,0.002181661564992912,11.875,58.1875,-14.0625
1772911090.124254,13.064963902538183,0.702837261842896,-9.017623180631324,-0.1205693442017076,-1.5356091177549034,9.775018977297497,-0.001090830782496456,-0.001090830782496456,0.003272492347489368,11.875,58.1875,-14.0625
1772911090.1424673,13.064963902538183,0.702837261842896,-9.017623180631324,-0.1205693442017076,-1.5356091177549034,9.775018977297497,-0.001090830782496456,-0.001090830782496456,0.003272492347489368,11.875,58.1875,-14.0625
1772911090.1683412,13.064963902538183,0.702837261842896,-9.017623180631324,-0.12037889220624495,-1.5471132520372148,9.773340073325834,0.0,0.001090830782496456,0.0,11.5625,57.75,-14.5
1772911090.188334,13.064963902538183,0.702837261842896,-9.017623180631324,-0.12025214853075275,-1.5547691248924929,9.76887766977996,0.0,0.002181661564992912,0.0,11.5625,57.75,-14.5
1772911090.2105832,13.064963902538183,0.702837261842896,-9.017623180631324,-0.12025214853075275,-1.5547691248924929,9.76887766977996,0.0,0.002181661564992912,0.0,11.5625,57.75,-14.5
1772911090.2266922,13.064963902538183,0.702837261842896,-9.017623180631324,-0.11682269032321292,-1.5531737993413384,9.762562878361175,-0.001090830782496456,-0.002181661564992912,0.002181661564992912,13.0,57.875,-14.5
1772911090.2438056,13.064963902538183,0.702837261842896,-9.017623180631324,-0.11682269032321292,-1.5531737993413384,9.762562878361175,-0.001090830782496456,-0.002181661564992912,0.002181661564992912,13.0,57.875,-14.5
1772911090.277121,13.064963902538183,0.702837261842896,-9.017623180631324,-0.1145404241956535,-1.552112128007999,9.758360455212815,0.0,0.002181661564992912,0.001090830782496456,13.0,57.875,-14.5
1772911090.3097396,13.064963902538183,0.702837261842896,-9.017623180631324,-0.1145404241956535,-1.552112128007999,9.758360455212815,0.0,0.002181661564992912,0.001090830782496456,13.0,57.875,-14.5
1772911090.326705,13.064963902538183,0.702837261842896,-9.017623180631324,-0.11302160158234582,-1.554750709302627,9.755563789551724,-0.001090830782496456,0.001090830782496456,0.001090830782496456,12.0,57.75,-14.875
1772911090.3436403,13.064963902538183,0.702837261842896,-9.017623180631324,-0.11870106551418862,-1.5565066556793175,9.75035752808775,0.0,-0.001090830782496456,0.0,12.0,57.75,-14.875
1772911090.3624647,13.064963902538183,0.702837261842896,-9.017623180631324,-0.11870106551418862,-1.5565066556793175,9.75035752808775,0.0,-0.001090830782496456,0.0,12.0,57.75,-14.875
1772911090.3830152,13.064963902538183,0.702837261842896,-9.017623180631324,-0.12248068531706086,-1.5576752183777987,9.753583042655867,0.0,-0.001090830782496456,0.0,12.0,57.75,-14.875
1772911090.4067261,13.064963902538183,0.702837261842896,-9.017623180631324,-0.12499598007475268,-1.5551077720926179,9.762419809984229,0.0,0.0,-0.001090830782496456,12.5625,58.1875,-14.0625
1772911090.4259152,13.064963902538183,0.702837261842896,-9.017623180631324,-0.12499598007475268,-1.5551077720926179,9.762419809984229,0.0,0.0,-0.001090830782496456,12.5625,58.1875,-14.0625
1772911090.4577613,13.064963902538183,0.702837261842896,-9.017623180631324,-0.12332476893099373,-1.5533991652700843,9.768300579928093,-0.002181661564992912,0.002181661564992912,0.001090830782496456,12.5625,58.1875,-14.0625
1772911090.477656,13.064963902538183,0.702837261842896,-9.017623180631324,-0.12221259658347385,-1.552262106516077,9.765523943218593,0.0,0.001090830782496456,-0.002181661564992912,13.375,57.875,-13.0
1772911090.5052106,13.064963902538183,0.702837261842896,-9.017623180631324,-0.12147245830997852,-1.5515054066170637,9.763676122505485,0.0,0.001090830782496456,0.0,13.375,57.875,-13.0
1772911090.5185542,13.064963902538183,0.702837261842896,-9.017623180631324,-0.12147245830997852,-1.5515054066170637,9.763676122505485,0.0,0.001090830782496456,0.0,13.375,57.875,-13.0
1772911090.530432,13.064963902538183,0.702837261842896,-9.017623180631324,-0.12097990455685363,-1.5543469429944816,9.762446418462421,-0.001090830782496456,-0.001090830782496456,-0.001090830782496456,13.375,57.875,-13.0
1772911090.5500903,13.064963902538183,0.702837261842896,-9.017623180631324,-0.12065211553633497,-1.5595830654189313,9.761628064158456,-0.001090830782496456,0.001090830782496456,-0.001090830782496456,13.0,58.5,-15.6875
1772911090.5724227,13.064963902538183,0.702837261842896,-9.017623180631324,-0.12377908731214246,-1.5630676464010826,9.757738346803466,-0.001090830782496456,0.002181661564992912,0.0,13.0,58.5,-15.6875
1772911090.6038134,13.064963902538183,0.702837261842896,-9.017623180631324,-0.12377908731214246,-1.5630676464010826,9.757738346803466,-0.001090830782496456,0.002181661564992912,0.0,13.0,58.5,-15.6875
1772911090.6216767,13.064963902538183,0.702837261842896,-9.017623180631324,-0.12586005209837886,-1.5653865961193842,9.758494895062029,-0.001090830782496456,0.002181661564992912,-0.001090830782496456,12.25,57.5,-15.0
1772911090.6420527,13.064963902538183,0.702837261842896,-9.017623180631324,-0.1238997992104,-1.5568944961305902,9.758998369476904,-0.001090830782496456,0.004363323129985824,0.0,12.25,57.5,-15.0
1772911090.6581132,13.064963902538183,0.702837261842896,-9.017623180631324,-0.1238997992104,-1.5568944961305902,9.758998369476904,-0.001090830782496456,0.004363323129985824,0.0,12.25,57.5,-15.0
1772911090.6763113,13.064963902538183,0.702837261842896,-9.017623180631324,-0.12259527281090961,-1.5512430984510202,9.762678537783145,0.0,0.002181661564992912,0.0,12.25,57.5,-15.0
1772911090.6938958,13.064963902538183,0.702837261842896,-9.017623180631324,-0.12259527281090961,-1.5512430984510202,9.762678537783145,0.0,0.002181661564992912,0.0,12.25,57.5,-15.0
1772911090.7147343,13.064963902538183,0.702837261842896,-9.017623180631324,-0.12172712506456347,-1.547482156425515,9.761782536973456,0.001090830782496456,-0.001090830782496456,-0.001090830782496456,12.5625,58.1875,-14.5
1772911090.7297475,13.064963902538183,0.702837261842896,-9.017623180631324,-0.12172712506456347,-1.547482156425515,9.761782536973456,0.001090830782496456,-0.001090830782496456,-0.001090830782496456,12.5625,58.1875,-14.5
1772911090.76218,13.064963902538183,0.702837261842896,-9.017623180631324,-0.12114938243721587,-1.5449792915200165,9.761186258443592,0.001090830782496456,0.001090830782496456,-0.001090830782496456,12.5625,58.1875,-14.5
1772911090.7799969,13.064963902538183,0.702837261842896,-9.017623180631324,-0.12076490117252406,-1.54331366288424,9.760789441742835,0.0,-0.001090830782496456,-0.001090830782496456,12.5625,58.1875,-14.5
1772911090.811421,13.064963902538183,0.702837261842896,-9.017623180631324,-0.1205090331858088,-1.5488954290480608,9.760525364661214,-0.002181661564992912,0.001090830782496456,-0.001090830782496456,12.0,57.75,-13.6875
1772911090.8229675,13.064963902538183,0.702837261842896,-9.017623180631324,-0.1205090331858088,-1.5488954290480608,9.760525364661214,-0.002181661564992912,0.001090830782496456,-0.001090830782496456,12.0,57.75,-13.6875
1772911090.8392048,13.064963902538183,0.702837261842896,-9.017623180631324,-0.12033875589888249,-1.55261003207767,9.76369473602065,-0.002181661564992912,-0.002181661564992912,0.001090830782496456,12.0,57.75,-13.6875
1772911090.8554633,13.064963902538183,0.702837261842896,-9.017623180631324,-0.12022543826655495,-1.5483918354844013,9.762458805548837,0.0,0.001090830782496456,0.001090830782496456,12.0,57.75,-13.6875
1772911090.8783212,13.064963902538183,0.702837261842896,-9.017623180631324,-0.12022543826655495,-1.5483918354844013,9.762458805548837,0.0,0.001090830782496456,0.001090830782496456,12.0,57.75,-13.6875
1772911090.899726,13.064963902538183,0.702837261842896,-9.017623180631324,-0.12015002664808187,-1.5455846727719245,9.764981419333413,-0.001090830782496456,-0.002181661564992912,0.003272492347489368,12.0,58.875,-13.0
1772911090.9276183,13.064963902538183,0.702837261842896,-9.017623180631324,-0.12015002664808187,-1.5455846727719245,9.764981419333413,-0.001090830782496456,-0.002181661564992912,0.003272492347489368,12.0,58.875,-13.0
1772911090.94316,13.064963902538183,0.702837261842896,-9.017623180631324,-0.12009984105839101,-1.550406760759472,9.763315078920286,-0.001090830782496456,-0.001090830782496456,0.001090830782496456,12.0,58.875,-13.0
1772911090.9714408,13.064963902538183,0.702837261842896,-9.017623180631324,-0.12009984105839101,-1.550406760759472,9.763315078920286,-0.001090830782496456,-0.001090830782496456,0.001090830782496456,12.0,58.875,-13.0
1772911090.9924378,13.064963902538183,0.702837261842896,-9.017623180631324,-0.12006644310906152,-1.5536158064489327,9.762206147989593,-0.001090830782496456,-0.002181661564992912,0.001090830782496456,12.5625,57.875,-15.0
1772911091.0149457,13.064963902538183,0.702837261842896,-9.017623180631324,-0.1166991054395429,-1.5557513905078795,9.761468166842786,0.0,0.001090830782496456,0.001090830782496456,12.5625,57.875,-15.0
1772911091.0293417,13.064963902538183,0.702837261842896,-9.017623180631324,-0.1144581798361047,-1.560517709550391,9.757631936926057,-0.001090830782496456,-0.002181661564992912,0.001090830782496456,12.5625,57.875,-15.0
1772911091.0461745,13.064963902538183,0.702837261842896,-9.017623180631324,-0.1144581798361047,-1.560517709550391,9.757631936926057,-0.001090830782496456,-0.002181661564992912,0.001090830782496456,12.5625,57.875,-15.0
1772911091.0595613,13.064963902538183,0.702837261842896,-9.017623180631324,-0.1129668688797958,-1.56368964162991,9.765114303891927,-0.002181661564992912,-0.002181661564992912,0.0,12.25,57.5,-14.0625
1772911091.0810947,13.064963902538183,0.702837261842896,-9.017623180631324,-0.1129668688797958,-1.56368964162991,9.765114303891927,-0.002181661564992912,-0.002181661564992912,0.0,12.25,57.5,-14.0625
1772911091.0967176,13.064963902538183,0.702837261842896,-9.017623180631324,-0.11197441809740716,-1.565800526996027,9.766748623816879,-0.002181661564992912,-0.002181661564992912,0.001090830782496456,12.25,57.5,-14.0625
1772911091.122654,13.064963902538183,0.702837261842896,-9.017623180631324,-0.11197441809740716,-1.565800526996027,9.766748623816879,-0.002181661564992912,-0.002181661564992912,0.001090830782496456,12.25,57.5,-14.0625
1772911091.1459439,13.064963902538183,0.702837261842896,-9.017623180631324,-0.11131395318812916,-1.5638601859197236,9.767836245470384,0.0,-0.001090830782496456,-0.002181661564992912,12.25,58.1875,-13.25
1772911091.1600943,13.064963902538183,0.702837261842896,-9.017623180631324,-0.11131395318812916,-1.5638601859197236,9.767836245470384,0.0,-0.001090830782496456,-0.002181661564992912,12.25,58.1875,-13.25
1772911091.1810226,13.064963902538183,0.702837261842896,-9.017623180631324,-0.1108744211688811,-1.5659140223157932,9.765214933823943,-0.001090830782496456,0.0,0.0,12.25,58.1875,-13.25
1772911091.1952791,13.064963902538183,0.702837261842896,-9.017623180631324,-0.11058191751996589,-1.5639357157872025,9.763470480205205,0.0,-0.001090830782496456,0.001090830782496456,12.25,58.1875,-13.25
1772911091.235733,13.064963902538183,0.702837261842896,-9.017623180631324,-0.11038725960909268,-1.5626191748915572,9.76230956580876,-0.002181661564992912,0.001090830782496456,0.001090830782496456,12.0,57.75,-14.5
1772911091.2502825,13.064963902538183,0.702837261842896,-9.017623180631324,-0.1102577169438779,-1.5583979199249114,9.761536990246189,0.0,0.0,0.001090830782496456,12.0,57.75,-14.5
1772911091.262091,13.064963902538183,0.702837261842896,-9.017623180631324,-0.1102577169438779,-1.5583979199249114,9.761536990246189,0.0,0.0,0.001090830782496456,12.0,57.75,-14.5
1772911091.2845764,13.064963902538183,0.702837261842896,-9.017623180631324,-0.11351661945458323,-1.552243610191797,9.761022849839533,0.001090830782496456,0.0,-0.002181661564992912,12.0,57.75,-14.5
1772911091.298156,13.064963902538183,0.702837261842896,-9.017623180631324,-0.11568538267113126,-1.5481479858125535,9.760680695142227,-0.002181661564992912,-0.002181661564992912,0.001090830782496456,11.5625,58.875,-14.5
1772911091.32422,13.064963902538183,0.702837261842896,-9.017623180631324,-0.11568538267113126,-1.5481479858125535,9.760680695142227,-0.002181661564992912,-0.002181661564992912,0.001090830782496456,11.5625,58.875,-14.5
1772911091.3451912,13.064963902538183,0.702837261842896,-9.017623180631324,-0.11712867036507145,-1.5487675052466083,9.760452995013289,0.001090830782496456,0.0,-0.001090830782496456,11.5625,58.875,-14.5
1772911091.3610046,13.064963902538183,0.702837261842896,-9.017623180631324,-0.11474405049548933,-1.5525249002168058,9.760301463121058,-0.001090830782496456,0.0,0.0,11.5625,58.875,-14.5
1772911091.3773136,13.064963902538183,0.702837261842896,-9.017623180631324,-0.11474405049548933,-1.5525249002168058,9.760301463121058,-0.001090830782496456,0.0,0.0,11.5625,58.875,-14.5
1772911091.4046974,13.064963902538183,0.702837261842896,-9.017623180631324,-0.11315711261023176,-1.55502540459662,9.7602006203395,-0.002181661564992912,-0.001090830782496456,0.0,12.25,57.75,-14.5
1772911091.419195,-13.259561445886424,1.3603941402359263,9.11565022880072,-0.11210102317485057,-1.5566894623289225,9.76013351059486,0.001090830782496456,-0.001090830782496456,0.001090830782496456,12.25,57.75,-14.5
1772911091.4325342,-13.259561445886424,1.3603941402359263,9.11565022880072,-0.11210102317485057,-1.5566894623289225,9.76013351059486,0.001090830782496456,-0.001090830782496456,0.001090830782496456,12.25,57.75,-14.5
1772911091.4493637,13.064963902538183,0.702837261842896,-9.017623180631324,-0.11139820745289637,-1.5577968741610269,9.760088849809469,-0.001090830782496456,0.0,-0.001090830782496456,12.25,57.75,-14.5
1772911091.4632638,13.064963902538183,0.702837261842896,-9.017623180631324,-0.11139820745289637,-1.5577968741610269,9.760088849809469,-0.001090830782496456,0.0,-0.001090830782496456,12.25,57.75,-14.5
1772911091.479549,13.064963902538183,0.702837261842896,-9.017623180631324,-0.11139820745289637,-1.5577968741610269,9.760088849809469,-0.001090830782496456,0.0,-0.001090830782496456,12.25,57.75,-14.5
1772911091.4950898,13.064963902538183,0.702837261842896,-9.017623180631324,-0.11093049144090189,-1.5585338443646917,9.760059128555683,0.0,0.0,0.0,11.875,58.1875,-13.75
1772911091.5218627,13.064963902538183,0.702837261842896,-9.017623180631324,-0.11061923165964975,-1.5556791780954144,9.760039349393297,-0.002181661564992912,-0.002181661564992912,0.001090830782496456,11.875,58.1875,-13.75
1772911091.535552,13.064963902538183,0.702837261842896,-9.017623180631324,-0.11041209175222604,-1.5537794295819223,9.760026186581678,0.0,0.001090830782496456,-0.003272492347489368,11.875,58.1875,-13.75
1772911091.5572264,13.064963902538183,0.702837261842896,-9.017623180631324,-0.11041209175222604,-1.5537794295819223,9.760026186581678,0.0,0.001090830782496456,-0.003272492347489368,11.875,58.1875,-13.75
1772911091.57453,13.064963902538183,0.702837261842896,-9.017623180631324,-0.11027424245773992,-1.5525151681677745,9.760017426877583,-0.001090830782496456,0.0,-0.002181661564992912,11.1875,58.1875,-14.5
1772911091.5873363,13.064963902538183,0.702837261842896,-9.017623180631324,-0.11027424245773992,-1.5525151681677745,9.760017426877583,-0.001090830782496456,0.0,-0.002181661564992912,11.1875,58.1875,-14.5
1772911091.6164641,13.064963902538183,0.702837261842896,-9.017623180631324,-0.11018250529213694,-1.555018928026704,9.76001159739236,0.0,0.001090830782496456,0.001090830782496456,11.1875,58.1875,-14.5
1772911091.6440847,7.4021639847254e-05,0.7028412784978465,-9.017674504368738,-0.46242694061164696,-1.4907396317354409,9.760007717935064,-0.0015557709489246168,-0.0018785994077214414,0.0,25.292027633111807,53.41528100137552,-14.5
1772911091.967556,7.4021639847254e-05,0.7028412784978465,-9.017674504368738,-0.46387130713735736,-1.4808617195330662,9.754432171902245,-0.0010625939528734999,0.0002465884980255584,-0.001090830782496456,23.980877319151436,53.84787186374043,-14.0625
1772911092.2668734,7.4021639847254e-05,0.7028412784978465,-9.017674504368738,-0.4680929455043908,-1.4844630442235522,9.763665065958264,0.0002465884980255584,0.0010625939528734999,-0.002181661564992912,26.111752528403546,53.35337505627372,-15.25
1772911092.2939215,7.4021639847254e-05,0.7028412784978465,-9.017674504368738,-0.4680929455043908,-1.4844630442235522,9.763665065958264,0.0002465884980255584,0.0010625939528734999,-0.002181661564992912,26.111752528403546,53.35337505627372,-15.25
1772911092.3428588,7.4021639847254e-05,0.7028412784978465,-9.017674504368738,-0.4645624964569962,-1.4846463970645525,9.765784172161075,0.0,0.0,0.002181661564992912,26.111752528403546,53.35337505627372,-15.25
1772911092.365889,7.4021639847254e-05,0.7028412784978465,-9.017674504368738,-0.468730064896449,-1.4832560533058687,9.763849301959759,0.0008160054548479414,-0.0013091824508990582,0.001090830782496456,25.39092699460515,53.841456043225946,-14.5
1772911092.4034963,7.4021639847254e-05,0.7028412784978465,-9.017674504368738,-0.4657426738084131,-1.4871016795132033,9.7625616674547,-0.0002465884980255584,-0.0010625939528734999,-0.001090830782496456,25.39092699460515,53.841456043225946,-14.5
1772911092.4548907,7.4021639847254e-05,0.7028412784978465,-9.017674504368738,-0.4637545984106703,-1.4896609007957249,9.761704761075402,0.0026183649017981164,0.0016320109096958828,0.0,24.487455014299428,54.37192247081817,-15.0
1772911092.4828877,7.4021639847254e-05,0.7028412784978465,-9.017674504368738,-0.46243155644172973,-1.491364033970868,9.76113449945225,-0.0002465884980255584,-0.0010625939528734999,-0.001090830782496456,24.487455014299428,54.37192247081817,-15.0
1772911092.5726187,7.4021639847254e-05,0.7028412784978465,-9.017674504368738,-0.464809608212144,-1.4917412685605898,9.757409885004964,-0.0004931769960511168,-0.0021251879057469997,-0.001090830782496456,24.721223357411628,53.996869325572625,-13.75
1772911092.6098835,7.4021639847254e-05,0.7028412784978465,-9.017674504368738,-0.46639217510077585,-1.4919923139660631,9.758276307404284,0.0013091824508990582,0.0008160054548479414,-0.001090830782496456,24.721223357411628,53.996869325572625,-13.75
1772911092.6488352,7.4021639847254e-05,0.7028412784978465,-9.017674504368738,-0.46639217510077585,-1.4919923139660631,9.758276307404284,0.0013091824508990582,0.0008160054548479414,-0.001090830782496456,24.721223357411628,53.996869325572625,-13.75
1772911092.6691232,7.4021639847254e-05,0.7028412784978465,-9.017674504368738,-0.4666891741736377,-1.4889008604576477,9.758852901832459,0.0008160054548479414,-0.0013091824508990582,0.001090830782496456,24.416812613232754,54.067511726639296,-13.25
1772911092.7218134,7.4021639847254e-05,0.7028412784978465,-9.017674504368738,-0.46688682373893026,-1.4868435326815956,9.759236618983428,-0.0015557709489246168,-0.0018785994077214414,0.0,24.416812613232754,54.067511726639296,-13.25
1772911092.7390382,7.4021639847254e-05,0.7028412784978465,-9.017674504368738,-0.4670183573167421,-1.48547440402849,9.752801755046358,0.0,0.0,-0.001090830782496456,25.086516250426275,53.91209844429262,-13.75
1772911092.7542868,7.4021639847254e-05,0.7028412784978465,-9.017674504368738,-0.4670183573167421,-1.48547440402849,9.752801755046358,0.0,0.0,-0.001090830782496456,25.086516250426275,53.91209844429262,-13.75
1772911092.7808683,7.4021639847254e-05,0.7028412784978465,-9.017674504368738,-0.4696082313517545,-1.4805485612695282,9.748519424978378,0.0008160054548479414,-0.0013091824508990582,0.0,25.086516250426275,53.91209844429262,-13.75
1772911092.8265047,7.4021639847254e-05,0.7028412784978465,-9.017674504368738,-0.4713317635912666,-1.4772704679387083,9.745669582154898,-0.0013091824508990582,-0.0008160054548479414,0.0,25.086516250426275,53.91209844429262,-13.75
1772911092.8467357,7.4021639847254e-05,0.7028412784978465,-9.017674504368738,-0.4724787550435453,-1.4750889334457495,9.75046326700534,-0.0008160054548479414,0.0013091824508990582,0.001090830782496456,25.7464596353889,53.43814593755373,-16.0625
1772911092.869895,7.4021639847254e-05,0.7028412784978465,-9.017674504368738,-0.4747544280684869,-1.4801541894528165,9.753653410724342,0.0015557709489246168,0.0018785994077214414,0.001090830782496456,25.7464596353889,53.43814593755373,-16.0625
1772911092.8881388,7.4021639847254e-05,0.7028412784978465,-9.017674504368738,-0.4747544280684869,-1.4801541894528165,9.753653410724342,0.0015557709489246168,0.0018785994077214414,0.001090830782496456,25.7464596353889,53.43814593755373,-16.0625
1772911092.908385,7.4021639847254e-05,0.7028412784978465,-9.017674504368738,-0.4762688630456522,-1.4835250607429025,9.755776415733097,-0.000569416956822383,0.0023717764037725583,0.002181661564992912,25.7464596353889,53.43814593755373,-16.0625
1772911092.943688,7.4021639847254e-05,0.7028412784978465,-9.017674504368738,-0.4765205210925164,-1.4825098165099582,9.757189251850903,0.0002465884980255584,0.0010625939528734999,0.0,25.461569395671823,54.14586678740482,-14.5
1772911092.9579115,7.4021639847254e-05,0.7028412784978465,-9.017674504368738,-0.4765205210925164,-1.4825098165099582,9.757189251850903,0.0002465884980255584,0.0010625939528734999,0.0,25.461569395671823,54.14586678740482,-14.5
1772911092.9880626,7.4021639847254e-05,0.7028412784978465,-9.017674504368738,-0.4766879967115,-1.4818341828139547,9.75812947850489,-0.000569416956822383,0.0023717764037725583,0.0,25.461569395671823,54.14586678740482,-14.5
1772911093.0103223,7.4021639847254e-05,0.7028412784978465,-9.017674504368738,-0.4710385885354064,-1.4861554405841686,9.758755188840098,-0.0003228284587968245,0.003434370356646058,0.002181661564992912,25.817102036455573,53.7425566817326,-14.0625
1772911093.026213,7.4021639847254e-05,0.7028412784978465,-9.017674504368738,-0.4710385885354064,-1.4861554405841686,9.758755188840098,-0.0003228284587968245,0.003434370356646058,0.002181661564992912,25.817102036455573,53.7425566817326,-14.0625
1772911093.0459018,7.4021639847254e-05,0.7028412784978465,-9.017674504368738,-0.46727897050224054,-1.4890311893586337,9.759171592078538,0.0,0.0,-0.001090830782496456,25.817102036455573,53.7425566817326,-14.0625
1772911093.071314,7.4021639847254e-05,0.7028412784978465,-9.017674504368738,-0.4632646236726697,-1.4844279252010277,9.759448703782189,-0.000569416956822383,0.0023717764037725583,0.001090830782496456,25.817102036455573,53.7425566817326,-14.0625
1772911093.0968816,7.4021639847254e-05,0.7028412784978465,-9.017674504368738,-0.4605931207007827,-1.4813645043259709,9.75628800681811,-0.0010625939528734999,0.0002465884980255584,0.001090830782496456,24.721223357411628,53.996869325572625,-14.0625
1772911093.1244702,7.4021639847254e-05,0.7028412784978465,-9.017674504368738,-0.46282996825012446,-1.4818281718625788,9.757529710003134,-0.000569416956822383,0.0023717764037725583,0.001090830782496456,24.721223357411628,53.996869325572625,-14.0625
1772911093.1434994,7.4021639847254e-05,0.7028412784978465,-9.017674504368738,-0.46431856530698706,-1.4821367374286856,9.751665826187393,0.0002465884980255584,0.0010625939528734999,0.001090830782496456,24.721223357411628,53.996869325572625,-14.0625
1772911093.1709638,7.4021639847254e-05,0.7028412784978465,-9.017674504368738,-0.46530921001961045,-1.4823420843660264,9.75445370042653,-0.0004931769960511168,-0.0021251879057469997,0.002181661564992912,25.71820267496223,53.31638163988218,-14.875
1772911093.2110624,7.4021639847254e-05,0.7028412784978465,-9.017674504368738,-0.4667246545227269,-1.4857372618803482,9.756308999590082,-0.0010625939528734999,0.0002465884980255584,0.001090830782496456,25.71820267496223,53.31638163988218,-14.875
1772911093.2484322,7.4021639847254e-05,0.7028412784978465,-9.017674504368738,-0.4684227985410918,-1.4912552360109084,9.757543680458376,-0.0015557709489246168,-0.0018785994077214414,0.0,24.721223357411628,53.996869325572625,-15.0
1772911093.274371,7.4021639847254e-05,0.7028412784978465,-9.017674504368738,-0.465538191481313,-1.4924250462466815,9.758365346783936,0.0004931769960511168,0.0021251879057469997,0.0,24.721223357411628,53.996869325572625,-15.0
1772911093.330078,7.4021639847254e-05,0.7028412784978465,-9.017674504368738,-0.465538191481313,-1.4924250462466815,9.758365346783936,0.0004931769960511168,0.0021251879057469997,0.0,24.721223357411628,53.996869325572625,-15.0
1772911093.3735404,7.4021639847254e-05,0.7028412784978465,-9.017674504368738,-0.4636185177062024,-1.4932035418909517,9.758912156544982,-0.0004931769960511168,-0.0021251879057469997,0.0,25.086516250426275,53.91209844429262,-14.5
1772911093.3966444,7.4021639847254e-05,0.7028412784978465,-9.017674504368738,-0.46158481473993535,-1.4904631006244504,9.759276052332693,-0.0015557709489246168,-0.0018785994077214414,0.0,25.086516250426275,53.91209844429262,-14.5
1772911093.4172575,7.4021639847254e-05,0.7028412784978465,-9.017674504368738,-0.46158481473993535,-1.4904631006244504,9.759276052332693,-0.0015557709489246168,-0.0018785994077214414,0.0,25.086516250426275,53.91209844429262,-14.5
1772911093.4531922,7.4021639847254e-05,0.7028412784978465,-9.017674504368738,-0.46348992955523227,-1.4878831860612367,9.759518220914432,0.0002465884980255584,0.0010625939528734999,-0.002181661564992912,24.051519720218106,54.152282607919304,-15.0
1772911093.468919,7.4021639847254e-05,0.7028412784978465,-9.017674504368738,-0.4647577621832855,-1.486166281738952,9.75967938140038,-0.0008160054548479414,0.0013091824508990582,0.0,24.051519720218106,54.152282607919304,-15.0
1772911093.4847393,7.4021639847254e-05,0.7028412784978465,-9.017674504368738,-0.4647577621832855,-1.486166281738952,9.75967938140038,-0.0008160054548479414,0.0013091824508990582,0.0,24.051519720218106,54.152282607919304,-15.0
1772911093.520792,7.4021639847254e-05,0.7028412784978465,-9.017674504368738,-0.4656014906346365,-1.4850237010915495,9.763131743610817,0.0,0.0,-0.001090830782496456,25.15715865149295,54.21650918847149,-15.25
1772911093.54843,7.4021639847254e-05,0.7028412784978465,-9.017674504368738,-0.4661629824939462,-1.4842633264341651,9.76208414038913,0.0002465884980255584,0.0010625939528734999,0.001090830782496456,25.15715865149295,54.21650918847149,-15.25
1772911093.573397,7.4021639847254e-05,0.7028412784978465,-9.017674504368738,-0.46653664905404174,-1.4837573055936173,9.764732083854911,0.0,0.0,0.0,25.15715865149295,54.21650918847149,-15.25
1772911093.6211581,7.4021639847254e-05,0.7028412784978465,-9.017674504368738,-0.46678531997565637,-1.483420554376856,9.763149148944603,0.0002465884980255584,0.0010625939528734999,-0.001090830782496456,25.23551371225847,53.171752406032425,-15.6875
1772911093.6403966,7.4021639847254e-05,0.7028412784978465,-9.017674504368738,-0.46678531997565637,-1.483420554376856,9.763149148944603,0.0002465884980255584,0.0010625939528734999,-0.001090830782496456,25.23551371225847,53.171752406032425,-15.6875
1772911093.662853,7.4021639847254e-05,0.7028412784978465,-9.017674504368738,-0.4692294475313977,-1.4825440810302752,9.76139468054144,-0.0016320109096958828,0.0026183649017981164,-0.001090830782496456,25.23551371225847,53.171752406032425,-15.6875
1772911093.7166193,7.4021639847254e-05,0.7028412784978465,-9.017674504368738,-0.4718358687032038,-1.481856985469466,9.767618367735365,-0.0010625939528734999,0.0002465884980255584,0.0,24.721223357411628,53.996869325572625,-14.5
1772911093.73488,7.4021639847254e-05,0.7028412784978465,-9.017674504368738,-0.4718358687032038,-1.481856985469466,9.767618367735365,-0.0010625939528734999,0.0002465884980255584,0.0,24.721223357411628,53.996869325572625,-14.5
1772911093.7605374,7.4021639847254e-05,0.7028412784978465,-9.017674504368738,-0.4768289342988055,-1.4806435495360157,9.77176016203978,-0.0008160054548479414,0.0013091824508990582,0.001090830782496456,24.721223357411628,53.996869325572625,-14.5
1772911093.7797666,7.4021639847254e-05,0.7028412784978465,-9.017674504368738,-0.48015176367648105,-1.4798360214772721,9.774516479882495,0.0004931769960511168,0.0021251879057469997,-0.003272492347489368,25.086516250426275,53.91209844429262,-13.75
1772911093.7942545,7.4021639847254e-05,0.7028412784978465,-9.017674504368738,-0.48015176367648105,-1.4798360214772721,9.774516479882495,0.0004931769960511168,0.0021251879057469997,-0.003272492347489368,25.086516250426275,53.91209844429262,-13.75
1772911093.8182817,7.4021639847254e-05,0.7028412784978465,-9.017674504368738,-0.475846026666094,-1.4808109836010421,9.773005666909414,0.0004931769960511168,0.0021251879057469997,0.002181661564992912,25.086516250426275,53.91209844429262,-13.75
1772911093.8357232,7.4021639847254e-05,0.7028412784978465,-9.017674504368738,-0.475846026666094,-1.4808109836010421,9.773005666909414,0.0004931769960511168,0.0021251879057469997,0.002181661564992912,25.086516250426275,53.91209844429262,-13.75
1772911093.853841,7.4021639847254e-05,0.7028412784978465,-9.017674504368738,-0.47373678829700744,-1.4847183314247674,9.768655126045397,0.0021251879057469997,-0.0004931769960511168,-0.001090830782496456,24.842987655083178,53.96861236514595,-14.5
1772911093.8705773,7.4021639847254e-05,0.7028412784978465,-9.017674504368738,-0.47233311372411674,-1.4873186277535213,9.769105001406437,0.0003228284587968245,-0.003434370356646058,0.002181661564992912,24.842987655083178,53.96861236514595,-14.5
1772911093.9004695,7.4021639847254e-05,0.7028412784978465,-9.017674504368738,-0.47139898397593033,-1.4890490959130938,9.766059276726454,0.0002465884980255584,0.0010625939528734999,0.001090830782496456,24.650580956344957,53.69245858139375,-14.5
1772911093.9203005,7.4021639847254e-05,0.7028412784978465,-9.017674504368738,-0.47139898397593033,-1.4890490959130938,9.766059276726454,0.0002465884980255584,0.0010625939528734999,0.001090830782496456,24.650580956344957,53.69245858139375,-14.5
1772911093.9410484,7.4021639847254e-05,0.7028412784978465,-9.017674504368738,-0.47077733106342534,-1.4902007031426934,9.767377492682218,-0.003434370356646058,-0.00032282845879682447,0.002181661564992912,24.650580956344957,53.69245858139375,-14.5
1772911093.9556987,7.4021639847254e-05,0.7028412784978465,-9.017674504368738,-0.4696074464813792,-1.4877085634682994,9.764909638968023,0.0013091824508990582,0.0008160054548479414,-0.001090830782496456,24.650580956344957,53.69245858139375,-14.5
1772911093.9723043,7.4021639847254e-05,0.7028412784978465,-9.017674504368738,-0.4696074464813792,-1.4877085634682994,9.764909638968023,0.0013091824508990582,0.0008160054548479414,-0.001090830782496456,24.650580956344957,53.69245858139375,-14.5
1772911093.985223,7.4021639847254e-05,0.7028412784978465,-9.017674504368738,-0.4688289013604945,-1.4860500723540142,9.766612421596278,-0.0013091824508990582,-0.0008160054548479414,0.0,24.931102968079596,53.242394807099096,-14.0625
1772911094.0067456,7.4021639847254e-05,0.7028412784978465,-9.017674504368738,-0.4690669697925567,-1.4882048864654143,9.767745604414053,-0.0013091824508990582,-0.0008160054548479414,0.0,24.931102968079596,53.242394807099096,-14.0625
1772911094.0323992,7.4021639847254e-05,0.7028412784978465,-9.017674504368738,-0.4690669697925567,-1.4882048864654143,9.767745604414053,-0.0013091824508990582,-0.0008160054548479414,0.0,24.931102968079596,53.242394807099096,-14.0625
1772911094.0473726,7.4021639847254e-05,0.7028412784978465,-9.017674504368738,-0.4692254016746955,-1.4896388911857001,9.768499724920801,-0.0004931769960511168,-0.0021251879057469997,-0.001090830782496456,24.931102968079596,53.242394807099096,-14.0625
1772911094.0607407,7.4021639847254e-05,0.7028412784978465,-9.017674504368738,-0.4692254016746955,-1.4896388911857001,9.768499724920801,-0.0004931769960511168,-0.0021251879057469997,-0.001090830782496456,24.931102968079596,53.242394807099096,-14.0625
1772911094.0752223,7.4021639847254e-05,0.7028412784978465,-9.017674504368738,-0.46933083632245876,-1.4905932053081679,9.765656471986645,-0.000569416956822383,0.0023717764037725583,0.002181661564992912,25.086516250426275,53.91209844429262,-14.5
1772911094.0996902,7.4021639847254e-05,0.7028412784978465,-9.017674504368738,-0.469401001902763,-1.491228290696283,9.76041920721286,-0.0013091824508990582,-0.0008160054548479414,0.002181661564992912,25.086516250426275,53.91209844429262,-14.5
1772911094.131624,7.4021639847254e-05,0.7028412784978465,-9.017674504368738,-0.469401001902763,-1.491228290696283,9.76041920721286,-0.0013091824508990582,-0.0008160054548479414,0.002181661564992912,25.086516250426275,53.91209844429262,-14.5
1772911094.1530423,7.4021639847254e-05,0.7028412784978465,-9.017674504368738,-0.4694476963126546,-1.491650932927705,9.756933866009987,0.0004931769960511168,0.0021251879057469997,0.0,25.320284593538478,53.53704529904707,-13.25
1772911094.1687164,7.4021639847254e-05,0.7028412784978465,-9.017674504368738,-0.4694476963126546,-1.491650932927705,9.756933866009987,0.0004931769960511168,0.0021251879057469997,0.0,25.320284593538478,53.53704529904707,-13.25
1772911094.196312,7.4021639847254e-05,0.7028412784978465,-9.017674504368738,-0.46622024949942975,-1.4926883781245854,9.754614410373287,-0.0013091824508990582,-0.0008160054548479414,0.002181661564992912,25.320284593538478,53.53704529904707,-13.25
1772911094.215674,7.4021639847254e-05,0.7028412784978465,-9.017674504368738,-0.46622024949942975,-1.4926883781245854,9.754614410373287,-0.0002465884980255584,-0.0010625939528734999,0.002181661564992912,25.320284593538478,53.53704529904707,-13.25
1772911094.232496,7.4021639847254e-05,0.7028412784978465,-9.017674504368738,-0.46407241969817187,-1.4933787863140873,9.756415950264401,0.0018785994077214414,-0.0015557709489246166,0.001090830782496456,24.261399330886075,53.397808089445775,-14.875
1772911094.2454267,7.4021639847254e-05,0.7028412784978465,-9.017674504368738,-0.46407241969817187,-1.4933787863140873,9.756415950264401,0.0018785994077214414,-0.0015557709489246166,0.001090830782496456,24.261399330886075,53.397808089445775,-14.875
1772911094.2735183,7.4021639847254e-05,0.7028412784978465,-9.017674504368738,-0.4626430629582656,-1.4938382452518357,9.757614854937417,-0.0021251879057469997,0.0004931769960511168,0.002181661564992912,24.261399330886075,53.397808089445775,-14.875
1772911094.3181343,7.4021639847254e-05,0.7028412784978465,-9.017674504368738,-0.46419418192312395,-1.4901293071079258,9.758412712604667,-0.0010625939528734999,0.0002465884980255584,-0.001090830782496456,25.54634027695183,54.51115968041947,-13.25
1772911094.3410928,7.4021639847254e-05,0.7028412784978465,-9.017674504368738,-0.4652264342671029,-1.4876610502047072,9.758943677969567,0.0010625939528734999,-0.0002465884980255584,-0.001090830782496456,25.54634027695183,54.51115968041947,-13.25
1772911094.3649821,7.4021639847254e-05,0.7028412784978465,-9.017674504368738,-0.46591338667100674,-1.4860184528078517,9.759297029488637,-0.0023717764037725583,-0.000569416956822383,0.0,25.54634027695183,54.51115968041947,-13.25
1772911094.400638,7.4021639847254e-05,0.7028412784978465,-9.017674504368738,-0.4663705458220436,-1.4849253225892596,9.759532180977383,0.000569416956822383,-0.0023717764037725583,-0.002181661564992912,25.817102036455573,53.7425566817326,-13.0
1772911094.4170275,7.4021639847254e-05,0.7028412784978465,-9.017674504368738,-0.4663705458220436,-1.4849253225892596,9.759532180977383,0.000569416956822383,-0.0023717764037725583,-0.002181661564992912,25.817102036455573,53.7425566817326,-13.0
1772911094.4325624,7.4021639847254e-05,0.7028412784978465,-9.017674504368738,-0.46667478013025626,-1.484197856639851,9.759688671666328,-0.0016320109096958828,0.0026183649017981164,-0.001090830782496456,25.817102036455573,53.7425566817326,-13.0
1772911094.445055,7.4021639847254e-05,0.7028412784978465,-9.017674504368738,-0.4668772446638519,-1.4837137361768469,9.759792814471707,0.0002465884980255584,0.0010625939528734999,0.001090830782496456,25.817102036455573,53.7425566817326,-13.0
1772911094.4583693,7.4021639847254e-05,0.7028412784978465,-9.017674504368738,-0.4668772446638519,-1.4837137361768469,9.759792814471707,0.0002465884980255584,0.0010625939528734999,0.001090830782496456,25.817102036455573,53.7425566817326,-13.0
1772911094.4772344,-137.59764105291035,-3.822012548212007,-1.8357195831922666,-0.4670119825492828,-1.4833915594166975,9.763207232052654,0.0002465884980255584,0.0010625939528734999,0.001090830782496456,25.39092699460515,53.841456043225946,-14.0625
1772911094.5032942,7.4021639847254e-05,0.7028412784978465,-9.017674504368738,-0.46710164910691626,-1.4831771543817684,9.76547948881123,0.0002465884980255584,0.0010625939528734999,-0.001090830782496456,25.39092699460515,53.841456043225946,-14.0625
1772911094.5274737,7.4021639847254e-05,0.7028412784978465,-9.017674504368738,-0.46710164910691626,-1.4831771543817684,9.76547948881123,0.0002465884980255584,0.0010625939528734999,-0.001090830782496456,25.39092699460515,53.841456043225946,-14.0625
1772911094.5547955,7.4021639847254e-05,0.7028412784978465,-9.017674504368738,-0.46716132119938025,-1.4830344702260843,9.766991650301293,0.000569416956822383,-0.0023717764037725583,0.001090830782496456,25.39092699460515,53.841456043225946,-14.0625
1772911094.570619,7.4021639847254e-05,0.7028412784978465,-9.017674504368738,-0.46394251088893707,-1.4836956970274549,9.764652865173659,-0.000569416956822383,0.0023717764037725583,0.001090830782496456,23.980877319151436,53.84787186374043,-15.0
1772911094.5965204,7.4021639847254e-05,0.7028412784978465,-9.017674504368738,-0.46505895000520125,-1.4833795545642876,9.76309642979716,0.0008160054548479414,-0.0013091824508990582,0.002181661564992912,23.980877319151436,53.84787186374043,-15.0
1772911094.60963,7.4021639847254e-05,0.7028412784978465,-9.017674504368738,-0.4592848849228391,-1.4846815283127768,9.765405751147942,0.0010625939528734999,-0.0002465884980255584,-0.001090830782496456,23.980877319151436,53.84787186374043,-15.0
1772911094.6255305,7.4021639847254e-05,0.7028412784978465,-9.017674504368738,-0.4592848849228391,-1.4846815283127768,9.765405751147942,0.0010625939528734999,-0.0002465884980255584,-0.001090830782496456,23.980877319151436,53.84787186374043,-15.0
1772911094.651821,7.4021639847254e-05,0.7028412784978465,-9.017674504368738,-0.4619593519538541,-1.4840356142722122,9.766942578710077,-0.0013091824508990582,-0.0008160054548479414,-0.002181661564992912,25.817102036455573,53.7425566817326,-15.0
1772911094.6724045,7.4021639847254e-05,0.7028412784978465,-9.017674504368738,-0.46373917988724045,-1.4836057656935493,9.76462020857787,-0.0002465884980255584,-0.0010625939528734999,0.0,25.817102036455573,53.7425566817326,-15.0
1772911094.6968997,7.4021639847254e-05,0.7028412784978465,-9.017674504368738,-0.46373917988724045,-1.4836057656935493,9.76462020857787,-0.0002465884980255584,-0.0010625939528734999,0.0,25.817102036455573,53.7425566817326,-15.0
1772911094.7187984,7.4021639847254e-05,0.7028412784978465,-9.017674504368738,-0.46492363549492827,-1.483319706266172,9.763074697197462,-0.0002465884980255584,-0.0010625939528734999,0.0,25.817102036455573,53.7425566817326,-15.0
1772911094.7465737,7.4021639847254e-05,0.7028412784978465,-9.017674504368738,-0.4657118774706084,-1.4831293369127458,9.762046176638293,0.0010625939528734999,-0.0002465884980255584,0.002181661564992912,24.346170212166083,53.76310098246042,-14.5
1772911094.7791972,7.4021639847254e-05,0.7028412784978465,-9.017674504368738,-0.46623644370018374,-1.4830026482346057,9.761361707695492,0.0013091824508990582,0.0008160054548479414,-0.001090830782496456,24.346170212166083,53.76310098246042,-14.5
1772911094.8618002,7.4021639847254e-05,0.7028412784978465,-9.017674504368738,-0.4660616726223301,-1.4796037096164005,9.760603066815651,-0.0004931769960511168,-0.0021251879057469997,0.001090830782496456,24.650580956344957,53.69245858139375,-15.25
1772911094.9327395,7.4021639847254e-05,0.7028412784978465,-9.017674504368738,-0.4660616726223301,-1.4796037096164005,9.760603066815651,-0.0004931769960511168,-0.0021251879057469997,0.001090830782496456,24.650580956344957,53.69245858139375,-15.25
1772911094.975131,7.4021639847254e-05,0.7028412784978465,-9.017674504368738,-0.46571304695309457,-1.4773978612313283,9.760401334229119,0.0002465884980255584,0.0010625939528734999,0.0,24.721223357411628,53.996869325572625,-15.0
1772911095.026375,7.4021639847254e-05,0.7028412784978465,-9.017674504368738,-0.4654810404646222,-1.4759298937720038,9.760267083446282,-0.0002465884980255584,-0.0010625939528734999,0.0,24.721223357411628,53.996869325572625,-15.0
1772911095.0583518,7.4021639847254e-05,0.7028412784978465,-9.017674504368738,-0.4654810404646222,-1.4759298937720038,9.760267083446282,-0.0002465884980255584,-0.0010625939528734999,0.0,24.721223357411628,53.996869325572625,-15.0
1772911095.1262026,7.4021639847254e-05,0.7028412784978465,-9.017674504368738,-0.46683900576441034,-1.4814700206688882,9.760177741049983,-0.0008160054548479414,0.0013091824508990582,0.0,24.56581007506495,53.327165688379104,-14.5
1772911095.176047,7.4021639847254e-05,0.7028412784978465,-9.017674504368738,-0.467742716501953,-1.4851569132314926,9.760118284683266,0.0,0.0,0.001090830782496456,24.56581007506495,53.327165688379104,-14.5
1772911095.2150013,7.4021639847254e-05,0.7028412784978465,-9.017674504368738,-0.46834412590267727,-1.4876104990466172,9.760078717135388,0.0010625939528734999,-0.0002465884980255584,-0.002181661564992912,26.477045421418193,53.26860417499371,-13.75
1772911095.266635,7.4021639847254e-05,0.7028412784978465,-9.017674504368738,-0.46723199411449184,-1.4827262901554392,9.760052385374273,-0.0008160054548479414,0.0013091824508990582,0.0,26.477045421418193,53.26860417499371,-13.75
1772911095.3203213,7.4021639847254e-05,0.7028412784978465,-9.017674504368738,-0.46723199411449184,-1.4827262901554392,9.760052385374273,-0.0008160054548479414,0.0013091824508990582,0.0,26.477045421418193,53.26860417499371,-13.75
1772911095.3558388,7.4021639847254e-05,0.7028412784978465,-9.017674504368738,-0.46323336141138355,-1.4802320852116406,9.760034861881396,-0.0007397654940766754,-0.0031877818586204996,0.0,25.320284593538478,53.53704529904707,-14.0625
1772911095.4083705,7.4021639847254e-05,0.7028412784978465,-9.017674504368738,-0.46860172188409716,-1.4835768995002472,9.760023200192636,0.0009863539921022336,0.004250375811493999,0.0,25.320284593538478,53.53704529904707,-14.0625
1772911095.4728036,7.4021639847254e-05,0.7028412784978465,-9.017674504368738,-0.46565726296737836,-1.4873151990714755,9.763360551176355,-0.0010625939528734999,0.0002465884980255584,0.001090830782496456,24.650580956344957,53.69245858139375,-14.0625
1772911095.5117977,7.4021639847254e-05,0.7028412784978465,-9.017674504368738,-0.4702148012928572,-1.488290632650401,9.765581520975367,0.0004931769960511168,0.0021251879057469997,0.0,24.650580956344957,53.69245858139375,-14.0625
1772911095.5509877,7.4021639847254e-05,0.7028412784978465,-9.017674504368738,-0.4667307492946305,-1.4904521358270533,9.763714439859433,0.0013091824508990582,0.0008160054548479414,-0.002181661564992912,25.015873849359604,53.60768770011374,-15.0
1772911095.5708854,7.4021639847254e-05,0.7028412784978465,-9.017674504368738,-0.4644121516092215,-1.4918905920455425,9.762471918233441,0.0013091824508990582,0.0008160054548479414,0.0,25.015873849359604,53.60768770011374,-15.0
1772911095.6030943,7.4021639847254e-05,0.7028412784978465,-9.017674504368738,-0.462112969236923,-1.4895893471689416,9.761645033971218,-0.0013091824508990582,-0.0008160054548479414,0.002181661564992912,25.015873849359604,53.60768770011374,-15.0
1772911095.6436539,7.4021639847254e-05,0.7028412784978465,-9.017674504368738,-0.4605828890517083,-1.4880578944101532,9.761094751731612,-0.0013091824508990582,-0.0008160054548479414,0.001090830782496456,24.650580956344957,53.69245858139375,-15.0
1772911095.7013452,7.4021639847254e-05,0.7028412784978465,-9.017674504368738,-0.4595646377805635,-1.4870387297066279,9.76072854504821,-0.0015557709489246168,-0.0018785994077214414,0.002181661564992912,24.650580956344957,53.69245858139375,-15.0
1772911095.7429683,7.4021639847254e-05,0.7028412784978465,-9.017674504368738,-0.4595646377805635,-1.4870387297066279,9.76072854504821,-0.0015557709489246168,-0.0018785994077214414,0.002181661564992912,24.650580956344957,53.69245858139375,-15.0
1772911095.7697248,7.4021639847254e-05,0.7028412784978465,-9.017674504368738,-0.4588870029342286,-1.4863604869812475,9.76717506200584,-0.0018785994077214414,0.0015557709489246166,0.0,25.086516250426275,53.91209844429262,-13.75
1772911095.8331308,7.4021639847254e-05,0.7028412784978465,-9.017674504368738,-0.45843604451367004,-1.4859091240239746,9.771465147028831,0.0002465884980255584,0.0010625939528734999,0.0,25.086516250426275,53.91209844429262,-13.75
1772911095.8663664,7.4021639847254e-05,0.7028412784978465,-9.017674504368738,-0.4646529795651178,-1.4840963839917796,9.767629927273603,0.0,0.0,-0.002181661564992912,25.23551371225847,53.171752406032425,-14.0625
1772911095.9132936,7.4021639847254e-05,0.7028412784978465,-9.017674504368738,-0.4687902803941414,-1.4828900257499869,9.76507763136871,0.0007397654940766754,0.0031877818586204996,-0.001090830782496456,25.23551371225847,53.171752406032425,-14.0625
1772911095.9454203,7.4021639847254e-05,0.7028412784978465,-9.017674504368738,-0.4715436078791781,-1.4820872078159786,9.760033995247698,0.0007397654940766754,0.0031877818586204996,0.0,25.086516250426275,53.91209844429262,-15.25
1772911095.9688742,7.4021639847254e-05,0.7028412784978465,-9.017674504368738,-0.4715436078791781,-1.4820872078159786,9.760033995247698,0.0007397654940766754,0.0031877818586204996,0.0,25.086516250426275,53.91209844429262,-15.25
1772911095.9928882,7.4021639847254e-05,0.7028412784978465,-9.017674504368738,-0.4733759165637867,-1.4815529414489599,9.76002262345759,-0.000569416956822383,0.0023717764037725583,0.0,25.086516250426275,53.91209844429262,-15.25
1772911096.012505,7.4021639847254e-05,0.7028412784978465,-9.017674504368738,-0.4733759165637867,-1.4815529414489599,9.76002262345759,-0.000569416956822383,0.0023717764037725583,0.0,25.086516250426275,53.91209844429262,-15.25
1772911096.0522156,7.4021639847254e-05,0.7028412784978465,-9.017674504368738,-0.4745952975251646,-1.4811973931498552,9.760015055658306,-0.0003228284587968245,0.003434370356646058,0.001090830782496456,26.111752528403546,53.35337505627372,-15.0
1772911096.086049,7.4021639847254e-05,0.7028412784978465,-9.017674504368738,-0.47366062353837096,-1.488234004084422,9.76335513107974,0.0,0.0,0.0,26.111752528403546,53.35337505627372,-15.0
1772911096.1209888,7.4021639847254e-05,0.7028412784978465,-9.017674504368738,-0.4665215655983584,-1.4944291530834657,9.765577913961616,-0.0021251879057469997,0.0004931769960511168,0.0,25.086516250426275,53.91209844429262,-14.5
1772911096.1358635,7.4021639847254e-05,0.7028412784978465,-9.017674504368738,-0.4610144207746905,-1.4952934341165838,9.767057151139394,0.0,0.0,0.0,25.086516250426275,53.91209844429262,-14.5
1772911096.1598053,7.4021639847254e-05,0.7028412784978465,-9.017674504368738,-0.4610144207746905,-1.4952934341165838,9.767057151139394,0.0,0.0,0.0,25.086516250426275,53.91209844429262,-14.5
1772911096.2081943,7.4021639847254e-05,0.7028412784978465,-9.017674504368738,-0.45734947741337806,-1.495868603489472,9.768041566957042,0.0013091824508990582,0.0008160054548479414,-0.002181661564992912,25.086516250426275,53.91209844429262,-14.0625
1772911096.2277405,7.4021639847254e-05,0.7028412784978465,-9.017674504368738,-0.4581690199679215,-1.495495190768974,9.768696684687042,0.0002465884980255584,0.0010625939528734999,0.001090830782496456,25.086516250426275,53.91209844429262,-14.0625
1772911096.2422032,7.4021639847254e-05,0.7028412784978465,-9.017674504368738,-0.4581690199679215,-1.495495190768974,9.768696684687042,0.0002465884980255584,0.0010625939528734999,0.001090830782496456,25.086516250426275,53.91209844429262,-14.0625
1772911096.2636487,7.4021639847254e-05,0.7028412784978465,-9.017674504368738,-0.4587144163830799,-1.495246688774776,9.759097323096254,0.0002465884980255584,0.0010625939528734999,-0.001090830782496456,25.086516250426275,53.91209844429262,-14.0625
1772911096.3147314,7.4021639847254e-05,0.7028412784978465,-9.017674504368738,-0.4623358930262877,-1.4943251319604944,9.75270905518948,-0.000569416956822383,0.0023717764037725583,-0.002181661564992912,25.39092699460515,53.841456043225946,-14.0625
1772911096.3493392,7.4021639847254e-05,0.7028412784978465,-9.017674504368738,-0.4614874238564007,-1.4944680277081461,9.75180284596647,0.0,0.0,0.0,25.39092699460515,53.841456043225946,-14.0625
1772911096.3696275,7.4021639847254e-05,0.7028412784978465,-9.017674504368738,-0.4614874238564007,-1.4944680277081461,9.75180284596647,0.0,0.0,0.0,25.39092699460515,53.841456043225946,-14.0625
1772911096.4147189,7.4021639847254e-05,0.7028412784978465,-9.017674504368738,-0.4674398199446565,-1.4930507602057743,9.761235108973535,-0.000569416956822383,0.0023717764037725583,-0.002181661564992912,25.817102036455573,53.7425566817326,-14.5
1772911096.4294217,7.4021639847254e-05,0.7028412784978465,-9.017674504368738,-0.46814255162737267,-1.4928637660279531,9.764167062932136,-0.0010625939528734999,0.0002465884980255584,-0.003272492347489368,25.817102036455573,53.7425566817326,-14.5
1772911096.4470162,7.4021639847254e-05,0.7028412784978465,-9.017674504368738,-0.46814255162737267,-1.4928637660279531,9.764167062932136,-0.0010625939528734999,0.0002465884980255584,-0.003272492347489368,25.817102036455573,53.7425566817326,-14.5
1772911096.463777,7.4021639847254e-05,0.7028412784978465,-9.017674504368738,-0.46785403019910093,-1.489480802070078,9.766118245539513,-0.0002465884980255584,-0.0010625939528734999,-0.002181661564992912,25.817102036455573,53.7425566817326,-14.5
1772911096.4833238,7.4021639847254e-05,0.7028412784978465,-9.017674504368738,-0.4676620224115816,-1.4872294773462955,9.767416735768585,-0.0010625939528734999,0.0002465884980255584,-0.002181661564992912,25.320284593538478,53.53704529904707,-13.25
1772911096.5189672,7.4021639847254e-05,0.7028412784978465,-9.017674504368738,-0.4642757219524581,-1.4864874274046556,9.764935754803625,0.0007397654940766754,0.0031877818586204996,0.0,25.320284593538478,53.53704529904707,-13.25
1772911096.5336988,7.4021639847254e-05,0.7028412784978465,-9.017674504368738,-0.4642757219524581,-1.4864874274046556,9.764935754803625,0.0007397654940766754,0.0031877818586204996,0.0,25.320284593538478,53.53704529904707,-13.25
1772911096.5505748,7.4021639847254e-05,0.7028412784978465,-9.017674504368738,-0.465280698245763,-1.4852374199446428,9.766629801393139,0.000569416956822383,-0.0023717764037725583,0.002181661564992912,25.320284593538478,53.53704529904707,-13.25
1772911096.5651338,7.4021639847254e-05,0.7028412784978465,-9.017674504368738,-0.465280698245763,-1.4852374199446428,9.766629801393139,0.000569416956822383,-0.0023717764037725583,0.002181661564992912,25.320284593538478,53.53704529904707,-13.25
1772911096.5998147,7.4021639847254e-05,0.7028412784978465,-9.017674504368738,-0.46594949874263664,-1.4844055539435028,9.767757170474718,0.0015557709489246168,0.0018785994077214414,-0.002181661564992912,24.791865758478302,54.3012800697515,-14.0625
1772911096.6263022,7.4021639847254e-05,0.7028412784978465,-9.017674504368738,-0.4679069410284992,-1.4903689992550901,9.771852533712291,0.0021251879057469997,-0.0004931769960511168,0.0,24.791865758478302,54.3012800697515,-14.0625
1772911096.6591306,7.4021639847254e-05,0.7028412784978465,-9.017674504368738,-0.46920959700367765,-1.4943376054939024,9.771232840491372,-0.0018785994077214414,0.0015557709489246166,-0.002181661564992912,24.721223357411628,53.996869325572625,-14.0625
1772911096.7137165,7.4021639847254e-05,0.7028412784978465,-9.017674504368738,-0.4693203184904461,-1.4937201471921986,9.774165553282597,0.0010625939528734999,-0.0002465884980255584,-0.002181661564992912,24.721223357411628,53.996869325572625,-14.0625
1772911096.7356455,7.4021639847254e-05,0.7028412784978465,-9.017674504368738,-0.4693203184904461,-1.4937201471921986,9.774165553282597,0.0010625939528734999,-0.0002465884980255584,-0.002181661564992912,24.721223357411628,53.996869325572625,-14.0625
1772911096.764336,7.4021639847254e-05,0.7028412784978465,-9.017674504368738,-0.4661354809816535,-1.4940654171029681,9.772772129177289,-0.0008160054548479414,0.0013091824508990582,-0.001090830782496456,24.931102968079596,53.242394807099096,-14.0625
1772911096.805109,7.4021639847254e-05,0.7028412784978465,-9.017674504368738,-0.46325982568342605,-1.4910366689502705,9.775189932708093,0.0008160054548479414,-0.0013091824508990582,0.0,24.931102968079596,53.242394807099096,-14.0625
1772911096.83789,7.4021639847254e-05,0.7028412784978465,-9.017674504368738,-0.46134610920563013,-1.489021070887984,9.773453842241889,0.0010625939528734999,-0.0002465884980255584,0.0,25.817102036455573,53.7425566817326,-14.5
1772911096.8607352,7.4021639847254e-05,0.7028412784978465,-9.017674504368738,-0.46007255226727073,-1.487679712893238,9.768953381722712,-0.0010625939528734999,0.0002465884980255584,0.001090830782496456,25.817102036455573,53.7425566817326,-14.5
1772911096.9110062,7.4021639847254e-05,0.7028412784978465,-9.017674504368738,-0.4624835357727527,-1.4860308726185931,9.762613263813318,0.0002465884980255584,0.0010625939528734999,0.002181661564992912,25.320284593538478,53.53704529904707,-14.5
1772911096.9450512,7.4021639847254e-05,0.7028412784978465,-9.017674504368738,-0.4624835357727527,-1.4860308726185931,9.762613263813318,0.0002465884980255584,0.0010625939528734999,0.002181661564992912,25.320284593538478,53.53704529904707,-14.5
1772911096.9636075,7.4021639847254e-05,0.7028412784978465,-9.017674504368738,-0.46408801836320046,-1.4849335878345695,9.758393986168374,-0.0026183649017981164,-0.0016320109096958828,0.0,25.320284593538478,53.53704529904707,-14.5
1772911097.00704,7.4021639847254e-05,0.7028412784978465,-9.017674504368738,-0.46408801836320046,-1.4849335878345695,9.758393986168374,-0.0026183649017981164,-0.0016320109096958828,0.0,25.320284593538478,53.53704529904707,-14.5
1772911097.0488389,7.4021639847254e-05,0.7028412784978465,-9.017674504368738,-0.4651557836038986,-1.484203357068276,9.755586104028083,-0.0015557709489246168,-0.0018785994077214414,0.002181661564992912,25.015873849359604,53.60768770011374,-15.0
1772911097.1127894,7.4021639847254e-05,0.7028412784978465,-9.017674504368738,-0.4651557836038986,-1.484203357068276,9.755586104028083,0.0,0.0,0.001090830782496456,25.015873849359604,53.60768770011374,-15.0
1772911097.1345623,7.4021639847254e-05,0.7028412784978465,-9.017674504368738,-0.4651557836038986,-1.484203357068276,9.755586104028083,0.0,0.0,0.001090830782496456,25.015873849359604,53.60768770011374,-15.0
1772911097.1506948,7.4021639847254e-05,0.7028412784978465,-9.017674504368738,-0.4626078480224669,-1.4844735781636118,9.75371748982982,-0.0021251879057469997,0.0004931769960511168,0.002181661564992912,26.25303733053689,53.96219654463147,-14.5
1772911097.1635375,7.4021639847254e-05,0.7028412784978465,-9.017674504368738,-0.4609122253553295,-1.4846534072839905,9.755819059661981,-0.0013091824508990582,-0.0008160054548479414,0.001090830782496456,26.25303733053689,53.96219654463147,-14.5
1772911097.1903017,7.4021639847254e-05,0.7028412784978465,-9.017674504368738,-0.4630423288330928,-1.4840169000416876,9.760562742616532,-0.0010625939528734999,0.0002465884980255584,0.001090830782496456,26.25303733053689,53.96219654463147,-14.5
1772911097.220493,7.4021639847254e-05,0.7028412784978465,-9.017674504368738,-0.4630423288330928,-1.4840169000416876,9.760562742616532,-0.0010625939528734999,0.0002465884980255584,0.001090830782496456,26.25303733053689,53.96219654463147,-14.5
1772911097.254081,7.4021639847254e-05,0.7028412784978465,-9.017674504368738,-0.4644598889027294,-1.4835933115821867,9.760374498925055,0.0002465884980255584,0.0010625939528734999,0.001090830782496456,25.015873849359604,53.60768770011374,-14.5
1772911097.2740247,7.4021639847254e-05,0.7028412784978465,-9.017674504368738,-0.46464707778079684,-1.480052896772785,9.763594336558516,0.0013091824508990582,0.0008160054548479414,0.003272492347489368,25.015873849359604,53.60768770011374,-14.5
1772911097.3069363,7.4021639847254e-05,0.7028412784978465,-9.017674504368738,-0.464771649888114,-1.477696790266153,9.762391990828322,0.0002465884980255584,0.0010625939528734999,0.0,26.25303733053689,53.96219654463147,-14.5
1772911097.3314176,7.4021639847254e-05,0.7028412784978465,-9.017674504368738,-0.4648545512339719,-1.4761288277054239,9.764936954883279,-0.0010625939528734999,0.0002465884980255584,0.001090830782496456,26.25303733053689,53.96219654463147,-14.5
1772911097.34431,7.4021639847254e-05,0.7028412784978465,-9.017674504368738,-0.4648545512339719,-1.4761288277054239,9.764936954883279,-0.0010625939528734999,0.0002465884980255584,0.001090830782496456,26.25303733053689,53.96219654463147,-14.5
1772911097.3610995,7.4021639847254e-05,0.7028412784978465,-9.017674504368738,-0.46642208417975584,-1.4816024089793416,9.763285488325423,0.0008160054548479414,-0.0013091824508990582,-0.001090830782496456,26.25303733053689,53.96219654463147,-14.5
1772911097.3815684,7.4021639847254e-05,0.7028412784978465,-9.017674504368738,-0.46642208417975584,-1.4816024089793416,9.763285488325423,0.0008160054548479414,-0.0013091824508990582,-0.001090830782496456,26.25303733053689,53.96219654463147,-14.5
1772911097.4181056,7.4021639847254e-05,0.7028412784978465,-9.017674504368738,-0.4674652598446847,-1.485245016173225,9.768876679193898,-0.0002465884980255584,-0.0010625939528734999,0.001090830782496456,25.15715865149295,54.21650918847149,-14.0625
1772911097.4600837,7.4021639847254e-05,0.7028412784978465,-9.017674504368738,-0.46490096017526217,-1.4884253120832578,9.772597554259175,0.0013091824508990582,0.0008160054548479414,0.0,25.15715865149295,54.21650918847149,-14.0625
1772911097.4899185,7.4021639847254e-05,0.7028412784978465,-9.017674504368738,-0.4631944473903657,-1.4905417634851517,9.775073755050217,0.0015557709489246168,0.0018785994077214414,-0.002181661564992912,24.650580956344957,53.69245858139375,-15.0
1772911097.5116634,7.4021639847254e-05,0.7028412784978465,-9.017674504368738,-0.4653173036164109,-1.4911940567377084,9.763341192186404,0.0008160054548479414,-0.0013091824508990582,-0.002181661564992912,24.650580956344957,53.69245858139375,-15.0
1772911097.5262334,7.4021639847254e-05,0.7028412784978465,-9.017674504368738,-0.4653173036164109,-1.4911940567377084,9.763341192186404,0.0008160054548479414,-0.0013091824508990582,-0.002181661564992912,24.650580956344957,53.69245858139375,-15.0
1772911097.5398448,7.4021639847254e-05,0.7028412784978465,-9.017674504368738,-0.4667300407209861,-1.491628150610692,9.755533302661851,-0.0007397654940766754,-0.0031877818586204996,-0.001090830782496456,24.931102968079596,53.242394807099096,-14.5
1772911097.5666516,7.4021639847254e-05,0.7028412784978465,-9.017674504368738,-0.4669140199696814,-1.4886585138126194,9.75702746281774,0.0021251879057469997,-0.0004931769960511168,-0.002181661564992912,24.931102968079596,53.242394807099096,-14.5
1772911097.5799797,7.4021639847254e-05,0.7028412784978465,-9.017674504368738,-0.4669140199696814,-1.4886585138126194,9.75702746281774,0.0021251879057469997,-0.0004931769960511168,-0.002181661564992912,24.931102968079596,53.242394807099096,-14.5
1772911097.608619,7.4021639847254e-05,0.7028412784978465,-9.017674504368738,-0.4670364561045052,-1.4866822536965187,9.761366921417942,0.0010625939528734999,-0.0002465884980255584,-0.001090830782496456,24.931102968079596,53.242394807099096,-14.5
1772911097.6314127,7.4021639847254e-05,0.7028412784978465,-9.017674504368738,-0.46385941456313223,-1.4861232561786177,9.760909670934128,0.000569416956822383,-0.0023717764037725583,0.001090830782496456,24.487455014299428,54.37192247081817,-13.75
1772911097.6449966,7.4021639847254e-05,0.7028412784978465,-9.017674504368738,-0.46385941456313223,-1.4861232561786177,9.760909670934128,0.000569416956822383,-0.0023717764037725583,0.001090830782496456,24.487455014299428,54.37192247081817,-13.75
1772911097.6681983,7.4021639847254e-05,0.7028412784978465,-9.017674504368738,-0.46359661684273895,-1.4847475018225633,9.760402870862336,0.0010625939528734999,-0.0002465884980255584,0.001090830782496456,24.487455014299428,54.37192247081817,-13.75
1772911097.7115426,7.4021639847254e-05,0.7028412784978465,-9.017674504368738,-0.46482876138134605,-1.4840795189060028,9.756922994351203,0.0010625939528734999,-0.0002465884980255584,-0.001090830782496456,24.721223357411628,53.996869325572625,-15.0
1772911097.7339597,7.4021639847254e-05,0.7028412784978465,-9.017674504368738,-0.46482876138134605,-1.4840795189060028,9.756922994351203,0.0010625939528734999,-0.0002465884980255584,-0.001090830782496456,24.721223357411628,53.996869325572625,-15.0
1772911097.761324,7.4021639847254e-05,0.7028412784978465,-9.017674504368738,-0.4648925582947407,-1.480376462315493,9.757952287113131,0.0008160054548479414,-0.0013091824508990582,0.001090830782496456,24.721223357411628,53.996869325572625,-15.0
1772911097.790442,7.4021639847254e-05,0.7028412784978465,-9.017674504368738,-0.46569119594103864,-1.4811706409417582,9.75863726994824,0.0018785994077214414,-0.0015557709489246166,0.001090830782496456,25.39092699460515,53.841456043225946,-14.5
1772911097.8053408,7.4021639847254e-05,0.7028412784978465,-9.017674504368738,-0.466978861886375,-1.4849576793673782,9.759093118373245,0.0,0.0,-0.002181661564992912,25.39092699460515,53.841456043225946,-14.5
1772911097.8324578,7.4021639847254e-05,0.7028412784978465,-9.017674504368738,-0.466978861886375,-1.4849576793673782,9.759093118373245,0.0,0.0,-0.002181661564992912,25.39092699460515,53.841456043225946,-14.5
1772911097.8525686,7.4021639847254e-05,0.7028412784978465,-9.017674504368738,-0.46783578918882524,-1.487477911135637,9.759396480407926,-0.0013091824508990582,-0.0008160054548479414,0.0,25.39092699460515,53.841456043225946,-14.5
1772911097.870416,7.4021639847254e-05,0.7028412784978465,-9.017674504368738,-0.46514754331470365,-1.4899112787376718,9.76294347616055,-0.0018785994077214414,0.0015557709489246166,0.0,25.887744437522244,54.046967425911475,-13.75
1772911097.8874009,7.4021639847254e-05,0.7028412784978465,-9.017674504368738,-0.46586088562345473,-1.48751595475984,9.7686490739187,0.0018023594469501751,0.0029411933605949414,0.003272492347489368,25.887744437522244,54.046967425911475,-13.75
1772911097.9127727,7.4021639847254e-05,0.7028412784978465,-9.017674504368738,-0.46586088562345473,-1.48751595475984,9.7686490739187,0.0018023594469501751,0.0029411933605949414,0.003272492347489368,25.887744437522244,54.046967425911475,-13.75
1772911097.927367,7.4021639847254e-05,0.7028412784978465,-9.017674504368738,-0.46633560696137283,-1.4859218934101148,9.769100973783727,-0.0008160054548479414,0.0013091824508990582,0.001090830782496456,25.887744437522244,54.046967425911475,-13.75
1772911097.9403007,7.4021639847254e-05,0.7028412784978465,-9.017674504368738,-0.46633560696137283,-1.4859218934101148,9.769100973783727,-0.0008160054548479414,0.0013091824508990582,0.001090830782496456,25.887744437522244,54.046967425911475,-13.75
1772911097.9542413,7.4021639847254e-05,0.7028412784978465,-9.017674504368738,-0.4666515287087726,-1.484861063388705,9.766056596388532,0.0,0.0,0.002181661564992912,25.015873849359604,53.60768770011374,-13.75
1772911097.9713116,7.4021639847254e-05,0.7028412784978465,-9.017674504368738,-0.46761795261568195,-1.4874136142811012,9.764030597239953,0.0002465884980255584,0.0010625939528734999,0.001090830782496456,25.015873849359604,53.60768770011374,-13.75
1772911097.9834487,7.4021639847254e-05,0.7028412784978465,-9.017674504368738,-0.46761795261568195,-1.4874136142811012,9.764030597239953,0.0002465884980255584,0.0010625939528734999,0.001090830782496456,25.015873849359604,53.60768770011374,-13.75
1772911097.9996426,7.4021639847254e-05,0.7028412784978465,-9.017674504368738,-0.4682610969300678,-1.489112308386129,9.766027429145787,0.0,0.0,0.002181661564992912,25.015873849359604,53.60768770011374,-13.75
1772911098.0159547,7.4021639847254e-05,0.7028412784978465,-9.017674504368738,-0.46793292077380677,-1.486984248915972,9.767356298473045,-0.0008160054548479414,0.0013091824508990582,0.0,24.721223357411628,53.996869325572625,-13.75
1772911098.028738,7.4021639847254e-05,0.7028412784978465,-9.017674504368738,-0.46793292077380677,-1.486984248915972,9.767356298473045,-0.0008160054548479414,0.0013091824508990582,0.0,24.721223357411628,53.996869325572625,-13.75
1772911098.043789,7.4021639847254e-05,0.7028412784978465,-9.017674504368738,-0.4644560017863859,-1.4863242306236562,9.768240646165893,-0.0008160054548479414,0.0013091824508990582,0.002181661564992912,24.721223357411628,53.996869325572625,-13.75
1772911098.0564237,7.4021639847254e-05,0.7028412784978465,-9.017674504368738,-0.4646444909482922,-1.4818702928885183,9.762138946262032,0.000569416956822383,-0.0023717764037725583,0.002181661564992912,24.721223357411628,53.996869325572625,-13.75
1772911098.0721838,7.4021639847254e-05,0.7028412784978465,-9.017674504368738,-0.4646444909482922,-1.4818702928885183,9.762138946262032,0.000569416956822383,-0.0023717764037725583,0.002181661564992912,24.721223357411628,53.996869325572625,-13.75
1772911098.0867019,7.4021639847254e-05,0.7028412784978465,-9.017674504368738,-0.461511406958582,-1.4796624285926208,9.761423444843787,-0.0002465884980255584,-0.0010625939528734999,0.0,25.15715865149295,54.21650918847149,-14.5
1772911098.1053228,7.4021639847254e-05,0.7028412784978465,-9.017674504368738,-0.4594263745622712,-1.4781931195671612,9.7576021749353,0.0,0.0,0.002181661564992912,25.15715865149295,54.21650918847149,-14.5
1772911098.1232767,7.4021639847254e-05,0.7028412784978465,-9.017674504368738,-0.4580388087938644,-1.477215310823975,9.758404274204903,0.0004931769960511168,0.0021251879057469997,0.0,25.15715865149295,54.21650918847149,-14.5
1772911098.147369,7.4021639847254e-05,0.7028412784978465,-9.017674504368738,-0.4580388087938644,-1.477215310823975,9.758404274204903,0.0004931769960511168,0.0021251879057469997,0.0,25.15715865149295,54.21650918847149,-14.5
1772911098.1614318,7.4021639847254e-05,0.7028412784978465,-9.017674504368738,-0.46037392069651184,-1.475808408515132,9.755592950601468,0.0002465884980255584,0.0010625939528734999,0.0,25.817102036455573,53.7425566817326,-13.75
1772911098.1772726,7.4021639847254e-05,0.7028412784978465,-9.017674504368738,-0.46268409309590675,-1.4781306521661226,9.757067157855245,-7.623996077126615e-05,0.0044969643095195575,0.001090830782496456,25.817102036455573,53.7425566817326,-13.75
1772911098.1894684,7.4021639847254e-05,0.7028412784978465,-9.017674504368738,-0.46268409309590675,-1.4781306521661226,9.757067157855245,-7.623996077126615e-05,0.0044969643095195575,0.001090830782496456,25.817102036455573,53.7425566817326,-13.75
1772911098.2020283,7.4021639847254e-05,0.7028412784978465,-9.017674504368738,-0.4649776685344795,-1.4829346007960924,9.75470311460734,-0.0013091824508990582,-0.0008160054548479414,0.001090830782496456,25.817102036455573,53.7425566817326,-13.75
1772911098.2159188,7.4021639847254e-05,0.7028412784978465,-9.017674504368738,-0.4665040173679333,-1.486131574945715,9.753129870233952,0.0008160054548479414,-0.0013091824508990582,0.0,25.39092699460515,53.841456043225946,-15.0
1772911098.238673,7.4021639847254e-05,0.7028412784978465,-9.017674504368738,-0.4665040173679333,-1.486131574945715,9.753129870233952,0.0008160054548479414,-0.0013091824508990582,0.0,25.39092699460515,53.841456043225946,-15.0
1772911098.2630036,7.4021639847254e-05,0.7028412784978465,-9.017674504368738,-0.4660074224399789,-1.4817420826869534,9.752082893677754,-0.0002465884980255584,-0.0010625939528734999,0.0,25.39092699460515,53.841456043225946,-15.0
1772911098.286939,7.4021639847254e-05,0.7028412784978465,-9.017674504368738,-0.4656769440627541,-1.478820924622589,9.751386142475098,0.0015557709489246168,0.0018785994077214414,0.0,24.291703883844797,55.18727913812747,-14.5
1772911098.3078117,7.4021639847254e-05,0.7028412784978465,-9.017674504368738,-0.46545701439439635,-1.4768769265622281,9.747577350625633,-0.0015557709489246168,-0.0018785994077214414,0.001090830782496456,24.291703883844797,55.18727913812747,-14.5
1772911098.3316214,7.4021639847254e-05,0.7028412784978465,-9.017674504368738,-0.4653106536568796,-1.4755832175689392,9.751732865611444,-0.0003228284587968245,0.003434370356646058,0.001090830782496456,24.291703883844797,55.18727913812747,-14.5
1772911098.343762,7.4021639847254e-05,0.7028412784978465,-9.017674504368738,-0.4653106536568796,-1.4755832175689392,9.751732865611444,-0.0003228284587968245,0.003434370356646058,0.001090830782496456,24.291703883844797,55.18727913812747,-14.5
1772911098.3580549,7.4021639847254e-05,0.7028412784978465,-9.017674504368738,-0.46596943373411087,-1.4779807901069788,9.754498314414358,0.0,0.0,-0.001090830782496456,25.15715865149295,54.21650918847149,-15.0
1772911098.37486,7.4021639847254e-05,0.7028412784978465,-9.017674504368738,-0.46716402602954477,-1.482834869269801,9.756338689700609,-0.0023717764037725583,-0.000569416956822383,0.001090830782496456,25.15715865149295,54.21650918847149,-15.0
1772911098.3879495,7.4021639847254e-05,0.7028412784978465,-9.017674504368738,-0.46716402602954477,-1.482834869269801,9.756338689700609,-0.0023717764037725583,-0.000569416956822383,0.001090830782496456,25.15715865149295,54.21650918847149,-15.0
1772911098.4000857,7.4021639847254e-05,0.7028412784978465,-9.017674504368738,-0.46795901385768573,-1.4860652047290421,9.757563438895271,-0.0004931769960511168,-0.0021251879057469997,0.0,25.15715865149295,54.21650918847149,-15.0
1772911098.4120474,7.4021639847254e-05,0.7028412784978465,-9.017674504368738,-0.4644733664422285,-1.4857126169836505,9.758378495802974,0.0013091824508990582,0.0008160054548479414,0.0,25.23551371225847,53.171752406032425,-14.0625
1772911098.427743,7.4021639847254e-05,0.7028412784978465,-9.017674504368738,-0.4644733664422285,-1.4857126169836505,9.758378495802974,0.0013091824508990582,0.0008160054548479414,0.0,25.23551371225847,53.171752406032425,-14.0625
1772911098.441402,7.4021639847254e-05,0.7028412784978465,-9.017674504368738,-0.4621537070244746,-1.4854779737777557,9.762266018777588,-0.0008160054548479414,0.0013091824508990582,0.0,25.23551371225847,53.171752406032425,-14.0625
1772911098.462178,7.4021639847254e-05,0.7028412784978465,-9.017674504368738,-0.4621537070244746,-1.4854779737777557,9.762266018777588,-0.0008160054548479414,0.0013091824508990582,0.0,25.23551371225847,53.171752406032425,-14.0625
1772911098.4788303,7.4021639847254e-05,0.7028412784978465,-9.017674504368738,-0.46136618110734506,-1.488580342766766,9.761508010183396,-0.0010625939528734999,0.0002465884980255584,0.001090830782496456,25.7464596353889,53.43814593755373,-13.25
1772911098.4967055,7.4021639847254e-05,0.7028412784978465,-9.017674504368738,-0.46136618110734506,-1.488580342766766,9.761508010183396,-0.0010625939528734999,0.0002465884980255584,0.001090830782496456,25.7464596353889,53.43814593755373,-13.25
1772911098.5162618,7.4021639847254e-05,0.7028412784978465,-9.017674504368738,-0.4641006128281333,-1.4898887531601281,9.761003563931473,-0.0018023594469501751,-0.0029411933605949414,-0.002181661564992912,25.7464596353889,53.43814593755373,-13.25
1772911098.5313635,7.4021639847254e-05,0.7028412784978465,-9.017674504368738,-0.4641006128281333,-1.4898887531601281,9.761003563931473,-0.0018023594469501751,-0.0029411933605949414,-0.002181661564992912,25.7464596353889,53.43814593755373,-13.25
1772911098.5494845,7.4021639847254e-05,0.7028412784978465,-9.017674504368738,-0.465164165079622,-1.4875009642396118,9.760667860585851,-0.0002465884980255584,-0.0010625939528734999,0.0,25.817102036455573,53.7425566817326,-14.0625
1772911098.5632374,7.4021639847254e-05,0.7028412784978465,-9.017674504368738,-0.46587194722233055,-1.485911917386358,9.760444453759392,-0.000569416956822383,0.0023717764037725583,0.0,25.817102036455573,53.7425566817326,-14.0625
1772911098.5805533,7.4021639847254e-05,0.7028412784978465,-9.017674504368738,-0.46587194722233055,-1.485911917386358,9.760444453759392,-0.000569416956822383,0.0023717764037725583,0.0,25.817102036455573,53.7425566817326,-14.0625
1772911098.5972607,7.4021639847254e-05,0.7028412784978465,-9.017674504368738,-0.46709914984495066,-1.4881129458777311,9.763640890719321,0.0,0.0,0.001090830782496456,25.817102036455573,53.7425566817326,-14.0625
1772911098.6144204,7.4021639847254e-05,0.7028412784978465,-9.017674504368738,-0.4679158394815528,-1.4895777057516406,9.762422972102295,-0.0002465884980255584,-0.0010625939528734999,0.0,25.97251531880225,54.41226031892612,-14.0625
1772911098.6293516,7.4021639847254e-05,0.7028412784978465,-9.017674504368738,-0.46770315579859845,-1.4872939656638906,9.764957572575025,0.0,0.0,-0.002181661564992912,25.97251531880225,54.41226031892612,-14.0625
1772911098.648237,7.4021639847254e-05,0.7028412784978465,-9.017674504368738,-0.46770315579859845,-1.4872939656638906,9.764957572575025,0.0,0.0,-0.002181661564992912,25.97251531880225,54.41226031892612,-14.0625
1772911098.6749616,7.4021639847254e-05,0.7028412784978465,-9.017674504368738,-0.47082013860482164,-1.4850179806334491,9.763299209168965,-0.0004931769960511168,-0.0021251879057469997,0.001090830782496456,25.97251531880225,54.41226031892612,-14.0625
1772911098.6901052,7.4021639847254e-05,0.7028412784978465,-9.017674504368738,-0.46963593442198687,-1.4842595195332011,9.765540698554684,0.0004169370352798508,0.006622152215266558,0.002181661564992912,24.656996776859444,55.102508256847464,-14.0625
1772911098.7075243,7.4021639847254e-05,0.7028412784978465,-9.017674504368738,-0.4721063811881348,-1.4829985906304597,9.777067719823762,-0.0004931769960511168,-0.0021251879057469997,0.007635815477475192,24.656996776859444,55.102508256847464,-14.0625
1772911098.731893,7.4021639847254e-05,0.7028412784978465,-9.017674504368738,-0.4721063811881348,-1.4829985906304597,9.777067719823762,-0.0004931769960511168,-0.0021251879057469997,0.007635815477475192,24.656996776859444,55.102508256847464,-14.0625
1772911098.74514,-0.00046735534525846025,0.7097687559285705,-9.01688460243874,-0.4737504359143076,-1.4821594565311837,9.784738823713068,-0.004308747156553505,0.020036805183053966,0.003272492347489368,24.656996776859444,55.102508256847464,-14.0625
1772911098.7579904,0.025114358256676295,0.7482595424718284,-9.026902467710725,-0.4763568989954652,-1.488118065004652,9.776463410830278,0.004438592964460052,0.019126691151722996,0.04254240051736178,23.980877319151436,53.84787186374043,-13.75
1772911098.7737095,0.025114358256676295,0.7482595424718284,-9.026902467710725,-0.4763568989954652,-1.488118065004652,9.776463410830278,0.004438592964460052,0.019126691151722996,0.04254240051736178,23.980877319151436,53.84787186374043,-13.75
1772911098.7906668,0.09464375360135559,0.7607101667584008,-9.025565557871195,-0.47809147105987515,-1.4920834523817268,9.7709562159992,-0.000645656917593649,0.006868740713292116,0.06763150851478027,23.980877319151436,53.84787186374043,-13.75
1772911098.8043149,0.15778655288446675,0.7656913367402728,-9.025122795829503,-0.47809147105987515,-1.4920834523817268,9.7709562159992,-0.005160489842824967,-0.0077609861289113236,0.05345070834232634,23.980877319151436,53.84787186374043,-13.75
1772911098.8168197,0.15778655288446675,0.7656913367402728,-9.025122795829503,-0.47809147105987515,-1.4920834523817268,9.7709562159992,-0.005160489842824967,-0.0077609861289113236,0.05345070834232634,23.980877319151436,53.84787186374043,-13.75
1772911098.832676,0.15832790191840232,0.758764904647317,-9.025922007256908,-0.5965525805625915,-1.4674998389135756,9.767291239358515,0.0046494442310620904,-0.00891768865826785,-0.02399827721492203,24.791865758478302,54.3012800697515,-14.5
1772911098.8496678,0.003106421428328816,0.7526643501290474,-9.018966588634092,-0.6746309441262578,-1.4478811973460801,9.77154246175925,0.01333841300701614,0.009222648501352914,-0.10362892433716332,24.791865758478302,54.3012800697515,-14.5
1772911098.8633416,-0.059386980863834524,0.7399721588789201,-9.013253117279676,-0.5701821946583533,-1.471121923165918,9.744265597411799,-0.0009863539921022336,-0.004250375811493999,-0.07744898555724837,24.791865758478302,54.3012800697515,-14.5
1772911098.8830295,-0.059386980863834524,0.7399721588789201,-9.013253117279676,-0.5701821946583533,-1.471121923165918,9.744265597411799,-0.0009863539921022336,-0.004250375811493999,-0.07744898555724837,24.791865758478302,54.3012800697515,-14.5
1772911098.9019384,-0.04412979639226158,0.7248373235588765,-8.993828158915555,-0.4731469796650908,-1.5307500988624816,9.746183819135027,0.008729471505301796,-0.015463600912763142,0.014180800172453928,25.241929532772957,54.58180208148614,-13.75
1772911098.9167695,-0.0014924705748046545,0.7172001505882382,-8.959340691145984,-0.44441486367681654,-1.5621139870541652,9.747460374263893,0.011347836407099913,-0.013831590003067258,0.02399827721492203,25.241929532772957,54.58180208148614,-13.75
1772911098.929336,-0.0014924705748046545,0.7172001505882382,-8.959340691145984,-0.44441486367681654,-1.5621139870541652,9.747460374263893,0.011347836407099913,-0.013831590003067258,0.02399827721492203,25.241929532772957,54.58180208148614,-13.75
1772911098.9427214,0.02647316346696302,0.7263843805617415,-8.958664393549576,-0.4800568486530585,-1.4638237839106267,9.828592588417765,0.005635798223164324,-0.0046673128467738505,0.025089107997418487,25.241929532772957,54.58180208148614,-13.75
1772911098.9571981,0.03501471966974204,0.7061393857330086,-8.960934145257658,-0.5037761915076875,-1.3984127516921132,9.88258517063095,-0.014324766999118374,-0.013473024312846912,0.01090830782496456,25.086516250426275,53.91209844429262,-13.25
1772911098.9717898,0.03501471966974204,0.7061393857330086,-8.960934145257658,-0.5037761915076875,-1.3984127516921132,9.88258517063095,-0.014324766999118374,-0.013473024312846912,0.01090830782496456,25.086516250426275,53.91209844429262,-13.25
1772911098.9854574,-0.0005214318539335119,0.7041348152188631,-8.967848518657183,-0.5136212879222981,-1.4180729151034974,9.81816327973758,-0.015369492336280115,0.0013270510666108185,-0.03490658503988659,25.086516250426275,53.91209844429262,-13.25
1772911098.998307,-0.007554288238832719,0.7043858925174504,-8.974881375042088,-0.5001543703428494,-1.463274157711271,9.775291230987717,0.0014795309881533508,0.006375563717240999,-0.001090830782496456,25.086516250426275,53.91209844429262,-13.25
1772911099.0104275,-0.007554288238832719,0.7043858925174504,-8.974881375042088,-0.5001543703428494,-1.463274157711271,9.775291230987717,0.0014795309881533508,0.006375563717240999,-0.001090830782496456,25.086516250426275,53.91209844429262,-13.25
1772911099.0249968,-0.007554288238832719,0.7043858925174504,-8.974881375042088,-0.442314465808098,-1.504697802432161,9.753450584871487,0.009809934073887057,-0.001156702529356526,0.0,24.791865758478302,54.3012800697515,-13.75
1772911099.0434496,0.006406570638881877,0.7046731536169291,-8.967743711049662,-0.4023102924281057,-1.525747732418688,9.748951213979097,0.009240517117064674,0.0012150738744160325,0.011999138607461015,24.791865758478302,54.3012800697515,-13.75
1772911099.0571015,0.006406570638881877,0.7046731536169291,-8.967743711049662,-0.4023102924281057,-1.525747732418688,9.748951213979097,0.009240517117064674,0.0012150738744160325,0.011999138607461015,24.791865758478302,54.3012800697515,-13.75
1772911099.080475,-0.00798789085612465,0.7105240834513156,-8.967163788950032,-0.3879110706861076,-1.4888436551903945,9.782753161691991,0.006563780870207051,0.01863351415567188,-0.016362461737446838,24.791865758478302,54.3012800697515,-13.75
1772911099.0968938,-0.00798789085612465,0.7105240834513156,-8.967163788950032,-0.3879110706861076,-1.4888436551903945,9.782753161691991,0.006563780870207051,0.01863351415567188,-0.016362461737446838,24.791865758478302,54.3012800697515,-13.75
1772911099.1148353,0.07242964624185484,0.7726124622215695,-8.960619534193974,-0.38891509064994334,-1.5099037039400771,9.805247980302424,0.007303546364283727,0.02182129601429238,0.061086523819801536,25.13661435076513,52.745577364182,-15.25
1772911099.1285093,0.14390472273990976,0.7618464954076534,-8.940875550968313,-0.38126525807622513,-1.4880751954914648,9.763351131779649,0.005940758066249387,-0.022655170084852082,0.04581489286485115,25.13661435076513,52.745577364182,-15.25
1772911099.1430259,0.14375084405487903,0.7540128055343502,-8.93421049174628,-0.48696410828014186,-1.4478383955141987,9.735469247106206,0.008083814587708148,-0.008594860199471026,-0.017453292519943295,25.13661435076513,52.745577364182,-15.25
1772911099.1564608,0.14375084405487903,0.7540128055343502,-8.93421049174628,-0.48696410828014186,-1.4478383955141987,9.735469247106206,0.008083814587708148,-0.008594860199471026,-0.017453292519943295,25.13661435076513,52.745577364182,-15.25
1772911099.1727583,0.11625684513171015,0.7502758352050084,-8.920787529878902,-0.5542807863049583,-1.4080271689182469,9.753710393097604,0.011935121979634056,-0.0016498795254076427,-0.022907446432425576,24.261399330886075,53.397808089445775,-13.75
1772911099.1850138,0.12436196365097323,0.7361594793874964,-8.915346667090592,-0.4622213838552355,-1.4132928658890491,9.836097017841633,0.00798970601122512,-0.01865138277138364,0.017453292519943295,24.261399330886075,53.397808089445775,-13.75
1772911099.1977108,0.22725722284910044,0.6819140068431971,-8.865391150617379,-0.42212996226243066,-1.508035728200544,9.997967970924105,0.023763032264997548,-0.09062068033940833,0.10581058590215622,24.261399330886075,53.397808089445775,-13.75
1772911099.2115228,0.22725722284910044,0.6819140068431971,-8.865391150617379,-0.42212996226243066,-1.508035728200544,9.997967970924105,0.023763032264997548,-0.09062068033940833,0.10581058590215622,24.261399330886075,53.397808089445775,-13.75
1772911099.2252104,0.45871827796025716,0.6079717514283521,-8.804192143636488,-0.4673014265316948,-1.6883380204860108,10.105691281983464,0.04655281365568041,-0.10822733777363022,0.2279836335417593,26.111752528403546,53.35337505627372,2033.5
1772911099.2396843,0.45871827796025716,0.6079717514283521,-8.804192143636488,-0.6309472959368438,-1.9696312991250662,10.100442372876891,0.12121195058835024,-0.032608053084433215,0.2530727415391778,26.111752528403546,53.35337505627372,2033.5
1772911099.2622592,0.7460829524628866,0.627077398598596,-8.661486169760003,-0.6309472959368438,-1.9696312991250662,10.100442372876891,0.12121195058835024,-0.032608053084433215,0.2530727415391778,26.111752528403546,53.35337505627372,2033.5
1772911099.2845044,1.2212420482805426,0.886214009391605,-8.129478681919496,-0.8799682151019005,-2.1243130287445857,10.096949282500622,0.42043221176962464,0.0793645737628375,0.36106498900632694,26.111752528403546,53.35337505627372,2033.5
1772911099.298905,1.9091800709967761,1.4064167761052566,-7.1429691666787685,-1.0710848678144078,-1.877958222852686,10.121385563534147,0.7165635651666858,0.13942257684084924,0.45487643630102215,25.7464596353889,53.43814593755373,-13.25
1772911099.3270195,1.9091800709967761,1.4064167761052566,-7.1429691666787685,-1.0710848678144078,-1.877958222852686,10.121385563534147,0.7165635651666858,0.13942257684084924,0.45487643630102215,25.7464596353889,53.43814593755373,-13.25
1772911099.341062,2.5646357568910076,2.1408102782933107,-5.859012408186115,-1.203275545098295,-1.7059824456261476,10.15437319412741,0.807529708078527,0.11159381379538465,0.4406956361285682,25.7464596353889,53.43814593755373,-13.25
1772911099.3534596,3.150973745702928,3.028583492470111,-4.4815471431694585,-1.2867098750855486,-1.5719833584488117,10.176326093791248,0.9072646318490325,0.30009464598719826,0.4036073895236887,25.7464596353889,53.43814593755373,-13.25
1772911099.3702307,3.150973745702928,3.028583492470111,-4.4815471431694585,-1.2867098750855486,-1.5719833584488117,10.176326093791248,0.9072646318490325,0.30009464598719826,0.4036073895236887,25.7464596353889,53.43814593755373,-13.25
1772911099.387037,3.3800088296127124,3.71885710663932,-3.7621931471495804,-1.342234489669531,-1.4828084628001772,10.234421955482727,0.8620257661421754,0.3464270773804281,0.28907015736156083,25.322605228988863,51.61168147248049,-13.75
1772911099.3989959,3.5001860685861,4.3378749206946585,-3.0324330175181813,-1.4221234604528163,-1.4753113178621828,10.350021671733455,0.7379667307697132,0.3908940124837242,0.11235557059713497,25.322605228988863,51.61168147248049,-13.75
1772911099.4110363,3.5001860685861,4.3378749206946585,-3.0324330175181813,-1.4221234604528163,-1.4753113178621828,10.350021671733455,0.7379667307697132,0.3908940124837242,0.11235557059713497,25.322605228988863,51.61168147248049,-13.75
1772911099.4249983,3.506391648102628,4.91332192875349,-2.4183989528059238,-1.4914022852347775,-1.5249607343052003,10.42695199156487,0.6302683072235576,0.37557336049665513,0.008726646259971648,25.322605228988863,51.61168147248049,-13.75
1772911099.4373753,3.506391648102628,4.91332192875349,-2.4183989528059238,-1.4914022852347775,-1.5249607343052003,10.42695199156487,0.6302683072235576,0.37557336049665513,0.008726646259971648,25.322605228988863,51.61168147248049,-13.75
1772911099.4553232,3.4159916313378482,5.399974594087428,-1.8918631851115715,-1.5852154137078038,-1.615610479624725,10.46476781321542,0.5850925783596842,0.340144428863685,-0.038179077387375956,22.721121944714277,50.35472444392307,-14.0625
1772911099.4698844,3.4159916313378482,5.399974594087428,-1.8918631851115715,-1.5852154137078038,-1.615610479624725,10.46476781321542,0.5850925783596842,0.340144428863685,-0.038179077387375956,22.721121944714277,50.35472444392307,-14.0625
1772911099.494755,3.1817820682913447,5.921830475524104,-1.524029895247251,-1.653696454850029,-1.7020050438820393,10.489933820093455,0.48165406162087115,0.19841559921401725,-0.1189005552921137,22.721121944714277,50.35472444392307,-14.0625
1772911099.5101888,2.8839931561503196,6.338937528925992,-2.1671041862462412,-1.6992698227468264,-1.7594996613047635,10.570238638987139,0.304044819447515,0.04590358461614768,-0.0545415391248228,22.138509824251148,48.95006679271781,-13.25
1772911099.5294924,2.8839931561503196,6.338937528925992,-2.1671041862462412,-1.6992698227468264,-1.7594996613047635,10.570238638987139,0.304044819447515,0.04590358461614768,-0.0545415391248228,22.138509824251148,48.95006679271781,-13.25
1772911099.543158,2.8932267764735062,6.463864760981811,-2.7506157802511724,-1.6960231988981782,-1.8158552478508314,10.623680598897279,0.18668894174901493,0.022745706539396032,0.06544984694978735,22.138509824251148,48.95006679271781,-13.25
1772911099.555418,2.8932267764735062,6.463864760981811,-2.7506157802511724,-1.6960231988981782,-1.8158552478508314,10.623680598897279,0.18668894174901493,0.022745706539396032,0.06544984694978735,22.138509824251148,48.95006679271781,-13.25
1772911099.5722246,3.154200235836567,6.523422889518237,-2.615045676649611,-1.6775699998870828,-1.8571401687295497,10.65924562623167,0.12348485291771555,0.0206157531357248,0.19198621771937624,22.138509824251148,48.95006679271781,-13.25
1772911099.5867596,3.6040174959384377,6.5900495874730405,-2.5388143044722242,-1.5240188178607292,-1.7937744041794845,10.659497972684083,-0.0001167426901190116,0.038100902381903466,0.44505895925855404,18.17427661898196,40.43837380047231,-12.0625
1772911099.6050458,4.217235080852199,6.635716807934896,-2.576488565754419,-1.3761033307897137,-1.6729330908618014,10.569347890331647,-0.1229202014588174,0.0397233822957509,0.5868669609830933,18.17427661898196,40.43837380047231,-12.0625
1772911099.6174667,4.217235080852199,6.635716807934896,-2.576488565754419,-1.3761033307897137,-1.6729330908618014,10.569347890331647,-0.1229202014588174,0.0397233822957509,0.5868669609830933,18.17427661898196,40.43837380047231,-12.0625
1772911099.633144,4.960718008624768,6.656937573803467,-2.7385746937635527,-1.2369430155732484,-1.5058130360142385,10.419036001470882,-0.2571834738268105,0.030567442759320797,0.6828600698427815,18.17427661898196,40.43837380047231,-12.0625
1772911099.6480458,6.211289848977627,6.615534450525526,-3.125406147581311,-1.103196374092257,-1.380104853060754,10.255447996088792,-0.32522522404213794,0.017242132870092176,0.7450374244450795,14.856609071809746,35.818770105733954,-12.0625
1772911099.6633096,6.211289848977627,6.615534450525526,-3.125406147581311,-1.103196374092257,-1.380104853060754,10.255447996088792,-0.32522522404213794,0.017242132870092176,0.7450374244450795,14.856609071809746,35.818770105733954,-12.0625
1772911099.680018,7.114736941080464,6.529685832607753,-3.448793339612812,-0.9592074094028392,-1.237092689865393,10.093060218587656,-0.41286420829160364,-0.041927196914239455,0.8148505945248526,14.856609071809746,35.818770105733954,-12.0625
1772911099.694933,8.052410915153464,6.410931325139426,-3.8287177547799267,-0.7717475804779956,-1.0429950733223665,9.984992966650983,-0.4833718434871867,-0.06587844633220305,0.8344855486097889,14.856609071809746,35.818770105733954,-12.0625
1772911099.7104323,8.052410915153464,6.410931325139426,-3.8287177547799267,-0.7717475804779956,-1.0429950733223665,9.984992966650983,-0.4833718434871867,-0.06587844633220305,0.8344855486097889,14.856609071809746,35.818770105733954,-12.0625
1772911099.7330172,9.511131512025015,6.0615509238118825,-4.43322299944378,-0.6379209802349054,-0.8747230206686631,9.953216758165263,-0.5095733611208797,-0.09675204231059407,0.856302164259718,11.694627849902549,28.275799470612387,-14.5
1772911099.7471242,10.495455149929532,5.659195288582437,-4.772624173137297,-0.5372843546487963,-0.7276522952273418,9.938760269796163,-0.5319998113234179,-0.11618369330540211,0.8595746566072073,11.694627849902549,28.275799470612387,-14.5
1772911099.7594278,11.501911460580002,5.260903703961287,-5.069145214134135,-0.4399403394253087,-0.6024864267114672,9.93582986169072,-0.49406925747876873,-0.12162650887767616,0.8770279491271507,11.694627849902549,28.275799470612387,-14.5
1772911099.7730725,11.501911460580002,5.260903703961287,-5.069145214134135,-0.4399403394253087,-0.6024864267114672,9.93582986169072,-0.49406925747876873,-0.12162650887767616,0.8770279491271507,11.694627849902549,28.275799470612387,-14.5
1772911099.7867692,12.517833301642721,4.927390289343226,-5.315964496354082,-0.3719004632765805,-0.5199461209216097,9.970675936611865,-0.46594863770800665,-0.12591262192059366,0.8879362569521152,10.694850186472209,22.86165645221088,-17.25
1772911099.7999737,13.541320676785235,4.675642760211739,-5.557950815855068,-0.3281330487810037,-0.4715335122968836,9.993865610215726,-0.4229338339813038,-0.11909748705443683,0.8977537339945832,10.694850186472209,22.86165645221088,-17.25
1772911099.811911,13.541320676785235,4.675642760211739,-5.557950815855068,-0.3281330487810037,-0.4715335122968836,9.993865610215726,-0.4229338339813038,-0.11909748705443683,0.8977537339945832,10.694850186472209,22.86165645221088,-17.25
1772911099.824459,14.569663975592414,4.446172727446123,-5.757406836215301,-0.30552336619104625,-0.43780309903521764,10.005952967246147,-0.397319601920145,-0.10040560155370547,0.8955720724295904,10.694850186472209,22.86165645221088,-17.25
1772911099.8377726,14.569663975592414,4.446172727446123,-5.757406836215301,-0.30552336619104625,-0.43780309903521764,10.005952967246147,-0.397319601920145,-0.10040560155370547,0.8955720724295904,10.694850186472209,22.86165645221088,-17.25
1772911099.8562434,16.117120133617927,4.230937592985242,-6.127519795162657,-0.2897206934810409,-0.4120973643815867,9.990581186374031,-0.3962796420809075,-0.05249476509791493,0.9108437033845407,5.5432785574462455,16.42200411291377,-27.5625
1772911099.868834,16.117120133617927,4.230937592985242,-6.127519795162657,-0.2897206934810409,-0.4120973643815867,9.990581186374031,-0.3962796420809075,-0.05249476509791493,0.9108437033845407,5.5432785574462455,16.42200411291377,-27.5625
1772911099.897117,17.118345496050896,4.2274518919451785,-6.46887180429646,-0.2792041913199531,-0.3949904851214664,9.946900320844488,-0.3806099553994665,-0.009098761567355734,0.8835729338221293,5.5432785574462455,16.42200411291377,-27.5625
1772911099.9241855,18.956543961851438,4.225787538797315,-7.0214321734640555,-0.31037265218942495,-0.4296929387078337,9.827513176684194,-0.34078293353138417,-0.0015438612071222162,0.8093964406123704,3.2569900658474538,16.246797283186954,-33.0625
1772911099.9391932,19.833064153649975,4.1714604423137285,-7.1668389926579446,-0.33111491472353716,-0.4527870339177545,9.727991695643386,-0.2816588719743245,0.007132004451044286,0.7777623479199731,3.2569900658474538,16.246797283186954,-33.0625
1772911099.9521208,20.723388299048462,4.168928527854396,-7.327689970435216,-0.34067016043021664,-0.479443823592385,9.594859027592127,-0.2511843444155016,-0.011138178516483016,0.8006697943523987,3.2569900658474538,16.246797283186954,-33.0625
1772911099.9644322,20.723388299048462,4.168928527854396,-7.327689970435216,-0.34067016043021664,-0.479443823592385,9.594859027592127,-0.2511843444155016,-0.011138178516483016,0.8006697943523987,3.2569900658474538,16.246797283186954,-33.0625
1772911099.9789104,21.63686015794076,4.1968129420310225,-7.524427816513907,-0.3470290697089234,-0.49718361934499977,9.486190053949446,-0.2450732378119979,-0.028233790338942043,0.8235772407848243,2.0164821529537535,16.983798889730735,-37.0
1772911099.9927175,22.56995347730283,4.09784196117052,-7.541306278252258,-0.3507384666561683,-0.491940466631785,9.413872065902217,-0.23801151444781551,-0.07018600011277142,0.8213955792198313,2.0164821529537535,16.983798889730735,-37.0
1772911100.00485,22.56995347730283,4.09784196117052,-7.541306278252258,-0.3507384666561683,-0.491940466631785,9.413872065902217,-0.23801151444781551,-0.07018600011277142,0.8213955792198313,2.0164821529537535,16.983798889730735,-37.0
1772911100.0176215,23.487068206987242,4.060608584390198,-7.703458542931294,-0.34564521375695995,-0.4558659928570243,9.459408380506586,-0.23453664136182173,-0.10346710972635849,0.8093964406123704,2.0164821529537535,16.983798889730735,-37.0
1772911100.033237,24.390317751768844,4.007166011487728,-7.857788327547265,-0.3254407175968513,-0.4185909524835808,9.60344608725069,-0.22914743163668294,-0.10919701652600586,0.8017606251348951,1.07601675625649,17.90781517076428,-44.5
1772911100.049322,24.390317751768844,4.007166011487728,-7.857788327547265,-0.3254407175968513,-0.4185909524835808,9.60344608725069,-0.22914743163668294,-0.10919701652600586,0.8017606251348951,1.07601675625649,17.90781517076428,-44.5
1772911100.0780408,26.56054054059099,3.766885987864026,-7.942444464249863,-0.2746522101494061,-0.37814666005203773,9.69284498060807,-0.19241408305073804,-0.09084582809978305,0.7548549014875475,1.07601675625649,17.90781517076428,-44.5
1772911100.1051614,26.56054054059099,3.766885987864026,-7.942444464249863,-0.2746522101494061,-0.37814666005203773,9.69284498060807,-0.19241408305073804,-0.09084582809978305,0.7548549014875475,1.07601675625649,17.90781517076428,-44.5
1772911100.132329,28.326422902135853,3.736365879422866,-8.113456804738043,-0.2872698448969421,-0.4059718617404592,9.631681292082407,-0.1510491588494428,-0.09596581521326027,0.7897614865274342,1.3269849683800998,20.095204300869728,-48.75
1772911100.1496499,29.22018604417587,3.7523797248937782,-8.117457987648121,-0.3323214524276768,-0.4640590704310553,9.477243742562887,-0.061984249458959105,-0.07408138235598415,0.791943148092427,1.3269849683800998,20.095204300869728,-48.75
1772911100.1643353,29.22018604417587,3.7523797248937782,-8.117457987648121,-0.3323214524276768,-0.4640590704310553,9.477243742562887,-0.061984249458959105,-0.07408138235598415,0.791943148092427,1.3269849683800998,20.095204300869728,-48.75
1772911100.1877923,30.47860464087686,3.8972084904651374,-8.04594557633324,-0.5358007924880841,-0.7028332424513908,9.317600379513683,-0.0003049598430850646,0.01798785723807823,0.7526732399225546,1.3269849683800998,20.095204300869728,-48.75
1772911100.2003474,31.34332651120465,4.064568209662783,-7.981254274613679,-0.6712140202851222,-0.8617347866486544,9.157837717420543,0.021229244943834012,0.04322565499330491,0.8104872713948668,0.6146228476282386,23.661041714285812,-53.0625
1772911100.2164419,32.28080671598068,4.267400727696976,-7.859770539107612,-0.7352618393480068,-0.9735314413701154,9.018066333390237,0.07128313792108329,0.05624600503944845,0.8715737952146683,0.6146228476282386,23.661041714285812,-53.0625
1772911100.2306652,33.2314969213774,4.495248910920802,-7.670984775270315,-0.7877153071435357,-1.0902916447149469,8.92505003866673,0.1397239565559789,0.06163998026251144,0.8737554567796613,0.6146228476282386,23.661041714285812,-53.0625
1772911100.2495103,33.2314969213774,4.495248910920802,-7.670984775270315,-0.7877153071435357,-1.0902916447149469,8.92505003866673,0.1397239565559789,0.06163998026251144,0.8737554567796613,0.6146228476282386,23.661041714285812,-53.0625
1772911100.265884,34.62178920977709,4.83347246557156,-7.254720750398667,-0.9142592854039946,-1.2669188752310518,8.863148733588332,0.20495912471654223,0.05322023409821893,0.8497571795647392,1.0135647253180171,24.274231430625996,-55.0625
1772911100.2811394,35.533234534231774,5.042487164780817,-6.940119675743323,-0.9984728893474706,-1.3844623240840745,8.775122542639073,0.23034940239331145,0.02269210069226075,0.842121364087264,1.0135647253180171,24.274231430625996,-55.0625
1772911100.307396,35.533234534231774,5.042487164780817,-6.940119675743323,-0.9984728893474706,-1.3844623240840745,8.775122542639073,0.23034940239331145,0.02269210069226075,0.842121364087264,1.0135647253180171,24.274231430625996,-55.0625
1772911100.335678,37.03374931170942,5.317392883655509,-6.377269481613495,-0.8733868792541936,-1.3776614147730433,8.599463186123144,0.27298777181408224,-0.010718854729232886,0.9479319499894202,1.0135647253180171,24.274231430625996,-55.0625
1772911100.3512247,38.74924499949253,5.554562833761514,-5.790994024819731,-0.6998401185164048,-1.3391474991695451,8.245060915385702,0.230618625004973,-0.02440273030868183,1.0831949670189809,1.8841384742962968,27.472728358495385,-57.75
1772911100.3692477,40.01140783810816,5.71472115481205,-5.532316523353259,-0.5843466878897493,-1.3135169185640443,7.908856811923117,0.08807855539838148,0.017634057045782116,1.1562806294462433,1.8841384742962968,27.472728358495385,-57.75
1772911100.3878148,41.34097929414685,5.839219520415249,-5.537577878282373,-0.5563649212748188,-1.2851173307870476,7.685116736714684,-0.09512717564477632,0.10158255144472768,-34.51606761975286,1.8841384742962968,27.472728358495385,-57.75
1772911100.4000285,41.34097929414685,5.839219520415249,-5.537577878282373,-0.5563649212748188,-1.2851173307870476,7.685116736714684,-0.09512717564477632,0.10158255144472768,-34.51606761975286,1.8841384742962968,27.472728358495385,-57.75
1772911100.4127986,43.48886873442262,6.27119129062966,-5.81671470994748,-0.5332062790908442,-1.2466665938372565,7.643263790638096,-0.2748806677155763,0.20040736118390223,1.3002702927357754,2.5767070476680254,26.86288307387161,-59.25
1772911100.4260306,43.48886873442262,6.27119129062966,-5.81671470994748,-0.5332062790908442,-1.2466665938372565,7.643263790638096,-0.2748806677155763,0.20040736118390223,1.3002702927357754,2.5767070476680254,26.86288307387161,-59.25
1772911100.4490156,45.0487507235102,6.595702660495927,-6.100667548900114,-0.4086413006720961,-1.1502563589744172,7.70907425035711,-0.3588839613376423,0.2389383037188731,1.3951725708129672,2.5767070476680254,26.86288307387161,-59.25
1772911100.462748,46.655578782489656,7.016528630542287,-6.366772420114174,-0.31969524691166534,-1.0600282532749115,7.856568839076011,-0.31820996228121273,0.3370019072263201,1.4628040793277475,2.5767070476680254,26.86288307387161,-59.25
1772911100.487183,49.01152326885508,7.625688376672226,-6.393609160047357,-0.1699106326285865,-0.935155414598974,8.09856464366066,-0.14065789807693097,0.24316723879271626,1.421352509592882,4.603017828259998,28.959085502182567,-64.0625
1772911100.5041163,49.01152326885508,7.625688376672226,-6.393609160047357,-0.1699106326285865,-0.935155414598974,8.09856464366066,-0.14065789807693097,0.24316723879271626,1.421352509592882,4.603017828259998,28.959085502182567,-64.0625
1772911100.5224264,50.69895192454619,7.963498887041049,-6.170720780886986,0.010352004437844018,-0.7711680813962902,8.259610148341482,0.052398269769461624,0.12445810379203025,1.5555246958399462,4.603017828259998,28.959085502182567,-64.0625
1772911100.5360587,52.445211593330775,9.025659985562752,-5.281786980851476,0.13182713876614047,-0.6555193001656507,8.50058860100318,0.196476241709266,0.06974642896385558,1.5729779883598896,4.603017828259998,28.959085502182567,-64.0625
1772911100.550178,54.94082446492288,8.625573945985986,-5.049204962722067,0.2485112193308258,-0.5868743247822072,8.687717963002399,0.22274089618594267,0.01885866191604659,1.4889840181076623,3.2242965020310272,31.588825746883824,-66.0
1772911100.5697372,54.94082446492288,8.625573945985986,-5.049204962722067,0.2485112193308258,-0.5868743247822072,8.687717963002399,0.22274089618594267,0.01885866191604659,1.4889840181076623,3.2242965020310272,31.588825746883824,-66.0
1772911100.5867577,56.561593222720745,8.762168639373389,-4.581046635498602,0.3344811681440513,-0.5053481248437778,8.822285798162895,0.1739247111967454,-0.0515596302009777,1.4453507868078042,3.2242965020310272,31.588825746883824,-66.0
1772911100.599928,58.17016688469303,8.806858252602199,-4.228078311970167,0.391693208732,-0.45109334949207847,9.012192540460573,0.04476832282444198,-0.09661504425279299,1.4224433403753787,3.2242965020310272,31.588825746883824,-66.0
1772911100.6119416,58.17016688469303,8.806858252602199,-4.228078311970167,0.391693208732,-0.45109334949207847,9.012192540460573,0.04476832282444198,-0.09661504425279299,1.4224433403753787,3.2242965020310272,31.588825746883824,-66.0
1772911100.6257198,59.730628503245974,8.80366112118614,-4.003212450200995,0.22134601623052053,-0.46964069895673455,9.469739415086986,-0.06315882060402739,-0.09844480331130338,1.3722651243805417,3.2242965020310272,31.588825746883824,-68.6875
1772911100.6428163,61.24870925786808,8.816408939290554,-3.8806788468977427,0.0484627046133597,-0.5608896530586074,9.774231749017378,-0.1341286610621623,-0.03270335503690139,1.3482668471656196,3.2242965020310272,31.588825746883824,-68.6875
1772911100.6603103,63.50944178284401,8.952037736343598,-3.6931519137277156,-0.1251731844688658,-0.755681781711131,9.970177772431175,-0.05916456428640741,0.02492807241421739,1.3406310316881445,3.2242965020310272,31.588825746883824,-68.6875
1772911100.681752,63.50944178284401,8.952037736343598,-3.6931519137277156,-0.1251731844688658,-0.755681781711131,9.970177772431175,-0.05916456428640741,0.02492807241421739,1.3406310316881445,3.2242965020310272,31.588825746883824,-68.6875
1772911100.6968436,64.99231327282403,9.029692779070686,-3.4704426982000682,-0.24072592901311504,-0.8853137673587326,10.000224310932973,-0.002730342093992903,-0.026242020363040672,1.313360262125733,1.2205776146989253,32.631261893872505,-73.5
1772911100.7208397,67.1606320697945,8.943158304319848,-3.0117635721938996,-0.28691013843683805,-0.8688220832645301,10.020219946664092,0.06369369370541139,-0.1984310810777587,1.2708178616083712,1.2205776146989253,32.631261893872505,-73.5
1772911100.7415671,69.2330115934721,8.674618964880262,-2.513856250835757,-0.24201244884268985,-0.724302468852751,10.378073324731162,0.052027794337438885,-0.24387603255329363,1.2173671532660448,1.2205776146989253,32.631261893872505,-73.5
1772911100.7544653,69.2330115934721,8.674618964880262,-2.513856250835757,-0.24201244884268985,-0.724302468852751,10.378073324731162,0.052027794337438885,-0.24387603255329363,1.2173671532660448,1.2205776146989253,32.631261893872505,-73.5
1772911100.7777877,70.57069404434132,8.52901549062396,-2.228392651688233,-0.14260502041436965,-0.5652791913689272,10.686468096204344,0.03682388504048883,-0.17427851138904152,1.1879147221386406,1.0389549644576268,33.50750071001758,-77.0
1772911100.7930453,70.57069404434132,8.52901549062396,-2.228392651688233,-0.14260502041436965,-0.5652791913689272,10.686468096204344,0.03682388504048883,-0.17427851138904152,1.1879147221386406,1.0389549644576268,33.50750071001758,-77.0
1772911100.8110247,72.57752993757622,8.423713873633034,-1.7800466185602488,-0.07645048724905823,-0.45945097660984735,10.891701371624423,0.07008236054043993,-0.12264621334923163,1.1944597068336194,1.0389549644576268,33.50750071001758,-77.0
1772911100.824159,74.42791028535554,8.370873075455993,-1.4582303958751894,-0.060816895738558294,-0.43737891704318943,10.784088669176267,0.018562039692824835,-0.06477772839593574,1.102829921103917,1.0389549644576268,33.50750071001758,-77.0
1772911100.8368073,74.42791028535554,8.370873075455993,-1.4582303958751894,-0.060816895738558294,-0.43737891704318943,10.784088669176267,0.018562039692824835,-0.06477772839593574,1.102829921103917,1.0389549644576268,33.50750071001758,-77.0
1772911100.850412,75.53017736539574,8.072280168177928,-1.358547887906879,-0.06501415934475889,-0.4708118477705019,10.712473617809671,-0.028514922692405974,-0.050493464126165115,1.0079276430267252,-1.3703946639970765,36.1197680427891,-80.0625
1772911100.864582,76.56853845741696,7.489519041393661,-1.282912850098699,-0.06780739138817878,-0.49306108969922124,10.691575494776298,-0.039840124985869904,-0.08481929907691393,0.9162978572970231,-1.3703946639970765,36.1197680427891,-80.0625
1772911100.8803115,76.56853845741696,7.489519041393661,-1.282912850098699,-0.06780739138817878,-0.49306108969922124,10.691575494776298,-0.039840124985869904,-0.08481929907691393,0.9162978572970231,-1.3703946639970765,36.1197680427891,-80.0625
1772911100.9016576,77.56966295856432,6.875901645949872,-1.2302719941786444,-0.014684187278930727,-0.44851293997023517,10.67766802734492,-0.0671221051881481,-0.12999979343871154,0.8912087492996045,-1.3703946639970765,36.1197680427891,-80.0625
1772911100.9162633,79.03666134688932,6.612616173344747,-1.0974303651169937,0.023927233052098013,-0.419622825474126,10.611545864101497,-0.07085666988995498,-0.1750456764946784,0.8552113334772214,-2.2499779118585654,37.029655843609305,-82.5
1772911100.9295142,79.93470282570355,6.426983696906209,-1.0158227484601858,0.04735415742529507,-0.41017234126488095,10.450463393339783,-0.055563417514446135,-0.17187576325176965,0.7821256710499589,-2.2499779118585654,37.029655843609305,-82.5
1772911100.946454,79.93470282570355,6.426983696906209,-1.0158227484601858,0.04735415742529507,-0.41017234126488095,10.450463393339783,-0.055563417514446135,-0.17187576325176965,0.7821256710499589,-2.2499779118585654,37.029655843609305,-82.5
1772911100.959925,80.73636471462532,6.067958052517003,-0.9926847300451467,0.014066692578810805,-0.3925404268960728,10.339919696749643,-0.06945337886257291,-0.16417314846791783,0.693768377667746,-2.2499779118585654,37.029655843609305,-82.5
1772911100.9741204,81.44131412221014,5.6157570437494515,-1.0276142402318347,-0.024144555169134024,-0.39081594447823953,10.266354101522907,-0.07065058412127717,-0.14037914446942099,0.6217735460229799,-2.72959548576425,39.386586736274765,-84.6875
1772911100.9933734,81.44131412221014,5.6157570437494515,-1.0276142402318347,-0.024144555169134024,-0.39081594447823953,10.266354101522907,-0.07065058412127717,-0.14037914446942099,0.6217735460229799,-2.72959548576425,39.386586736274765,-84.6875
1772911101.0079882,82.07977589847115,5.244997663995455,-1.1072561888082233,-0.0626077993833736,-0.38664359464053394,10.217397019681059,-0.07983749539120658,-0.0979337576995405,0.5585053606381855,-2.72959548576425,39.386586736274765,-84.6875
1772911101.0222778,82.64624913223328,4.955957544803418,-1.2395976657857062,-0.1334111633128661,-0.4454902586632501,10.198197075431024,-0.06202475218830686,-0.04047744428360024,0.5006913291658733,-2.72959548576425,39.386586736274765,-84.6875
1772911101.0427175,83.13330432773814,4.7510880168726315,-1.3685511424270609,-0.18832562158249405,-0.5034470032253483,10.198800173839334,-0.042826586573736815,0.013297910277668395,0.4363323129985824,-5.425882946468081,41.038868167887216,-87.1875
1772911101.057053,83.13330432773814,4.7510880168726315,-1.3685511424270609,-0.18832562158249405,-0.5034470032253483,10.198800173839334,-0.042826586573736815,0.013297910277668395,0.4363323129985824,-5.425882946468081,41.038868167887216,-87.1875
1772911101.0807898,83.77773316296954,4.553333322344098,-1.5523783193893246,-0.2379046658118265,-0.5389918432597987,10.21592708762961,-0.030362550366628122,0.0428801924208721,0.3959715740462135,-5.425882946468081,41.038868167887216,-87.1875
1772911101.0984747,84.15167197285028,4.437450686436595,-1.6640939370014032,-0.2593772432528307,-0.5721883061360079,10.227324857436876,-0.001901233521357428,0.04971319590274069,0.3392483733563978,-5.425882946468081,41.038868167887216,-87.1875
1772911101.111087,84.15167197285028,4.437450686436595,-1.6640939370014032,-0.2593772432528307,-0.5721883061360079,10.227324857436876,-0.001901233521357428,0.04971319590274069,0.3392483733563978,-5.425882946468081,41.038868167887216,-87.1875
1772911101.1315532,84.67440351670547,4.252956599528142,-1.8105037001903617,-0.29147197380858136,-0.5970163166286705,10.23490994592218,0.0011745711450682856,0.02436342095531923,0.3196134192714616,-6.024944182594928,41.49869219441277,-87.5
1772911101.1455264,85.00099312694623,4.082153177807325,-1.9049852667333491,-0.28525012407444184,-0.6130714895264305,10.203161508797647,-0.00035856569022034505,-0.02567260340621829,0.29670597283903605,-6.024944182594928,41.49869219441277,-87.5
1772911101.1614594,85.46273717818661,3.801783643800651,-2.018990275344633,-0.31497333445011283,-0.6365015226524102,10.121821267812802,-0.017413674783331622,-0.06538764808210587,0.28361600344907856,-6.024944182594928,41.49869219441277,-87.5
1772911101.1775177,85.46273717818661,3.801783643800651,-2.018990275344633,-0.31497333445011283,-0.6365015226524102,10.121821267812802,-0.017413674783331622,-0.06538764808210587,0.28361600344907856,-6.024944182594928,41.49869219441277,-87.5
1772911101.194041,85.7267159991283,3.580261375550994,-2.101948833140413,-0.317182624160966,-0.6355675454911168,10.067690246067416,-0.07389673732495718,-0.12058892778439259,0.22362031041177347,-8.561450132969643,43.56302018766231,-87.875
1772911101.2095199,85.96621840077297,3.3388491348911398,-2.1881355188166265,-0.3126034296794189,-0.6088778227523088,10.065117772852188,-0.11552611863998974,-0.13108502150522103,0.20943951023931956,-8.561450132969643,43.56302018766231,-87.875
1772911101.2229674,85.96621840077297,3.3388491348911398,-2.1881355188166265,-0.3126034296794189,-0.6088778227523088,10.065117772852188,-0.11552611863998974,-0.13108502150522103,0.20943951023931956,-8.561450132969643,43.56302018766231,-87.875
1772911101.243598,86.21531272724738,3.1067721594993696,-2.3192069196349494,-0.270632769811162,-0.5417706983543584,10.126962943102932,-0.1720318152952513,-0.13812887625369166,0.2203478180642841,-8.561450132969643,43.56302018766231,-87.875
1772911101.2606077,86.58705328135514,2.771943669035921,-2.6059187269964905,-0.2427017645118277,-0.49711165670322016,10.18150065987826,-0.22134594277842384,-0.1479614444412147,0.22252947962927702,-8.250623568276282,44.90242746204935,-87.5
1772911101.2780254,86.76153390433001,2.5681536613660176,-2.7833579473589203,-0.30982552633333577,-0.43719909824089326,10.217794901166027,-0.20351056546188817,-0.13866255597909055,0.12544553998709243,-8.250623568276282,44.90242746204935,-87.5
1772911101.2973118,86.84135984414299,2.4162882451757084,-2.9538160980299772,-0.38521049126574014,-0.500088282309864,10.205152084529281,-0.16273769233105131,-0.09325334173497912,0.04908738521234052,-8.250623568276282,44.90242746204935,-87.5
1772911101.3131266,86.84135984414299,2.4162882451757084,-2.9538160980299772,-0.38521049126574014,-0.500088282309864,10.205152084529281,-0.16273769233105131,-0.09325334173497912,0.04908738521234052,-8.250623568276282,44.90242746204935,-87.5
1772911101.3271189,86.87753656433736,2.251863016576124,-3.106467387077571,-0.41222530719219996,-0.4717652235449978,10.193393319579723,-0.10351952219750862,-0.07452095350489998,0.015271630954950384,-11.051202414721914,45.55233755186274,-87.375
1772911101.342185,86.88265338833044,2.2051924992752405,-3.1400639444714153,-0.42019400578277233,-0.4689753560642327,10.122010870420736,-0.07243984045043982,-0.06605593911333552,0.01090830782496456,-11.051202414721914,45.55233755186274,-87.375
1772911101.355584,86.88265338833044,2.2051924992752405,-3.1400639444714153,-0.42019400578277233,-0.4689753560642327,10.122010870420736,-0.07243984045043982,-0.06605593911333552,0.01090830782496456,-11.051202414721914,45.55233755186274,-87.375
1772911101.3710308,86.93966559849403,2.069463116352964,-3.2155068461672944,-0.42549708567860245,-0.46711873042064533,10.051090865948398,-0.06631086523122437,-0.06859806405436236,0.026179938779914945,-11.051202414721914,45.55233755186274,-87.375
1772911101.385876,87.01150493684071,1.9800921999095882,-3.2471920001405987,-0.44310508408370824,-0.49695601798249084,9.997204171785778,-0.04686134562070455,-0.07647102737546846,0.05235987755982989,-11.636135170635429,46.07304372722407,-85.5
1772911101.3977435,87.01150493684071,1.9800921999095882,-3.2471920001405987,-0.44310508408370824,-0.49695601798249084,9.997204171785778,-0.04686134562070455,-0.07647102737546846,0.05235987755982989,-11.636135170635429,46.07304372722407,-85.5
1772911101.412597,87.05163092352302,1.93900182186882,-3.274947841950842,-0.4799012048171311,-0.5212946932231043,9.941272508530453,-0.058132942067033205,-0.06713640168192077,0.07090400086226964,-11.636135170635429,46.07304372722407,-85.5
1772911101.4278612,87.16731196829022,1.8643557295138289,-3.3446376385080065,-0.5171889024421822,-0.5482573508612272,9.904050611431652,-0.07261018898769411,-0.07161549737572856,0.10362892433716332,-11.636135170635429,46.07304372722407,-85.5
1772911101.4416666,87.16731196829022,1.8643557295138289,-3.3446376385080065,-0.5171889024421822,-0.5482573508612272,9.904050611431652,-0.07261018898769411,-0.07161549737572856,0.10362892433716332,-11.636135170635429,46.07304372722407,-85.5
1772911101.4668133,87.67979589638622,1.7101787234300363,-3.6503483827256433,-0.5944682901829348,-0.6098339535008781,9.834938961910312,-0.0983995350840314,-0.033156029303604756,0.1734420944169365,-12.871251059280668,47.386241633716494,-85.0625
1772911101.4995537,88.02066725644248,1.7156972304891736,-3.7948328068947674,-0.582900272177642,-0.6061892626456225,9.816561265442896,-0.08764374974738985,0.0035415820509166183,0.20289452554434081,-12.871251059280668,47.386241633716494,-85.0625
1772911101.5225646,88.02066725644248,1.7156972304891736,-3.7948328068947674,-0.582900272177642,-0.6061892626456225,9.816561265442896,-0.08764374974738985,0.0035415820509166183,0.20289452554434081,-12.871251059280668,47.386241633716494,-85.0625
1772911101.5391662,88.25770674474282,1.7388124307235384,-3.8943054755983404,-0.545875192625775,-0.6105693952131431,9.80767622544347,-0.08686824702188968,0.035836337672401464,0.2181661564992912,-13.127884338571075,48.21572678123913,-83.875
