timestamp,yaw,pitch,roll,ax,ay,az,gx,gy,gz,mx,my,mz
1772314135.9633822,-0.10266127458807382,1.479205920406523,-7.939502132356945,-0.2556270778520115,-1.3521258174295046,9.740979068819534,0.0,0.001090830782496456,-0.002181661564992912,10.375,19.375,-54.0625
1772314136.2633617,39.377260845338135,1.4823979654253125,-7.938834928291455,-0.2538845953604509,-1.350626539236093,9.751048875506171,0.0,0.001090830782496456,0.0,9.5625,18.75,-53.5625
1772314136.6123807,-145.46865489680715,-14.61149505252705,-5.414745058159106,-0.2592308022247358,-1.3559093472861379,9.744736279443066,-0.002181661564992912,0.0,0.0,10.375,18.75,-52.875
1772314136.658526,39.13831556407835,1.4791213686410747,-7.936972094647502,-0.25948810747306383,-1.3572777163145098,9.746497052768971,0.0,-0.002181661564992912,0.001090830782496456,10.375,18.75,-52.875
1772314136.69697,38.95238931655999,1.4794211430967492,-7.934730358484318,-0.25965934124153817,-1.3514981272025688,9.747668827748235,0.0,-0.002181661564992912,0.0,9.5625,19.5,-53.5625
1772314136.724096,38.93810720469343,1.4783719326790534,-7.935060675079402,-0.2530830719870126,-1.3476518752108129,9.75179374261467,0.001090830782496456,0.0,-0.001090830782496456,9.5625,19.5,-53.5625
1772314136.7477064,38.93810720469343,1.4783719326790534,-7.935060675079402,-0.25539686167450554,-1.3450922374757492,9.754538827379964,0.0,0.0,-0.001090830782496456,9.5625,19.5,-53.5625
1772314136.801627,38.93810720469343,1.4783719326790534,-7.935060675079402,-0.25539686167450554,-1.3450922374757492,9.754538827379964,0.0,0.0,-0.001090830782496456,9.5625,19.5,-53.5625
1772314136.8529782,38.87065742961727,1.4803443803500822,-7.933497587480947,-0.24793786822730354,-1.3478264727978932,9.752010134909192,0.0,-0.002181661564992912,0.0,10.375,19.5,-52.5
1772314136.9163811,38.76042341328695,1.4791743202513823,-7.932938258884357,-0.24862767434079175,-1.3485535419268877,9.751337722327388,0.0,-0.002181661564992912,0.002181661564992912,11.0625,18.75,-52.0625
1772314136.9507723,-0.17965296960312405,1.4790931281377049,-7.932504160332049,-1.0415897003465844,-0.8927692862834261,9.750890239265539,0.0020566977095052602,0.002545427409315043,-0.003272492347489368,11.0625,18.75,-52.0625
1772314136.9893513,-0.1486898804639391,1.4812898224807673,-7.932374540386933,-1.042029695908916,-0.8928277471933772,9.750592444286593,0.00068556590316842,0.0008484758031050143,0.001090830782496456,21.200361429630806,7.9400677108588,-54.5
1772314137.0259373,-0.1486898804639391,1.4812898224807673,-7.932374540386933,-1.042029695908916,-0.8928277471933772,9.750592444286593,0.00068556590316842,0.0008484758031050143,0.001090830782496456,21.200361429630806,7.9400677108588,-54.5
1772314137.0675464,-0.15527520245287316,1.4808634704928885,-7.9326203112477565,-1.042322508040575,-0.8928666522758986,9.750394265054691,0.00035974610329523167,0.003916559215651883,0.0,21.200361429630806,7.9400677108588,-54.5
1772314137.1120393,-0.11961161970514657,1.4766584164002892,-7.934130677744126,-1.042647050527896,-0.892909773276997,9.750174610286658,-0.0008484758031050143,0.00068556590316842,-0.001090830782496456,19.90995184825487,7.536374619150273,-53.6875
1772314137.1966598,-0.11961161970514657,1.4766584164002892,-7.934130677744126,-1.0427333506432033,-0.8929212397182561,9.750116201195246,0.00068556590316842,0.0008484758031050143,0.0,20.860062851872573,8.215027940666173,-52.5
1772314137.321935,-0.34181024519702435,1.4834631954141848,-7.936892342705321,-1.0479946075782165,-0.8887241953809929,9.750077330597383,-0.00016290989993659425,0.0015340417062734344,0.0,20.860062851872573,8.215027940666173,-52.5
1772314137.3839462,-0.4393962999673064,1.4832746341163054,-7.935644851412379,-1.051495915296377,-0.8859311092586014,9.7467063509414,-0.0003258197998731885,0.0030680834125468687,0.0,20.033623448745438,8.882788498769798,-52.875
1772314137.4214416,-0.40801448128440265,1.4788843505583105,-7.937815988925652,-1.0512240838844868,-0.8861746792078826,9.747808113343972,0.0,0.0,0.0,20.033623448745438,8.882788498769798,-52.875
1772314137.4399645,-0.4393962999673064,1.4832746341163054,-7.935644851412379,-1.0489408455535136,-0.8837348597021187,9.738505988793433,0.0,0.0,-0.002181661564992912,20.32530794396678,8.647108301792048,-53.25
1772314137.4561257,-0.4614639936103178,1.4817484958133,-7.935951972547636,-1.0448194633635384,-0.8842135246385189,9.742350863938547,0.00274226361267368,0.003393903212420057,0.002181661564992912,20.32530794396678,8.647108301792048,-53.25
1772314137.4785235,-0.4614639936103178,1.4817484958133,-7.935951972547636,-1.0420767295549656,-0.8845320708066554,9.744909585397552,0.0022196076094418544,0.0010113857030416085,-0.001090830782496456,20.32530794396678,8.647108301792048,-53.25
1772314137.5547092,-0.6764065744009118,1.4800952726509304,-7.934185077112305,-1.0381491332807882,-0.8821421471370007,9.749957497653048,0.00137113180633684,0.0016969516062100285,0.0,19.45025445830275,9.354148892725297,-51.6875
1772314137.5930977,-0.6454600016768102,1.4822930567906494,-7.934064769989033,-1.0423419495464368,-0.8836531672414375,9.749971715162886,-0.00068556590316842,-0.0008484758031050143,0.0,19.45025445830275,9.354148892725297,-51.6875
1772314137.6091664,-0.6454600016768102,1.4822930567906494,-7.934064769989033,-1.0423419495464368,-0.8836531672414375,9.749971715162886,-0.00068556590316842,-0.0008484758031050143,0.0,19.45025445830275,9.354148892725297,-51.6875
1772314137.6304555,-0.6454600016768102,1.4822930567906494,-7.934064769989033,-1.0423419495464368,-0.8836531672414375,9.749971715162886,-0.00068556590316842,-0.0008484758031050143,0.0,19.45025445830275,9.354148892725297,-51.6875
1772314137.6523807,-0.8026485970045786,1.4779584382608824,-7.933479470693777,-1.0451322219343993,-0.8846587342417397,9.753326288464182,-0.0015340417062734344,-0.00016290989993659427,-0.001090830782496456,19.693324870987205,9.157748728577173,-53.25
1772314137.6687837,-0.7937760296026727,1.4786294254260206,-7.933664237828374,-1.0443872044530478,-0.8874302654104377,9.752213607815836,0.0,0.0,0.0,19.693324870987205,9.157748728577173,-53.25
1772314137.6908817,-0.7937760296026727,1.4786294254260206,-7.933664237828374,-1.0438914036415987,-0.8892746884431744,9.75147313127382,0.0005226560032318258,0.0023825175093784485,-0.001090830782496456,19.693324870987205,9.157748728577173,-53.25
1772314137.7066336,-0.7937760296026727,1.4786294254260206,-7.933664237828374,-1.0438914036415987,-0.8892746884431744,9.75147313127382,0.0005226560032318258,0.0023825175093784485,-0.001090830782496456,19.693324870987205,9.157748728577173,-53.25
1772314137.758459,-0.8406149918957658,1.4819295516314972,-7.931566669559153,-1.0435614537400373,-0.8905021313679052,9.750980352406772,0.0008484758031050143,-0.00068556590316842,0.001090830782496456,19.221964477031705,8.574379738134489,-53.25
1772314137.8246703,-0.8406149918957658,1.4819295516314972,-7.931566669559153,-1.0435614537400373,-0.8905021313679052,9.750980352406772,0.0008484758031050143,-0.00068556590316842,0.001090830782496456,19.221964477031705,8.574379738134489,-53.25
1772314137.8791413,-0.8540564935215906,1.483344372198209,-7.938652393326072,-1.0405938364915186,-0.893964922739821,9.744862927765332,0.0015340417062734344,0.00016290989993659427,0.0,20.32530794396678,8.647108301792048,-53.6875
1772314137.9732308,-1.0178352597698002,1.4785760362509501,-7.938302979869286,-1.0387650470517418,-0.8957257674618899,9.743236224105367,-0.00068556590316842,-0.0008484758031050143,0.002181661564992912,20.32530794396678,8.647108301792048,-53.6875
1772314138.0201356,-1.0178352597698002,1.4785760362509501,-7.938302979869286,-1.0427518332807988,-0.8926929148286699,9.74549878269845,-0.0008484758031050143,0.00068556590316842,0.0,19.85394755001128,8.063739311349364,-52.875
1772314138.0869975,-0.9295602935816897,1.4846876015613293,-7.937103059650717,-1.0454049949809159,-0.8906745852804459,9.74700449016771,-0.0008484758031050143,0.00068556590316842,0.0,19.85394755001128,8.063739311349364,-52.875
1772314138.1722455,-0.9295602935816897,1.4846876015613293,-7.937103059650717,-1.0454049949809159,-0.8906745852804459,9.74700449016771,-0.0008484758031050143,0.00068556590316842,0.0,19.85394755001128,8.063739311349364,-52.875
1772314138.2050104,-0.9648316151614846,1.4823032344548095,-7.937889838707665,-1.0471706444545856,-0.8893314095123208,9.748006521668648,0.00137113180633684,0.0016969516062100285,0.0,19.85394755001128,8.063739311349364,-52.875
1772314138.2488067,-0.9648316151614846,1.4823032344548095,-7.937889838707665,-1.0431418392834042,-0.8926422161687229,9.748673362439098,-0.0022196076094418544,-0.0010113857030416085,-0.001090830782496456,19.85394755001128,8.063739311349364,-52.875
1772314138.2706327,-0.9648316151614846,1.4823032344548095,-7.937889838707665,-1.0431418392834042,-0.8926422161687229,9.748673362439098,-0.0022196076094418544,-0.0010113857030416085,-0.001090830782496456,19.85394755001128,8.063739311349364,-52.875
1772314138.345234,-1.113144529771745,1.478635825942503,-7.937479083098569,-1.0403788612639,-0.8877736643039041,9.7494124648836,-0.0015340417062734344,-0.00016290989993659427,0.002181661564992912,20.190743580063934,9.07724482891736,-52.0625
1772314138.3828104,-1.3060239053227853,1.4785182111568063,-7.935402273644693,-1.0485300587605761,-0.8879004540310826,9.749609001943233,0.00068556590316842,0.0008484758031050143,-0.001090830782496456,18.962169798933285,9.346758677018595,-53.25
1772314138.4181807,-1.3060239053227853,1.4785182111568063,-7.935402273644693,-1.0485300587605761,-0.8879004540310826,9.749609001943233,0.00068556590316842,0.0008484758031050143,-0.001090830782496456,18.962169798933285,9.346758677018595,-53.25
1772314138.4730458,-1.2928079328359932,1.479376166199752,-7.934919448893406,-1.0539545896397722,-0.8879848311781859,9.749739795160956,0.0,0.0,0.001090830782496456,18.962169798933285,9.346758677018595,-53.25
1772314138.5285962,-1.2173160308503919,1.4780264305976045,-7.9364679354137415,-1.0497588165854288,-0.8943479959157775,9.749826836586294,0.0,0.0,0.0,20.32530794396678,8.647108301792048,-52.5
1772314138.562627,-1.2173160308503919,1.4780264305976045,-7.9364679354137415,-1.0448642389247031,-0.8959806983812812,9.74988476168254,0.0,0.0,-0.001090830782496456,20.32530794396678,8.647108301792048,-52.5
1772314138.5831392,-1.2173160308503919,1.4780264305976045,-7.9364679354137415,-1.0448642389247031,-0.8959806983812812,9.74988476168254,0.0,0.0,-0.001090830782496456,20.32530794396678,8.647108301792048,-52.5
1772314138.5964966,-72.78328640411499,3.1077123216141644,6.598460857603559,-1.0468107773398172,-0.8928625685077598,9.749923310187027,0.00016290989993659425,-0.0015340417062734344,-0.001090830782496456,20.32530794396678,8.647108301792048,-53.25
1772314138.6254394,-1.3881230337329502,1.4794407649490426,-7.934096291627684,-1.0481061769108166,-0.8907874879087243,9.756639187200786,0.0005226560032318258,0.0023825175093784485,0.0,20.32530794396678,8.647108301792048,-53.25
1772314138.664849,-1.3881230337329502,1.4794407649490426,-7.934096291627684,-1.0481061769108166,-0.8907874879087243,9.756639187200786,0.0005226560032318258,0.0023825175093784485,0.0,20.32530794396678,8.647108301792048,-53.25
1772314138.693858,-1.4547614867429255,1.481464240008569,-7.932739219065748,-1.04904237641121,-0.8931917929865766,9.764082824929313,0.0022196076094418544,0.0010113857030416085,-0.001090830782496456,19.221964477031705,8.574379738134489,-52.875
1772314138.7465062,-1.4547614867429255,1.481464240008569,-7.932739219065748,-1.04904237641121,-0.8931917929865766,9.764082824929313,0.0022196076094418544,0.0010113857030416085,-0.001090830782496456,19.221964477031705,8.574379738134489,-52.875
1772314138.770737,-1.4613727270170125,1.4810350979072182,-7.932980130100863,-1.0495912811642334,-0.8910065831216983,9.766062186089634,0.0015340417062734344,0.00016290989993659427,0.0,20.033623448745438,8.882788498769798,-53.25
1772314138.807261,-1.4702199138894132,1.4803651630234889,-7.932791668693894,-1.0499565711457028,-0.8895523503670157,9.764034317123595,-0.08964622341512643,-0.11268437191303031,0.001090830782496456,20.033623448745438,8.882788498769798,-53.25
1772314138.8497796,-1.4702199138894132,1.4803651630234889,-7.932791668693894,-1.0501996675478142,-0.8885845747136185,9.762684792979478,0.0,0.0,0.001090830782496456,19.562263054789938,8.299419508327114,-52.875
1772314138.8977752,-1.4702199138894132,1.4803651630234889,-7.932791668693894,-1.0482591079249381,-0.8853386182408893,9.76178669973674,0.0,0.0,0.0,19.562263054789938,8.299419508327114,-52.875
1772314138.9498432,-1.4768313298316889,1.479935971776073,-7.93303245490624,-1.046468112150146,-0.8878827206170699,9.761189028716057,-0.0008484758031050143,0.00068556590316842,-0.001090830782496456,19.562263054789938,8.299419508327114,-52.0625
1772314138.9728794,-1.4768313298316889,1.479935971776073,-7.93303245490624,-1.0431738869058393,-0.8869738797427764,9.754101061913577,-0.0022196076094418544,-0.0010113857030416085,0.14180800172453928,19.562263054789938,8.299419508327114,-52.0625
1772314139.0185614,-1.4768313298316889,1.479935971776073,-7.93303245490624,-1.0431738869058393,-0.8869738797427764,9.754101061913577,-0.0022196076094418544,-0.0010113857030416085,0.14180800172453928,19.562263054789938,8.299419508327114,-52.0625
1772314139.0492313,-1.5944648681602658,1.4807027191563147,-7.939115168693335,-1.0451862919304928,-0.8915728814656636,9.749384099184303,-0.00068556590316842,-0.0008484758031050143,0.002181661564992912,20.46570380987131,9.417543406675591,-53.6875
1772314139.0877316,-1.5944648681602658,1.4807027191563147,-7.939115168693335,-1.0451862919304928,-0.8915728814656636,9.749384099184303,-0.00068556590316842,-0.0008484758031050143,0.002181661564992912,20.46570380987131,9.417543406675591,-53.6875
1772314139.1537502,-1.6412613527173778,1.484015059405437,-7.937041275801597,-1.051750225985129,-0.893168830655935,9.747501098217173,-0.00016290989993659425,0.0015340417062734344,-0.002181661564992912,20.32530794396678,8.647108301792048,-53.25
1772314139.1881814,-1.6412613527173778,1.484015059405437,-7.937041275801597,-1.051750225985129,-0.893168830655935,9.747501098217173,-0.00016290989993659425,0.0015340417062734344,-0.002181661564992912,20.32530794396678,8.647108301792048,-53.25
1772314139.236106,-1.6412613527173778,1.484015059405437,-7.937041275801597,-1.0513933248070149,-0.8909913019471625,9.74833700877809,-0.00068556590316842,-0.0008484758031050143,0.0,20.32530794396678,8.647108301792048,-53.25
1772314139.2580276,-1.6412613527173778,1.484015059405437,-7.937041275801597,-1.0511558110598274,-0.8895421809160637,9.745548186211328,0.00068556590316842,0.0008484758031050143,0.002181661564992912,20.420592275039997,8.168357692129847,-53.25
1772314139.2773767,-1.6412613527173778,1.484015059405437,-7.937041275801597,-1.0483958357281205,-0.8906801446205267,9.743692255946339,0.00068556590316842,0.0008484758031050143,-0.001090830782496456,20.420592275039997,8.168357692129847,-53.25
1772314139.3092642,-1.8473640047975834,1.4830476423777017,-7.935452401423784,-1.0465591029758141,-0.891437446753959,9.745802266794406,0.0015340417062734344,0.00016290989993659427,-0.002181661564992912,18.719099386248832,9.54315884116672,-53.6875
1772314139.3344376,-1.8473640047975834,1.4830476423777017,-7.935452401423784,-1.0465591029758141,-0.891437446753959,9.745802266794406,0.0015340417062734344,0.00016290989993659427,-0.002181661564992912,18.719099386248832,9.54315884116672,-53.6875
1772314139.3730955,-1.8473640047975834,1.4830476423777017,-7.935452401423784,-1.0453367778468037,-0.8919414228641392,9.747206455443429,-0.0005226560032318258,-0.0023825175093784485,-0.001090830782496456,18.719099386248832,9.54315884116672,-53.6875
1772314139.4103162,-1.8473640047975834,1.4830476423777017,-7.935452401423784,-1.0445233341277134,-0.8922768133356821,9.74479581559622,0.0003258197998731885,-0.0030680834125468687,0.002181661564992912,19.850445002305705,9.352205058724735,-53.25
1772314139.4337683,-1.8473640047975834,1.4830476423777017,-7.935452401423784,-1.0445233341277134,-0.8922768133356821,9.74479581559622,0.0003258197998731885,-0.0030680834125468687,0.002181661564992912,19.850445002305705,9.352205058724735,-53.25
1772314139.4795537,-1.8473640047975834,1.4830476423777017,-7.935452401423784,-1.048825567394002,-0.888443873005268,9.742123948663604,0.0016969516062100285,-0.00137113180633684,-0.002181661564992912,19.850445002305705,9.352205058724735,-53.25
1772314139.5184147,-1.8473640047975834,1.4830476423777017,-7.935452401423784,-1.0520489097713528,-0.8857445578489626,9.744758575816887,0.00016290989993659425,-0.0015340417062734344,0.0,20.14563204523262,7.828059114371615,-52.875
1772314139.5591445,-1.8473640047975834,1.4830476423777017,-7.935452401423784,-1.0520489097713528,-0.8857445578489626,9.744758575816887,0.00016290989993659425,-0.0015340417062734344,0.0,20.14563204523262,7.828059114371615,-52.875
1772314139.603716,-1.8473640047975834,1.4830476423777017,-7.935452401423784,-1.046887845381158,-0.8855509563054441,9.749857002464003,0.0016969516062100285,-0.00137113180633684,0.0,20.14563204523262,7.828059114371615,-52.875
1772314139.624618,-1.8473640047975834,1.4830476423777017,-7.935452401423784,-1.0434532146823503,-0.8854221166409035,9.749904836737182,-0.00068556590316842,-0.0008484758031050143,0.001090830782496456,20.033623448745438,8.882788498769798,-52.875
1772314139.6532712,-1.8473640047975834,1.4830476423777017,-7.935452401423784,-1.0437694189057884,-0.8832340377204687,9.753281781618957,-0.0008484758031050143,0.00068556590316842,0.0,20.033623448745438,8.882788498769798,-52.875
1772314139.6752555,-1.8473640047975834,1.4830476423777017,-7.935452401423784,-1.043979849284254,-0.8817778956413626,9.752183989007513,0.00016290989993659425,-0.0015340417062734344,0.0,20.033623448745438,8.882788498769798,-52.875
1772314139.7126935,-1.8473640047975834,1.4830476423777017,-7.935452401423784,-1.043979849284254,-0.8817778956413626,9.752183989007513,0.00016290989993659425,-0.0015340417062734344,0.0,20.033623448745438,8.882788498769798,-52.875
1772314139.735393,-1.8473640047975834,1.4830476423777017,-7.935452401423784,-1.043620313327222,-0.8855130995029624,9.751453420287744,-0.00068556590316842,-0.0008484758031050143,0.0,19.562263054789938,8.299419508327114,-54.5
1772314139.7873614,-1.8473640047975834,1.4830476423777017,-7.935452401423784,-1.0386767960150245,-0.8874992609246565,9.750967234965724,0.0022196076094418544,0.0010113857030416085,0.001090830782496456,19.562263054789938,8.299419508327114,-54.5
1772314139.8162289,-1.8473640047975834,1.4830476423777017,-7.935452401423784,-1.0374892780293803,-0.891422941750073,9.750643684064967,0.00068556590316842,0.0008484758031050143,0.001090830782496456,19.693324870987205,9.157748728577173,-53.25
1772314139.8422484,-1.8473640047975834,1.4830476423777017,-7.935452401423784,-1.0374892780293803,-0.891422941750073,9.750643684064967,0.00068556590316842,0.0008484758031050143,0.001090830782496456,19.693324870987205,9.157748728577173,-53.25
1772314139.8822327,-1.8473640047975834,1.4830476423777017,-7.935452401423784,-1.0366989980753791,-0.8940341075090008,9.750428364554812,-0.0016969516062100285,0.00137113180633684,0.0,19.693324870987205,9.157748728577173,-53.25
1772314139.9145195,-1.8473640047975834,1.4830476423777017,-7.935452401423784,-1.0366989980753791,-0.8940341075090008,9.750428364554812,-0.0016969516062100285,0.00137113180633684,0.0,19.693324870987205,9.157748728577173,-53.25
1772314139.9565814,-1.8473640047975834,1.4830476423777017,-7.935452401423784,-1.0361730755939969,-0.8957718091529346,9.753630183533401,0.0022196076094418544,0.0010113857030416085,0.001090830782496456,20.32530794396678,8.647108301792048,-52.5
1772314140.00033,-1.8473640047975834,1.4830476423777017,-7.935452401423784,-1.0410269052298877,-0.8927235550597407,9.75576095829699,0.00016290989993659425,-0.0015340417062734344,0.001090830782496456,20.32530794396678,8.647108301792048,-52.5
1772314140.0451021,-1.8473640047975834,1.4830476423777017,-7.935452401423784,-1.0442570746317434,-0.8906949760119496,9.757178965099845,0.00016290989993659425,-0.0015340417062734344,0.0,19.83722328459731,8.639718086085347,-53.25
1772314140.1132605,-1.8473640047975834,1.4830476423777017,-7.935452401423784,-1.0459071412620822,-0.8940492294654294,9.754777521079653,0.0029051735126102746,0.001859861506146623,-0.001090830782496456,19.83722328459731,8.639718086085347,-53.25
1772314140.1807263,-1.8473640047975834,1.4830476423777017,-7.935452401423784,-1.0470052421721208,-0.8962814476692541,9.746489163495463,-0.00137113180633684,-0.0016969516062100285,-0.001090830782496456,19.090902660834438,7.71605051788443,-54.0625
1772314140.23767,-1.8473640047975834,1.4830476423777017,-7.935452401423784,-1.0470052421721208,-0.8962814476692541,9.746489163495463,-0.00137113180633684,-0.0016969516062100285,-0.001090830782496456,19.090902660834438,7.71605051788443,-54.0625
1772314140.2855525,-1.8473640047975834,1.4830476423777017,-7.935452401423784,-1.0482355910844001,-0.8930627137993161,9.740973354110205,0.0,0.0,0.001090830782496456,19.090902660834438,7.71605051788443,-54.0625
1772314140.3396206,-1.8473640047975834,1.4830476423777017,-7.935452401423784,-1.049054374541624,-0.8909206823644855,9.740647756287263,0.0035907394157786944,0.002708337309251637,0.0,20.388702457917073,7.63165895022349,-53.25
1772314140.377863,-1.8473640047975834,1.4830476423777017,-7.935452401423784,-1.0396911904646122,-0.8932002844752578,9.74377618628058,0.00016290989993659425,-0.0015340417062734344,0.0,20.388702457917073,7.63165895022349,-53.25
1772314140.4423752,-1.8473640047975834,1.4830476423777017,-7.935452401423784,-1.0334600960549802,-0.8947173342151526,9.7492032332016,0.00016290989993659425,-0.0015340417062734344,0.001090830782496456,19.83722328459731,8.639718086085347,-52.875
1772314140.5020611,-1.8473640047975834,1.4830476423777017,-7.935452401423784,-1.0366195350664835,-0.89412415133082,9.752814872303452,0.0,0.0,0.0,19.83722328459731,8.639718086085347,-52.875
1772314140.5627983,-1.8473640047975834,1.4830476423777017,-7.935452401423784,-1.0465571381040315,-0.8925671815109277,9.751246637646336,0.0015340417062734344,0.00016290989993659427,0.0,20.860062851872573,8.215027940666173,-52.5
1772314140.6187928,-1.8473640047975834,1.4830476423777017,-7.935452401423784,-1.0465571381040315,-0.8925671815109277,9.751246637646336,0.0015340417062734344,0.00016290989993659427,0.0,20.860062851872573,8.215027940666173,-52.5
1772314140.6458688,-1.8473640047975834,1.4830476423777017,-7.935452401423784,-1.0453354702465814,-0.8926932487249378,9.75751984684242,0.0029051735126102746,0.001859861506146623,-0.001090830782496456,20.14563204523262,7.828059114371615,-53.25
1772314140.714145,-1.8473640047975834,1.4830476423777017,-7.935452401423784,-1.0466248014972885,-0.8953790576337542,9.761694597486077,-0.0037536493157152885,-0.001174295602978203,0.0,20.14563204523262,7.828059114371615,-53.25
1772314140.74246,-1.8473640047975834,1.4830476423777017,-7.935452401423784,-1.0474828370418605,-0.8971664334601203,9.76112773569709,0.0020566977095052602,0.002545427409315043,-0.001090830782496456,20.128907779818654,8.404037889107597,-52.875
1772314140.7590506,-1.880109656885582,1.765923148057698,-8.782303768287226,-1.048053850111888,-0.8983559121062706,9.760750495508779,0.00137113180633684,0.0016969516062100285,0.001090830782496456,20.128907779818654,8.404037889107597,-52.875
1772314140.8145044,-1.880109656885582,1.765923148057698,-8.782303768287226,-1.048053850111888,-0.8983559121062706,9.760750495508779,0.00137113180633684,0.0016969516062100285,0.001090830782496456,20.128907779818654,8.404037889107597,-52.875
1772314140.862138,-1.8473640047975834,1.4830476423777017,-7.935452401423784,-1.0484338529313575,-0.8991474968579366,9.760499446377509,-0.0023825175093784485,0.0005226560032318258,0.0,19.562263054789938,8.299419508327114,-53.25
1772314140.8806434,-1.8473640047975834,1.4830476423777017,-7.935452401423784,-1.0491863155860441,-0.894970037518517,9.75698726427773,0.0,0.0,0.002181661564992912,19.562263054789938,8.299419508327114,-53.25
1772314140.933885,-1.8473640047975834,1.4830476423777017,-7.935452401423784,-1.051789408640096,-0.8947918975795678,9.751304834616654,-0.0005226560032318258,-0.0023825175093784485,-0.002181661564992912,20.482428075285277,8.84156463193961,-53.25
1772314140.9666007,-1.8473640047975834,1.4830476423777017,-7.935452401423784,-1.051789408640096,-0.8947918975795678,9.751304834616654,-0.0005226560032318258,-0.0023825175093784485,-0.002181661564992912,20.482428075285277,8.84156463193961,-53.25
1772314141.0198374,-1.8473640047975834,1.4830476423777017,-7.935452401423784,-1.0514194004261965,-0.8920714348539945,9.750868352861426,0.00137113180633684,0.0016969516062100285,-0.001090830782496456,20.482428075285277,8.84156463193961,-53.25
1772314141.0414817,-1.8473640047975834,1.4830476423777017,-7.935452401423784,-1.051173164093109,-0.8902609972996854,9.747232767421822,-0.0022196076094418544,-0.0010113857030416085,0.002181661564992912,19.83722328459731,8.639718086085347,-52.875
1772314141.0580528,-1.8473640047975834,1.4830476423777017,-7.935452401423784,-1.0484073839779233,-0.8911585088941217,9.744813325923916,-0.0016969516062100285,0.00137113180633684,0.001090830782496456,19.83722328459731,8.639718086085347,-52.875
1772314141.0801399,-1.8473640047975834,1.4830476423777017,-7.935452401423784,-1.0491687007932116,-0.8896534552714414,9.743203214633992,-0.0020566977095052602,-0.002545427409315043,0.001090830782496456,19.83722328459731,8.639718086085347,-52.875
1772314141.0985758,-1.8473640047975834,1.4830476423777017,-7.935452401423784,-1.0491687007932116,-0.8896534552714414,9.743203214633992,-0.0020566977095052602,-0.002545427409315043,0.001090830782496456,19.83722328459731,8.639718086085347,-52.875
1772314141.1183794,-1.8473640047975834,1.4830476423777017,-7.935452401423784,-1.0470734360431637,-0.8907541964610144,9.752167038678628,0.00068556590316842,0.0008484758031050143,0.002181661564992912,19.326582857812188,8.007735013105773,-54.5
1772314141.1409287,-1.8473640047975834,1.4830476423777017,-7.935452401423784,-1.05038331090672,-0.89198630244983,9.758132363447858,-0.00137113180633684,-0.0016969516062100285,0.0,19.326582857812188,8.007735013105773,-54.5
1772314141.1882315,-1.8473640047975834,1.4830476423777017,-7.935452401423784,-1.049984083068536,-0.8949085927847774,9.755411997030098,-0.0020566977095052602,-0.002545427409315043,0.001090830782496456,20.420592275039997,8.168357692129847,-52.875
1772314141.2476838,-1.8473640047975834,1.4830476423777017,-7.935452401423784,-1.0497184014018919,-0.8968533443585629,9.753601623567562,-0.08843800150872617,-0.10945337860054684,0.0,20.420592275039997,8.168357692129847,-52.875
1772314141.280722,-1.8473640047975834,1.4830476423777017,-7.935452401423784,-1.0497184014018919,-0.8968533443585629,9.753601623567562,-0.08843800150872617,-0.10945337860054684,0.0,20.420592275039997,8.168357692129847,-52.875
1772314141.3290749,-1.8473640047975834,1.4830476423777017,-7.935452401423784,-1.0474392556576824,-0.8955456422204627,9.752396840251441,0.0020566977095052602,0.002545427409315043,0.0,19.850445002305705,9.352205058724735,-52.875
1772314141.355018,-1.8473640047975834,1.4830476423777017,-7.935452401423784,-1.0459225096246372,-0.8946753810555472,9.748249958705555,0.00068556590316842,0.0008484758031050143,0.0,19.850445002305705,9.352205058724735,-52.875
1772314141.3732717,-1.8473640047975834,1.4830476423777017,-7.935452401423784,-1.0459225096246372,-0.8946753810555472,9.748249958705555,0.00068556590316842,0.0008484758031050143,0.0,19.850445002305705,9.352205058724735,-52.875
1772314141.4268336,-1.8473640047975834,1.4830476423777017,-7.935452401423784,-1.0470154696457252,-0.8966981445579059,9.74549025536047,0.0008484758031050143,-0.00068556590316842,-0.001090830782496456,20.32530794396678,8.647108301792048,-53.6875
1772314141.4622278,-1.8473640047975834,1.4830476423777017,-7.935452401423784,-1.047742822330596,-0.8980442710729769,9.750343927026861,-0.0010113857030416085,0.0022196076094418544,0.001090830782496456,20.32530794396678,8.647108301792048,-53.6875
1772314141.5289416,-1.8473640047975834,1.4830476423777017,-7.935452401423784,-1.0461245298543993,-0.8963381906453822,9.75357399130178,0.00068556590316842,0.0008484758031050143,0.0,19.850445002305705,9.352205058724735,-52.875
1772314141.561022,-1.8473640047975834,1.4830476423777017,-7.935452401423784,-1.0450475742890017,-0.8952028131789851,9.755723562994556,-0.0010113857030416085,0.0022196076094418544,0.003272492347489368,19.850445002305705,9.352205058724735,-52.875
1772314141.5935104,-1.8473640047975834,1.4830476423777017,-7.935452401423784,-1.0469327849767676,-0.8923448945951787,9.757154078943808,-0.00137113180633684,-0.0016969516062100285,-0.002181661564992912,20.033623448745438,8.882788498769798,-53.25
1772314141.6564198,-1.8473640047975834,1.4830476423777017,-7.935452401423784,-1.0455854590441365,-0.8925453192656143,9.758106071328125,0.0005226560032318258,0.0023825175093784485,0.0,20.033623448745438,8.882788498769798,-53.25
1772314141.7090118,-1.8473640047975834,1.4830476423777017,-7.935452401423784,-1.0455854590441365,-0.8925453192656143,9.758106071328125,0.0005226560032318258,0.0023825175093784485,0.0,20.033623448745438,8.882788498769798,-53.25
1772314141.7964756,-1.8473640047975834,1.4830476423777017,-7.935452401423784,-1.0493930788356596,-0.8931782746681386,9.758739611625437,-0.0008484758031050143,0.00068556590316842,0.001090830782496456,19.693324870987205,9.157748728577173,-52.0625
1772314141.8405552,-1.8473640047975834,1.4830476423777017,-7.935452401423784,-1.0519270072730182,-0.8935994994179433,9.75916122561619,-0.00068556590316842,-0.0008484758031050143,0.0,19.693324870987205,9.157748728577173,-52.0625
1772314141.8784988,-1.8473640047975834,1.4830476423777017,-7.935452401423784,-1.053613308342245,-0.8938798197835496,9.759441805017298,0.00068556590316842,0.0008484758031050143,-0.001090830782496456,19.25385429415463,9.111078480040845,-53.6875
1772314141.9268312,-1.8473640047975834,1.4830476423777017,-7.935452401423784,-1.0474293601313702,-0.8956691323951537,9.759628527474458,0.00016290989993659425,-0.0015340417062734344,-0.001090830782496456,19.25385429415463,9.111078480040845,-53.6875
1772314141.9531894,-1.8473640047975834,1.4830476423777017,-7.935452401423784,-1.0433140116762607,-0.8968598999502446,9.759752789183871,-0.00137113180633684,-0.0016969516062100285,0.002181661564992912,20.61699243918812,8.411428104814298,-53.25
1772314142.012539,-1.8473640047975834,1.4830476423777017,-7.935452401423784,-1.0433140116762607,-0.8968598999502446,9.759752789183871,-0.00137113180633684,-0.0016969516062100285,0.002181661564992912,20.61699243918812,8.411428104814298,-53.25
1772314142.0664182,-1.8473640047975834,1.4830476423777017,-7.935452401423784,-1.0405752932508399,-0.8976523424564126,9.759835483963391,-0.0008484758031050143,0.00068556590316842,0.002181661564992912,21.00396126548268,7.696997298174348,-54.0625
1772314142.164475,-1.8473640047975834,1.4830476423777017,-7.935452401423784,-1.03753979576369,-0.8985306573696418,9.754355893716268,-0.00068556590316842,-0.0008484758031050143,-0.001090830782496456,19.45025445830275,9.354148892725297,-53.25
1772314142.2329729,-1.8473640047975834,1.4830476423777017,-7.935452401423784,-1.039334529649398,-0.8966618752925217,9.752898798609655,-0.0022196076094418544,-0.0010113857030416085,-0.001090830782496456,19.45025445830275,9.354148892725297,-53.25
1772314142.2648997,-1.8473640047975834,1.4830476423777017,-7.935452401423784,-1.039334529649398,-0.8966618752925217,9.752898798609655,-0.0022196076094418544,-0.0010113857030416085,-0.001090830782496456,19.45025445830275,9.354148892725297,-53.25
1772314142.3089886,-1.8473640047975834,1.4830476423777017,-7.935452401423784,-1.0431308175880016,-0.8933158841329457,9.751929118093024,-0.0015340417062734344,-0.00016290989993659427,0.0,19.221964477031705,8.574379738134489,-52.875
1772314142.3447306,-1.8473640047975834,1.4830476423777017,-7.935452401423784,-1.0456572048038273,-0.8910891643934182,9.751283806541247,0.0,0.0,0.0,19.221964477031705,8.574379738134489,-52.875
1772314142.3873942,-1.8473640047975834,1.4830476423777017,-7.935452401423784,-1.0447365746882091,-0.8917096448437682,9.750854358912141,-0.0008484758031050143,0.00068556590316842,-0.001090830782496456,19.562263054789938,8.299419508327114,-52.5
1772314142.4198496,-1.8473640047975834,1.4830476423777017,-7.935452401423784,-1.0441239056303773,-0.8921225676522554,9.750568566312216,-0.00068556590316842,-0.0008484758031050143,0.002181661564992912,19.562263054789938,8.299419508327114,-52.5
1772314142.444924,-1.8473640047975834,1.4830476423777017,-7.935452401423784,-1.0441239056303773,-0.8921225676522554,9.750568566312216,-0.00068556590316842,-0.0008484758031050143,0.002181661564992912,19.562263054789938,8.299419508327114,-52.5
1772314142.4821146,-1.8473640047975834,1.4830476423777017,-7.935452401423784,-1.0437161812163522,-0.8923973631686537,9.750378374529477,0.0015340417062734344,0.00016290989993659427,-0.001090830782496456,19.83722328459731,8.639718086085347,-53.25
1772314142.5121727,-1.8473640047975834,1.4830476423777017,-7.935452401423784,-1.0460467577595545,-0.8904778989522334,9.750251804022646,-0.0015340417062734344,-0.00016290989993659427,-0.001090830782496456,19.83722328459731,8.639718086085347,-53.25
1772314142.5329204,-1.8473640047975834,1.4830476423777017,-7.935452401423784,-1.0460467577595545,-0.8904778989522334,9.750251804022646,-0.0015340417062734344,-0.00016290989993659427,-0.001090830782496456,19.83722328459731,8.639718086085347,-53.25
1772314142.5475516,-1.8473640047975834,1.4830476423777017,-7.935452401423784,-1.0449958178286538,-0.8913028545209422,9.750167572764235,0.00068556590316842,0.0008484758031050143,0.003272492347489368,19.83722328459731,8.639718086085347,-53.25
1772314142.5662143,-1.8473640047975834,1.4830476423777017,-7.935452401423784,-1.0442964290444077,-0.8918518532365602,9.750111517802688,0.0,0.0,0.001090830782496456,19.090902660834438,7.71605051788443,-53.6875
1772314142.5836635,-1.8473640047975834,1.4830476423777017,-7.935452401423784,-1.0438309936211765,-0.8922172057490865,9.750074213851953,0.00068556590316842,0.0008484758031050143,-0.003272492347489368,19.090902660834438,7.71605051788443,-53.6875
1772314142.5997512,-1.8473640047975834,1.4830476423777017,-7.935452401423784,-1.0438309936211765,-0.8922172057490865,9.750074213851953,0.00068556590316842,0.0008484758031050143,-0.003272492347489368,19.090902660834438,7.71605051788443,-53.6875
1772314142.639389,-1.8473640047975834,1.4830476423777017,-7.935452401423784,-1.0435212515462704,-0.8924603437649179,9.750049388489451,0.0008484758031050143,-0.00068556590316842,0.001090830782496456,19.090902660834438,7.71605051788443,-53.6875
1772314142.6630287,-1.8473640047975834,1.4830476423777017,-7.935452401423784,-1.0459170342416222,-0.8905198118355079,9.750032867488024,-0.00137113180633684,-0.0016969516062100285,0.001090830782496456,20.420592275039997,8.168357692129847,-54.5
1772314142.7395334,-1.8473640047975834,1.4830476423777017,-7.935452401423784,-1.0475114008627324,-0.8892284095136475,9.746676761238806,0.00068556590316842,0.0008484758031050143,-0.001090830782496456,20.420592275039997,8.168357692129847,-54.5
1772314142.7621982,-1.8473640047975834,1.4830476423777017,-7.935452401423784,-1.0485724340388392,-0.8883689956943586,9.744443310020115,0.0020566977095052602,0.002545427409315043,0.0,19.693324870987205,9.157748728577173,-60.0625
1772314142.8156252,-1.8473640047975834,1.4830476423777017,-7.935452401423784,-1.0466766271788652,-0.8898994029608194,9.749647196598,-0.0008484758031050143,0.00068556590316842,0.001090830782496456,19.693324870987205,9.157748728577173,-60.0625
1772314142.8616974,-1.8473640047975834,1.4830476423777017,-7.935452401423784,-1.0466766271788652,-0.8898994029608194,9.749647196598,-0.0008484758031050143,0.00068556590316842,0.001090830782496456,19.693324870987205,9.157748728577173,-60.0625
1772314142.9003694,-1.8473640047975834,1.4830476423777017,-7.935452401423784,-1.0480169014772585,-0.8888155343379635,9.75311032498436,-0.0015340417062734344,-0.00016290989993659427,-0.003272492347489368,19.60737458962125,9.548605222872858,-53.25
1772314142.9247603,-1.8473640047975834,1.4830476423777017,-7.935452401423784,-1.0463069264648386,-0.8901965694399749,9.755414998239806,0.0,0.0,0.0,19.60737458962125,9.548605222872858,-53.25
1772314142.9495728,-1.8473640047975834,1.4830476423777017,-7.935452401423784,-1.0463069264648386,-0.8901965694399749,9.755414998239806,0.0,0.0,0.0,19.60737458962125,9.548605222872858,-53.25
1772314142.9982932,-1.8473640047975834,1.4830476423777017,-7.935452401423784,-1.0451689571957454,-0.8911156328731906,9.760293844253736,-0.0015340417062734344,-0.00016290989993659427,-0.001090830782496456,19.85394755001128,8.063739311349364,-53.6875
1772314143.0286815,-1.8473640047975834,1.4830476423777017,-7.935452401423784,-1.043912076335874,-0.8964315094704567,9.766885773483045,0.0,0.0,0.0,19.85394755001128,8.063739311349364,-53.6875
1772314143.063422,-1.8473640047975834,1.4830476423777017,-7.935452401423784,-1.043912076335874,-0.8964315094704567,9.766885773483045,0.0,0.0,0.0,19.85394755001128,8.063739311349364,-53.6875
1772314143.1120594,-1.8473640047975834,1.4830476423777017,-7.935452401423784,-1.0435752111871484,-0.8952649158146325,9.767927517041155,0.0,0.0,0.0,20.420592275039997,8.168357692129847,-53.6875
1772314143.1443381,-1.8473640047975834,1.4830476423777017,-7.935452401423784,-1.0433510311937018,-0.8944885607683866,9.76527567403472,0.0029051735126102746,0.001859861506146623,0.0,20.420592275039997,8.168357692129847,-53.6875
1772314143.1750004,-1.8473640047975834,1.4830476423777017,-7.935452401423784,-1.0433510311937018,-0.8944885607683866,9.76527567403472,0.0029051735126102746,0.001859861506146623,0.0,20.420592275039997,8.168357692129847,-53.6875
1772314143.2250526,-1.8473640047975834,1.4830476423777017,-7.935452401423784,-1.0432018419123177,-0.893971905157564,9.763510902136966,-0.0015340417062734344,-0.00016290989993659427,0.0,20.420592275039997,8.168357692129847,-53.25
1772314143.2860332,-1.8473640047975834,1.4830476423777017,-7.935452401423784,-1.04310255811211,-0.8936280766199828,9.755646242738166,0.0,0.0,-0.001090830782496456,20.420592275039997,8.168357692129847,-53.25
1772314143.316558,-1.8473640047975834,1.4830476423777017,-7.935452401423784,-1.0404345732659888,-0.8955016001319553,9.750412399762267,-0.0008484758031050143,0.00068556590316842,-0.001090830782496456,20.128907779818654,8.404037889107597,-53.6875
1772314143.3459494,-1.8473640047975834,1.4830476423777017,-7.935452401423784,-1.0438628843265503,-0.8925437339747117,9.743584224020342,-0.0037536493157152885,-0.001174295602978203,0.001090830782496456,20.128907779818654,8.404037889107597,-53.6875
1772314143.3780653,-1.8473640047975834,1.4830476423777017,-7.935452401423784,-1.0438628843265503,-0.8925437339747117,9.743584224020342,-0.0037536493157152885,-0.001174295602978203,0.001090830782496456,20.128907779818654,8.404037889107597,-53.6875
1772314143.4235353,-1.8473640047975834,1.4830476423777017,-7.935452401423784,-1.0430428994312146,-0.8973818948005844,9.739040149339813,-0.00068556590316842,-0.0008484758031050143,-0.001090830782496456,20.128907779818654,8.404037889107597,-54.5
1772314143.4665682,-1.8473640047975834,1.4830476423777017,-7.935452401423784,-1.047701033815512,-0.8963969616585723,9.73936123010788,-0.0015340417062734344,-0.00016290989993659427,-0.001090830782496456,20.128907779818654,8.404037889107597,-54.5
1772314143.5122924,-1.8473640047975834,1.4830476423777017,-7.935452401423784,-1.047701033815512,-0.8963969616585723,9.73936123010788,-0.0015340417062734344,-0.00016290989993659427,-0.001090830782496456,20.128907779818654,8.404037889107597,-54.5
1772314143.5373857,-1.8473640047975834,1.4830476423777017,-7.935452401423784,-1.0481990576273355,-0.8978438372179037,9.74292001747964,-0.0029051735126102746,-0.001859861506146623,0.0,20.482428075285277,8.84156463193961,-53.25
1772314143.5690036,-1.8473640047975834,1.4830476423777017,-7.935452401423784,-1.0490300619340531,-0.8941024665909076,9.745288350721287,-0.00068556590316842,-0.0008484758031050143,-0.001090830782496456,20.482428075285277,8.84156463193961,-53.25
1772314143.6114707,-1.8473640047975834,1.4830476423777017,-7.935452401423784,-1.0490300619340531,-0.8941024665909076,9.745288350721287,-0.00068556590316842,-0.0008484758031050143,-0.001090830782496456,20.482428075285277,8.84156463193961,-53.25
1772314143.6517994,-1.8473640047975834,1.4830476423777017,-7.935452401423784,-1.0490835109940078,-0.8963168763815623,9.743519338330268,-0.00068556590316842,-0.0008484758031050143,-0.001090830782496456,20.420592275039997,8.168357692129847,-53.6875
1772314143.6782904,-1.8473640047975834,1.4830476423777017,-7.935452401423784,-1.047016743183426,-0.8951886287745088,9.742342080345209,-0.00068556590316842,-0.0008484758031050143,0.0,20.420592275039997,8.168357692129847,-53.6875
1772314143.7267685,-1.8473640047975834,1.4830476423777017,-7.935452401423784,-1.0456413322927933,-0.8944377925953664,9.751593963428942,0.0,0.0,0.002181661564992912,20.128907779818654,8.404037889107597,-51.6875
1772314143.7708395,-1.8473640047975834,1.4830476423777017,-7.935452401423784,-1.0456413322927933,-0.8944377925953664,9.751593963428942,0.0,0.0,0.002181661564992912,20.128907779818654,8.404037889107597,-51.6875
1772314143.8095882,-1.8473640047975834,1.4830476423777017,-7.935452401423784,-1.0447260117094235,-0.8939381195055367,9.75775098827086,-0.0015340417062734344,-0.00016290989993659427,0.002181661564992912,20.128907779818654,8.404037889107597,-51.6875
1772314143.8518083,-1.8473640047975834,1.4830476423777017,-7.935452401423784,-1.0467187886721476,-0.891503255083053,9.761848419524684,-0.00068556590316842,-0.0008484758031050143,0.002181661564992912,20.61699243918812,8.411428104814298,-52.875
1772314143.8984632,-1.8473640047975834,1.4830476423777017,-7.935452401423784,-1.0480449594800632,-0.8898828800091078,9.757884990838159,-0.00068556590316842,-0.0008484758031050143,0.0,20.61699243918812,8.411428104814298,-52.875
1772314143.954549,-1.8473640047975834,1.4830476423777017,-7.935452401423784,-1.0489275113384324,-0.8888045384981729,9.755247373321676,0.0005226560032318258,0.0023825175093784485,-0.001090830782496456,19.61826735303353,7.772054816128023,-52.875
1772314144.0024807,-1.8473640047975834,1.4830476423777017,-7.935452401423784,-1.0495148397414271,-0.8880869142685097,9.753492068328574,0.0005226560032318258,0.0023825175093784485,-0.001090830782496456,19.61826735303353,7.772054816128023,-52.875
1772314144.0590851,-1.8473640047975834,1.4830476423777017,-7.935452401423784,-1.0473037876465758,-0.8897116809229729,9.752323932463707,0.0020566977095052602,0.002545427409315043,-0.002181661564992912,20.125405232113078,9.692503636482966,-52.5
1772314144.1617136,-1.8473640047975834,1.4830476423777017,-7.935452401423784,-1.0458323571765227,-0.8907929449816855,9.75154655109457,-0.0029051735126102746,-0.001859861506146623,-0.002181661564992912,20.125405232113078,9.692503636482966,-52.5
1772314144.214287,-1.8473640047975834,1.4830476423777017,-7.935452401423784,-1.0448531366356575,-0.8915125141342477,9.751029212477329,0.0029051735126102746,0.001859861506146623,0.0,19.850445002305705,9.352205058724735,-53.6875
1772314144.265012,-1.8473640047975834,1.4830476423777017,-7.935452401423784,-1.046803388890478,-0.8898890418042475,9.757375152821245,-0.0015340417062734344,-0.00016290989993659427,0.0,19.850445002305705,9.352205058724735,-53.6875
1772314144.2977142,-1.8473640047975834,1.4830476423777017,-7.935452401423784,-1.0481012599803157,-0.8888086391040065,9.761598305231322,-0.0008484758031050143,0.00068556590316842,0.001090830782496456,19.60737458962125,9.548605222872858,-53.25
1772314144.339159,-1.8473640047975834,1.4830476423777017,-7.935452401423784,-1.0489649786924327,-0.8880896431758851,9.764408765984525,-0.0008484758031050143,0.00068556590316842,-0.001090830782496456,19.60737458962125,9.548605222872858,-53.25
1772314144.4033804,-1.8473640047975834,1.4830476423777017,-7.935452401423784,-1.0495397738469765,-0.8876111594174312,9.766279096220877,0.0,0.0,0.0,20.77411257050662,8.60588443496186,-53.25
1772314144.4429374,-1.8473640047975834,1.4830476423777017,-7.935452401423784,-1.0499222936014427,-0.8872927338211939,9.767523780100213,-0.00016290989993659425,0.0015340417062734344,0.0,20.77411257050662,8.60588443496186,-53.25
1772314144.5013478,-1.8473640047975834,1.4830476423777017,-7.935452401423784,-1.0496772812017747,-0.8917850752930171,9.76500699161056,-0.0030680834125468687,-0.00032581979987318855,0.002181661564992912,21.292143212998447,8.749782848571968,-53.6875
1772314144.5408168,-1.8473640047975834,1.4830476423777017,-7.935452401423784,-1.0495142281867633,-0.894774678359773,9.759986985277747,0.00068556590316842,0.0008484758031050143,0.001090830782496456,21.292143212998447,8.749782848571968,-53.6875
1772314144.580248,-1.8473640047975834,1.4830476423777017,-7.935452401423784,-1.049405718226695,-0.8967642258046447,9.753301115433086,0.00274226361267368,0.003393903212420057,0.0,21.357481560949303,8.134524041006362,-53.25
1772314144.612589,-1.8473640047975834,1.4830476423777017,-7.935452401423784,-1.051935418646561,-0.8959859098415892,9.748851743737523,-0.00068556590316842,-0.0008484758031050143,0.0,21.357481560949303,8.134524041006362,-53.25
1772314144.6336114,-1.8473640047975834,1.4830476423777017,-7.935452401423784,-1.0510169934312208,-0.8975702868254511,9.745890736576865,-0.0015340417062734344,-0.00016290989993659427,0.0,21.357481560949303,8.134524041006362,-53.25
1772314144.662744,-1.8473640047975834,1.4830476423777017,-7.935452401423784,-1.0510169934312208,-0.8975702868254511,9.745890736576865,-0.0015340417062734344,-0.00016290989993659427,0.0,21.357481560949303,8.134524041006362,-53.25
1772314144.6874812,-1.8473640047975834,1.4830476423777017,-7.935452401423784,-1.0483034541469773,-0.8960227594234049,9.753955554510021,0.0015340417062734344,0.00016290989993659427,-0.001090830782496456,19.83722328459731,8.639718086085347,-53.6875
1772314144.7060044,-1.8473640047975834,1.4830476423777017,-7.935452401423784,-1.0464976240655335,-0.8949928972243568,9.759322600754619,-0.0008484758031050143,0.00068556590316842,0.001090830782496456,19.83722328459731,8.639718086085347,-53.6875
1772314144.7317438,-1.8473640047975834,1.4830476423777017,-7.935452401423784,-1.0452958643187762,-0.8943075354352049,9.759549198369244,-0.0029051735126102746,-0.001859861506146623,0.001090830782496456,19.83722328459731,8.639718086085347,-53.6875
1772314144.7543063,-1.8473640047975834,1.4830476423777017,-7.935452401423784,-1.0452958643187762,-0.8943075354352049,9.759549198369244,-0.0029051735126102746,-0.001859861506146623,0.001090830782496456,19.83722328459731,8.639718086085347,-53.6875
1772314144.777954,-1.8473640047975834,1.4830476423777017,-7.935452401423784,-1.0444961066318452,-0.893851434820517,9.759699996550516,-0.00068556590316842,-0.0008484758031050143,-0.001090830782496456,20.420592275039997,8.168357692129847,-53.25
1772314144.800029,-1.8473640047975834,1.4830476423777017,-7.935452401423784,-1.0460662143879877,-0.8961498175425759,9.756455239348307,-0.0005226560032318258,-0.0023825175093784485,-0.001090830782496456,20.420592275039997,8.168357692129847,-53.25
1772314144.8230886,-1.8473640047975834,1.4830476423777017,-7.935452401423784,-1.0471111035604477,-0.8976793655694889,9.75429588967655,-0.00137113180633684,-0.0016969516062100285,-0.002181661564992912,20.420592275039997,8.168357692129847,-53.25
1772314144.8411222,-1.8473640047975834,1.4830476423777017,-7.935452401423784,-1.0471111035604477,-0.8976793655694889,9.75429588967655,-0.00137113180633684,-0.0016969516062100285,-0.002181661564992912,20.420592275039997,8.168357692129847,-53.25
1772314144.856483,-1.8473640047975834,1.4830476423777017,-7.935452401423784,-1.047806465632543,-0.8986972626952284,9.752858866591511,0.0,0.0,0.0,19.83722328459731,8.639718086085347,-54.5
1772314144.875128,-1.8473640047975834,1.4830476423777017,-7.935452401423784,-1.048269221323819,-0.8993746618617522,9.755247655488338,-0.00137113180633684,-0.0016969516062100285,0.0,19.83722328459731,8.639718086085347,-54.5
1772314144.8942742,-1.8473640047975834,1.4830476423777017,-7.935452401423784,-1.0485771800670434,-0.8998254634400291,9.756837367814656,-0.00137113180633684,-0.0016969516062100285,0.001090830782496456,19.83722328459731,8.639718086085347,-54.5
1772314144.911834,-1.8473640047975834,1.4830476423777017,-7.935452401423784,-1.0485771800670434,-0.8998254634400291,9.756837367814656,-0.00137113180633684,-0.0016969516062100285,0.001090830782496456,19.83722328459731,8.639718086085347,-54.5
1772314144.9266431,-1.8473640047975834,1.4830476423777017,-7.935452401423784,-1.050884460733451,-0.9027273794407448,9.757895303609569,0.0,0.0,0.0,19.85394755001128,8.063739311349364,-52.875
1772314144.9415624,-1.8473640047975834,1.4830476423777017,-7.935452401423784,-1.0524199302429313,-0.9046585721226952,9.758599348063168,-0.00137113180633684,-0.0016969516062100285,0.001090830782496456,19.85394755001128,8.063739311349364,-52.875
1772314144.9614143,-1.8473640047975834,1.4830476423777017,-7.935452401423784,-1.0534417680491723,-0.9059437592796975,9.759067881782345,-0.0008484758031050143,0.00068556590316842,0.0,19.85394755001128,8.063739311349364,-52.875
1772314144.9907405,-1.8473640047975834,1.4830476423777017,-7.935452401423784,-1.0534417680491723,-0.9059437592796975,9.759067881782345,-0.0008484758031050143,0.00068556590316842,0.0,19.85394755001128,8.063739311349364,-52.875
1772314145.015827,-1.8473640047975834,1.4830476423777017,-7.935452401423784,-1.052019452131633,-0.9041971243900454,9.756034574031274,0.0,0.0,0.001090830782496456,20.61699243918812,8.411428104814298,-53.25
1772314145.038145,-1.8473640047975834,1.4830476423777017,-7.935452401423784,-1.0510729167768207,-0.9030347583821722,9.754015941607204,0.00068556590316842,0.0008484758031050143,-0.002181661564992912,20.61699243918812,8.411428104814298,-53.25
1772314145.056949,-1.8473640047975834,1.4830476423777017,-7.935452401423784,-1.0504430080716858,-0.9022612167884115,9.752672564278587,-0.00068556590316842,-0.0008484758031050143,0.0,20.61699243918812,8.411428104814298,-53.25
1772314145.0706718,-1.8473640047975834,1.4830476423777017,-7.935452401423784,-1.0504430080716858,-0.9022612167884115,9.752672564278587,-0.00068556590316842,-0.0008484758031050143,0.0,20.61699243918812,8.411428104814298,-53.25
1772314145.087744,-1.8473640047975834,1.4830476423777017,-7.935452401423784,-1.0500238108649596,-0.9017464334987896,9.7517785616729,0.0,0.0,-0.001090830782496456,19.25385429415463,9.111078480040845,-53.6875
1772314145.104959,-1.8473640047975834,1.4830476423777017,-7.935452401423784,-1.0497448398066231,-0.9014038509700524,9.751183612925479,-0.00068556590316842,-0.0008484758031050143,-0.001090830782496456,19.25385429415463,9.111078480040845,-53.6875
1772314145.1267955,-1.8473640047975834,1.4830476423777017,-7.935452401423784,-1.0497448398066231,-0.9014038509700524,9.751183612925479,-0.00068556590316842,-0.0008484758031050143,-0.001090830782496456,19.25385429415463,9.111078480040845,-53.6875
1772314145.141171,-1.8473640047975834,1.4830476423777017,-7.935452401423784,-1.0500587627068505,-0.8964716159750031,9.750787681180084,-0.0008484758031050143,0.00068556590316842,0.002181661564992912,19.25385429415463,9.111078480040845,-53.6875
1772314145.15563,-1.8473640047975834,1.4830476423777017,-7.935452401423784,-1.0476657623040477,-0.8952916062453893,9.75052419302637,-0.0015340417062734344,-0.00016290989993659427,0.002181661564992912,21.200361429630806,7.9400677108588,-53.25
1772314145.1680157,-1.8473640047975834,1.4830476423777017,-7.935452401423784,-1.0476657623040477,-0.8952916062453893,9.75052419302637,-0.0015340417062734344,-0.00016290989993659427,0.002181661564992912,21.200361429630806,7.9400677108588,-53.25
1772314145.1899767,-1.8473640047975834,1.4830476423777017,-7.935452401423784,-1.048675159853704,-0.8924039853889872,9.75369395631075,0.0,0.0,-0.001090830782496456,21.200361429630806,7.9400677108588,-53.25
1772314145.2067657,-1.8473640047975834,1.4830476423777017,-7.935452401423784,-1.048675159853704,-0.8924039853889872,9.75369395631075,0.0,0.0,-0.001090830782496456,21.200361429630806,7.9400677108588,-53.25
1772314145.2223625,-1.8473640047975834,1.4830476423777017,-7.935452401423784,-1.0472445650843747,-0.8878803933797342,9.752458286660609,-0.00137113180633684,-0.0016969516062100285,-0.001090830782496456,19.326582857812188,8.007735013105773,-54.5
1772314145.2464354,-1.8473640047975834,1.4830476423777017,-7.935452401423784,-1.0462925202461768,-0.8848699934294103,9.748290850604455,-0.0022196076094418544,-0.0010113857030416085,0.0,19.326582857812188,8.007735013105773,-54.5
1772314145.2614918,-1.8473640047975834,1.4830476423777017,-7.935452401423784,-1.0462925202461768,-0.8848699934294103,9.748290850604455,-0.0022196076094418544,-0.0010113857030416085,0.0,19.326582857812188,8.007735013105773,-54.5
1772314145.2755446,-1.8473640047975834,1.4830476423777017,-7.935452401423784,-1.0456589450413938,-0.8828666058908405,9.745517468462396,0.0003258197998731885,-0.0030680834125468687,-0.001090830782496456,19.326582857812188,8.007735013105773,-54.5
1772314145.2887378,-1.8473640047975834,1.4830476423777017,-7.935452401423784,-1.0456589450413938,-0.8828666058908405,9.745517468462396,0.0003258197998731885,-0.0030680834125468687,-0.001090830782496456,19.326582857812188,8.007735013105773,-54.5
1772314145.3110037,-1.8473640047975834,1.4830476423777017,-7.935452401423784,-1.049441982945942,-0.8867371990355393,9.743671813627563,-0.0016969516062100285,0.00137113180633684,0.0,20.420592275039997,8.168357692129847,-52.875
1772314145.3269112,-1.8473640047975834,1.4830476423777017,-7.935452401423784,-1.0498572148492002,-0.886711122949822,9.749133774366936,-0.00016290989993659425,0.0015340417062734344,0.0,20.420592275039997,8.168357692129847,-52.875
1772314145.339253,-1.8473640047975834,1.4830476423777017,-7.935452401423784,-1.0498572148492002,-0.886711122949822,9.749133774366936,-0.00016290989993659425,0.0015340417062734344,0.0,20.420592275039997,8.168357692129847,-52.875
1772314145.353342,-1.8473640047975834,1.4830476423777017,-7.935452401423784,-1.05273545962853,-0.8845914320431497,9.756113759932209,-0.00068556590316842,-0.0008484758031050143,0.002181661564992912,20.420592275039997,8.168357692129847,-52.875
1772314145.366129,-1.8473640047975834,1.4830476423777017,-7.935452401423784,-1.052548561814157,-0.8805788888371024,9.76075886235435,-0.0008484758031050143,0.00068556590316842,-0.001090830782496456,20.61699243918812,8.411428104814298,-53.25
1772314145.3955805,-1.8473640047975834,1.4830476423777017,-7.935452401423784,-1.052548561814157,-0.8805788888371024,9.76075886235435,-0.0008484758031050143,0.00068556590316842,-0.001090830782496456,20.61699243918812,8.411428104814298,-53.25
1772314145.414848,-1.8473640047975834,1.4830476423777017,-7.935452401423784,-1.0472203582341653,-0.882113261282355,9.760505014419772,0.0,0.0,0.0,20.61699243918812,8.411428104814298,-53.25
1772314145.4283855,-1.8473640047975834,1.4830476423777017,-7.935452401423784,-1.0436744982716148,-0.8831343690046074,9.760336081454978,-0.00016290989993659425,0.0015340417062734344,0.0,20.61699243918812,8.411428104814298,-53.25
1772314145.445265,-1.8473640047975834,1.4830476423777017,-7.935452401423784,-1.0436744982716148,-0.8831343690046074,9.760336081454978,-0.00016290989993659425,0.0015340417062734344,0.0,20.61699243918812,8.411428104814298,-53.25
1772314145.4611368,-1.8473640047975834,1.4830476423777017,-7.935452401423784,-1.0460190182254605,-0.8843134798104852,9.763568770161331,-0.00137113180633684,-0.0016969516062100285,-0.002181661564992912,19.85394755001128,8.063739311349364,-52.875
1772314145.474759,-1.8473640047975834,1.4830476423777017,-7.935452401423784,-1.0460190182254605,-0.8843134798104852,9.763568770161331,-0.00137113180633684,-0.0016969516062100285,-0.002181661564992912,19.85394755001128,8.063739311349364,-52.875
1772314145.4980688,-1.8473640047975834,1.4830476423777017,-7.935452401423784,-1.0475792700647413,-0.8850981648802663,9.76572008838391,-0.0035907394157786944,-0.002708337309251637,-0.001090830782496456,19.85394755001128,8.063739311349364,-52.875
1772314145.5190313,-1.8473640047975834,1.4830476423777017,-7.935452401423784,-1.0486176002346272,-0.8856203640286988,9.760461543214598,-0.00274226361267368,-0.003393903212420057,0.0,20.32530794396678,8.647108301792048,-51.25
1772314145.5347524,-1.8473640047975834,1.4830476423777017,-7.935452401423784,-1.0493085973637786,-0.8859678817286342,9.75696204014622,-0.0023825175093784485,0.0005226560032318258,0.001090830782496456,20.32530794396678,8.647108301792048,-51.25
1772314145.5491343,-1.8473640047975834,1.4830476423777017,-7.935452401423784,-1.0493085973637786,-0.8859678817286342,9.75696204014622,-0.0023825175093784485,0.0005226560032318258,0.001090830782496456,20.32530794396678,8.647108301792048,-51.25
1772314145.5669458,-1.8473640047975834,1.4830476423777017,-7.935452401423784,-1.0497684482342848,-0.8861991508759139,9.754633159946225,-0.0034278295158421,-0.004242379015525071,0.0,20.32530794396678,8.647108301792048,-51.25
1772314145.580699,-1.8473640047975834,1.4830476423777017,-7.935452401423784,-1.0497684482342848,-0.8861991508759139,9.754633159946225,-0.0034278295158421,-0.004242379015525071,0.0,20.32530794396678,8.647108301792048,-51.25
1772314145.613996,-1.8473640047975834,1.4830476423777017,-7.935452401423784,-1.0500744738517362,-0.8863530579099831,9.753083316188425,-0.0022196076094418544,-0.0010113857030416085,-0.001090830782496456,19.562263054789938,8.299419508327114,-52.875
1772314145.627727,-1.8473640047975834,1.4830476423777017,-7.935452401423784,-1.0528800430677756,-0.8843531437589855,9.752051912480498,-0.0005226560032318258,-0.0023825175093784485,-0.001090830782496456,19.562263054789938,8.299419508327114,-52.875
1772314145.6555777,-1.8473640047975834,1.4830476423777017,-7.935452401423784,-1.0495432928684767,-0.8872268983578342,9.751365524834407,0.00016290989993659425,-0.0015340417062734344,0.0,19.562263054789938,8.299419508327114,-52.875
1772314145.6717992,-1.8473640047975834,1.4830476423777017,-7.935452401423784,-1.0495432928684767,-0.8872268983578342,9.751365524834407,0.00016290989993659425,-0.0015340417062734344,0.0,19.562263054789938,8.299419508327114,-52.875
1772314145.687748,-1.8473640047975834,1.4830476423777017,-7.935452401423784,-1.0473227228847852,-0.8891393499414256,9.757598964938024,-0.00137113180633684,-0.0016969516062100285,0.001090830782496456,19.693324870987205,9.157748728577173,-52.5
1772314145.7064288,-1.8473640047975834,1.4830476423777017,-7.935452401423784,-1.0479472959289466,-0.8930139776929776,9.745021691158296,0.00016290989993659425,-0.0015340417062734344,-0.002181661564992912,19.693324870987205,9.157748728577173,-52.5
1772314145.721798,-1.8473640047975834,1.4830476423777017,-7.935452401423784,-1.0483629423128984,-0.8955924991792076,9.73999676766256,-0.0008484758031050143,0.00068556590316842,0.0,19.693324870987205,9.157748728577173,-52.5
1772314145.7370396,-1.8473640047975834,1.4830476423777017,-7.935452401423784,-1.0483629423128984,-0.8955924991792076,9.73999676766256,-0.0008484758031050143,0.00068556590316842,0.0,19.693324870987205,9.157748728577173,-52.5
1772314145.753363,-1.8473640047975834,1.4830476423777017,-7.935452401423784,-1.0486395503383437,-0.8973084764243212,9.736652737208223,-0.00016290989993659425,0.0015340417062734344,-0.001090830782496456,20.033623448745438,8.882788498769798,-53.25
1772314145.7690463,-1.8473640047975834,1.4830476423777017,-7.935452401423784,-1.0486395503383437,-0.8973084764243212,9.736652737208223,-0.00016290989993659425,0.0015340417062734344,-0.001090830782496456,20.033623448745438,8.882788498769798,-53.25
1772314145.7983594,-1.8473640047975834,1.4830476423777017,-7.935452401423784,-1.0488236298893634,-0.8984504401122224,9.747807769125405,-0.0008484758031050143,0.00068556590316842,0.0,20.033623448745438,8.882788498769798,-53.25
1772314145.812764,-1.8473640047975834,1.4830476423777017,-7.935452401423784,-1.0494457077975032,-0.8945061540408783,9.755231318256419,0.0022196076094418544,0.0010113857030416085,0.0,19.83722328459731,8.639718086085347,-52.0625
1772314145.8351583,-1.8473640047975834,1.4830476423777017,-7.935452401423784,-1.0494457077975032,-0.8945061540408783,9.755231318256419,0.0022196076094418544,0.0010113857030416085,0.0,19.83722328459731,8.639718086085347,-52.0625
1772314145.8500051,-1.8473640047975834,1.4830476423777017,-7.935452401423784,-1.0519620312592213,-0.8944831883071171,9.756826495569312,-0.0008484758031050143,0.00068556590316842,0.0,19.83722328459731,8.639718086085347,-52.0625
1772314145.863193,-1.8473640047975834,1.4830476423777017,-7.935452401423784,-1.0519620312592213,-0.8944831883071171,9.756826495569312,-0.0008484758031050143,0.00068556590316842,0.0,19.83722328459731,8.639718086085347,-52.0625
1772314145.8824973,-1.8473640047975834,1.4830476423777017,-7.935452401423784,-1.0515342788509032,-0.8918659922816873,9.754542956544425,-0.0023825175093784485,0.0005226560032318258,0.0,19.83722328459731,8.639718086085347,-52.0625
1772314145.9070463,-1.8473640047975834,1.4830476423777017,-7.935452401423784,-1.0486477018153193,-0.8922266151256752,9.753023286832166,0.00137113180633684,0.0016969516062100285,0.0,20.14563204523262,7.828059114371615,-53.25
1772314145.922101,-1.8473640047975834,1.4830476423777017,-7.935452401423784,-1.0467267170433165,-0.892466605599928,9.74866685190716,-0.0010113857030416085,0.0022196076094418544,-0.002181661564992912,20.14563204523262,7.828059114371615,-53.25
1772314145.936987,-1.8473640047975834,1.4830476423777017,-7.935452401423784,-1.0467267170433165,-0.892466605599928,9.74866685190716,-0.0010113857030416085,0.0022196076094418544,-0.002181661564992912,20.14563204523262,7.828059114371615,-53.25
1772314145.9575198,-1.8473640047975834,1.4830476423777017,-7.935452401423784,-1.0480502357225103,-0.8905239790167576,9.745767693129135,-0.0015340417062734344,-0.00016290989993659427,0.002181661564992912,20.14563204523262,7.828059114371615,-53.25
1772314145.9743047,-1.8473640047975834,1.4830476423777017,-7.935452401423784,-1.0489310226188415,-0.8892311827262186,9.747183447055406,-0.0022196076094418544,-0.0010113857030416085,0.001090830782496456,20.860062851872573,8.215027940666173,-54.0625
1772314145.990545,-1.8473640047975834,1.4830476423777017,-7.935452401423784,-1.0495171764593156,-0.8883708412363457,9.754815838892968,-0.001859861506146623,0.0029051735126102746,-0.001090830782496456,20.860062851872573,8.215027940666173,-54.0625
1772314146.0127158,-1.8473640047975834,1.4830476423777017,-7.935452401423784,-1.0499072552923836,-0.8877982935854793,9.753204886986826,-0.0016969516062100285,0.00137113180633684,-0.001090830782496456,20.860062851872573,8.215027940666173,-54.0625
1772314146.0366843,-1.8473640047975834,1.4830476423777017,-7.935452401423784,-1.0499072552923836,-0.8877982935854793,9.753204886986826,-0.0016969516062100285,0.00137113180633684,-0.001090830782496456,20.860062851872573,8.215027940666173,-54.0625
1772314146.0546222,-1.8473640047975834,1.4830476423777017,-7.935452401423784,-1.0475649358121686,-0.8895196070825205,9.758823039903438,-0.0015340417062734344,-0.00016290989993659427,0.0,20.61699243918812,8.411428104814298,-52.5
1772314146.0674791,-1.8473640047975834,1.4830476423777017,-7.935452401423784,-1.0481084859264247,-0.8932670345726258,9.759216746203244,-0.00137113180633684,-0.0016969516062100285,0.0,20.61699243918812,8.411428104814298,-52.5
1772314146.080537,-1.8473640047975834,1.4830476423777017,-7.935452401423784,-1.0481084859264247,-0.8932670345726258,9.759216746203244,-0.00137113180633684,-0.0016969516062100285,0.0,20.61699243918812,8.411428104814298,-52.5
1772314146.100883,-1.8473640047975834,1.4830476423777017,-7.935452401423784,-1.0484702124556096,-0.8957609057057828,9.762823865055095,0.00068556590316842,0.0008484758031050143,-0.001090830782496456,20.61699243918812,8.411428104814298,-52.5
1772314146.1134522,-1.8473640047975834,1.4830476423777017,-7.935452401423784,-1.051312850006188,-0.8953182115236165,9.761879250649526,-0.0020566977095052602,-0.002545427409315043,0.001090830782496456,19.693324870987205,9.157748728577173,-52.875
1772314146.1281888,-1.8473640047975834,1.4830476423777017,-7.935452401423784,-1.051312850006188,-0.8953182115236165,9.761879250649526,-0.0020566977095052602,-0.002545427409315043,0.001090830782496456,19.693324870987205,9.157748728577173,-52.875
1772314146.1447704,-1.8473640047975834,1.4830476423777017,-7.935452401423784,-1.0532045935417556,-0.895023603490603,9.764595732021974,0.00137113180633684,0.0016969516062100285,0.0,19.693324870987205,9.157748728577173,-52.875
1772314146.16224,-1.8473640047975834,1.4830476423777017,-7.935452401423784,-1.054463527732516,-0.8948275451356198,9.766403520030252,0.0008484758031050143,-0.00068556590316842,0.0,19.693324870987205,9.157748728577173,-52.875
1772314146.1753273,-1.8473640047975834,1.4830476423777017,-7.935452401423784,-1.054463527732516,-0.8948275451356198,9.766403520030252,0.0008484758031050143,-0.00068556590316842,0.0,19.693324870987205,9.157748728577173,-52.875
1772314146.1901505,-1.8473640047975834,1.4830476423777017,-7.935452401423784,-1.0526994217870949,-0.8967994080534102,9.767606582755446,0.00068556590316842,0.0008484758031050143,-0.001090830782496456,20.420592275039997,8.168357692129847,-53.6875
1772314146.2043674,-1.8473640047975834,1.4830476423777017,-7.935452401423784,-1.0526994217870949,-0.8967994080534102,9.767606582755446,0.00068556590316842,0.0008484758031050143,-0.001090830782496456,20.420592275039997,8.168357692129847,-53.6875
1772314146.230254,-1.8473640047975834,1.4830476423777017,-7.935452401423784,-1.0515254289867717,-0.8981116607980474,9.768407207559973,0.00068556590316842,0.0008484758031050143,-0.001090830782496456,20.420592275039997,8.168357692129847,-53.6875
1772314146.2433257,-1.8473640047975834,1.4830476423777017,-7.935452401423784,-1.0507441498925156,-0.8989849503407801,9.76224979100918,0.0008484758031050143,-0.00068556590316842,0.001090830782496456,20.420592275039997,8.168357692129847,-53.6875
1772314146.263542,-1.8473640047975834,1.4830476423777017,-7.935452401423784,-1.050723792405987,-0.8948618646271129,9.75480698737016,0.0015340417062734344,0.00016290989993659427,0.0,19.496924706839078,8.914678315892722,-52.5
1772314146.2908945,-1.8473640047975834,1.4830476423777017,-7.935452401423784,-1.0507102447261103,-0.8921179971425528,9.749853884689955,-0.0008484758031050143,0.00068556590316842,-0.001090830782496456,19.496924706839078,8.914678315892722,-52.5
1772314146.311245,-1.8473640047975834,1.4830476423777017,-7.935452401423784,-1.0507012288964896,-0.890291983982586,9.74990276189338,0.0005226560032318258,0.0023825175093784485,-0.002181661564992912,19.496924706839078,8.914678315892722,-52.5
1772314146.3361878,-1.8473640047975834,1.4830476423777017,-7.935452401423784,-1.0507012288964896,-0.890291983982586,9.74990276189338,0.0005226560032318258,0.0023825175093784485,-0.002181661564992912,19.496924706839078,8.914678315892722,-52.5
1772314146.3530197,-1.8473640047975834,1.4830476423777017,-7.935452401423784,-1.0506952289625906,-0.8890767926225318,9.749935289126265,-0.00016290989993659425,0.0015340417062734344,-0.002181661564992912,20.61699243918812,8.411428104814298,-54.0625
1772314146.3671944,-1.8473640047975834,1.4830476423777017,-7.935452401423784,-1.0506912360736045,-0.8882680963469927,9.749956935636398,-0.0015340417062734344,-0.00016290989993659427,0.0,20.61699243918812,8.411428104814298,-54.0625
1772314146.379461,-1.8473640047975834,1.4830476423777017,-7.935452401423784,-1.0506912360736045,-0.8882680963469927,9.749956935636398,-0.0015340417062734344,-0.00016290989993659427,0.0,20.61699243918812,8.411428104814298,-54.0625
1772314146.3942778,-1.8473640047975834,1.4830476423777017,-7.935452401423784,-1.045484753678276,-0.8919345931351833,9.753316452854403,0.0,0.0,0.0,20.61699243918812,8.411428104814298,-54.0625
1772314146.4068763,-1.8473640047975834,1.4830476423777017,-7.935452401423784,-1.042019897804404,-0.8943746057902713,9.755552174034719,-0.00016290989993659425,0.0015340417062734344,-0.001090830782496456,19.83722328459731,8.639718086085347,-53.6875
1772314146.4215474,-1.8473640047975834,1.4830476423777017,-7.935452401423784,-1.042019897804404,-0.8943746057902713,9.755552174034719,-0.00016290989993659425,0.0015340417062734344,-0.001090830782496456,19.83722328459731,8.639718086085347,-53.6875
1772314146.433764,-1.8473640047975834,1.4830476423777017,-7.935452401423784,-1.0397140749253184,-0.8959984069555051,9.757040021505578,-0.0015340417062734344,-0.00016290989993659427,0.0,19.83722328459731,8.639718086085347,-53.6875
1772314146.4458282,-1.8473640047975834,1.4830476423777017,-7.935452401423784,-1.043383400729328,-0.892874353366088,9.758030167377088,-0.0030680834125468687,-0.00032581979987318855,0.003272492347489368,19.83722328459731,8.639718086085347,-53.6875
1772314146.4651468,-1.8473640047975834,1.4830476423777017,-7.935452401423784,-1.043383400729328,-0.892874353366088,9.758030167377088,-0.0030680834125468687,-0.00032581979987318855,0.003272492347489368,19.83722328459731,8.639718086085347,-53.6875
1772314146.4827673,-1.8473640047975834,1.4830476423777017,-7.935452401423784,-1.0458252960628414,-0.8907953306002963,9.762034210101243,0.0,0.0,0.002181661564992912,20.420592275039997,8.168357692129847,-54.0625
1772314146.501038,-1.8473640047975834,1.4830476423777017,-7.935452401423784,-1.0474503501295362,-0.8894117641738677,9.761353744098761,0.00016290989993659425,-0.0015340417062734344,0.001090830782496456,20.420592275039997,8.168357692129847,-54.0625
1772314146.5305638,-1.8473640047975834,1.4830476423777017,-7.935452401423784,-1.0474503501295362,-0.8894117641738677,9.761353744098761,0.00016290989993659425,-0.0015340417062734344,0.001090830782496456,20.420592275039997,8.168357692129847,-54.0625
1772314146.5615087,-1.8473640047975834,1.4830476423777017,-7.935452401423784,-1.0485318054578785,-0.8884910161725293,9.764246013282733,-0.00137113180633684,-0.0016969516062100285,0.001090830782496456,20.14563204523262,7.828059114371615,-52.875
1772314146.574187,-1.8473640047975834,1.4830476423777017,-7.935452401423784,-1.0471491643353263,-0.8852763560769118,9.759480562701263,0.00068556590316842,0.0008484758031050143,-0.001090830782496456,20.14563204523262,7.828059114371615,-52.875
1772314146.5884933,-1.8473640047975834,1.4830476423777017,-7.935452401423784,-1.0471491643353263,-0.8852763560769118,9.759480562701263,0.00068556590316842,0.0008484758031050143,-0.001090830782496456,20.14563204523262,7.828059114371615,-52.875
1772314146.6021712,-1.8473640047975834,1.4830476423777017,-7.935452401423784,-1.0483313696762975,-0.8857389482795404,9.762999431987504,-0.00016290989993659425,0.0015340417062734344,0.0,20.14563204523262,7.828059114371615,-52.875
1772314146.615389,-1.8473640047975834,1.4830476423777017,-7.935452401423784,-1.0483313696762975,-0.8857389482795404,9.762999431987504,-0.00016290989993659425,0.0015340417062734344,0.0,20.14563204523262,7.828059114371615,-52.875
1772314146.6315372,-1.8473640047975834,1.4830476423777017,-7.935452401423784,-1.046516201538459,-0.8881491357858126,9.765341200189152,0.0,0.0,0.001090830782496456,20.77411257050662,8.60588443496186,-52.875
1772314146.6476417,-1.8473640047975834,1.4830476423777017,-7.935452401423784,-1.0453082274194843,-0.8897530886476782,9.766899620768084,-0.00068556590316842,-0.0008484758031050143,0.0,20.77411257050662,8.60588443496186,-52.875
1772314146.6627936,-1.8473640047975834,1.4830476423777017,-7.935452401423784,-1.0445043341372615,-0.8908205013599223,9.767936732254665,-0.0008484758031050143,0.00068556590316842,0.001090830782496456,20.77411257050662,8.60588443496186,-52.875
1772314146.6859024,-1.8473640047975834,1.4830476423777017,-7.935452401423784,-1.0445043341372615,-0.8908205013599223,9.767936732254665,-0.0008484758031050143,0.00068556590316842,0.001090830782496456,20.77411257050662,8.60588443496186,-52.875
1772314146.7112467,-1.8473640047975834,1.4830476423777017,-7.935452401423784,-1.0439693521380187,-0.8915308525961394,9.76528180665637,-0.0023825175093784485,0.0005226560032318258,0.0,19.562263054789938,8.299419508327114,-53.6875
1772314146.7322838,-1.8473640047975834,1.4830476423777017,-7.935452401423784,-1.043613327593663,-0.8920035834086987,9.763514983328168,-0.0020566977095052602,-0.002545427409315043,-0.001090830782496456,19.562263054789938,8.299419508327114,-53.6875
1772314146.7566695,-1.8473640047975834,1.4830476423777017,-7.935452401423784,-1.043613327593663,-0.8920035834086987,9.763514983328168,-0.0020566977095052602,-0.002545427409315043,-0.001090830782496456,19.562263054789938,8.299419508327114,-53.6875
1772314146.770534,-1.8473640047975834,1.4830476423777017,-7.935452401423784,-1.0433763972364491,-0.8923181804837077,9.762339182139959,0.0035907394157786944,0.002708337309251637,0.001090830782496456,19.562263054789938,8.299419508327114,-53.6875
1772314146.7904863,-1.8473640047975834,1.4830476423777017,-7.935452401423784,-1.0432187227304088,-0.8925275413228465,9.764901811291086,0.00068556590316842,0.0008484758031050143,0.0,19.496924706839078,8.914678315892722,-53.25
1772314146.813149,-1.8473640047975834,1.4830476423777017,-7.935452401423784,-1.0457157046941346,-0.8905645310596634,9.763262100657398,0.0,0.0,0.001090830782496456,19.496924706839078,8.914678315892722,-53.25
1772314146.8332455,-1.8473640047975834,1.4830476423777017,-7.935452401423784,-1.0457157046941346,-0.8905645310596634,9.763262100657398,0.0,0.0,0.001090830782496456,19.496924706839078,8.914678315892722,-53.25
1772314146.849076,-1.8473640047975834,1.4830476423777017,-7.935452401423784,-1.0473774182978777,-0.8892581696577764,9.765516003254765,0.0008484758031050143,-0.00068556590316842,0.0,19.496924706839078,8.914678315892722,-53.25
1772314146.8692021,-1.8473640047975834,1.4830476423777017,-7.935452401423784,-1.0432794449662999,-0.8925934758636662,9.756980615133614,-0.00137113180633684,-0.0016969516062100285,-0.002181661564992912,19.221964477031705,8.574379738134489,-53.25
1772314146.8847284,-1.8473640047975834,1.4830476423777017,-7.935452401423784,-1.0432794449662999,-0.8925934758636662,9.756980615133614,-0.00137113180633684,-0.0016969516062100285,-0.002181661564992912,19.221964477031705,8.574379738134489,-53.25
1772314146.9064407,-1.8473640047975834,1.4830476423777017,-7.935452401423784,-1.0405522894914965,-0.8948130848858744,9.761335744807479,0.0037536493157152885,0.001174295602978203,0.002181661564992912,19.221964477031705,8.574379738134489,-53.25
1772314146.9194894,-1.8473640047975834,1.4830476423777017,-7.935452401423784,-1.0413393105734932,-0.8941878723325801,9.76088892324813,0.0012082219064002459,0.003230993312483463,-0.001090830782496456,19.221964477031705,8.574379738134489,-53.25
1772314146.9450927,-1.8473640047975834,1.4830476423777017,-7.935452401423784,-1.0413393105734932,-0.8941878723325801,9.76088892324813,0.0012082219064002459,0.003230993312483463,-0.001090830782496456,19.221964477031705,8.574379738134489,-53.25
1772314146.96526,-1.8473640047975834,1.4830476423777017,-7.935452401423784,-1.0422116165741981,-0.8934949091141481,9.762619816696853,-0.00068556590316842,-0.0008484758031050143,-0.002181661564992912,20.32530794396678,8.647108301792048,-53.25
1772314146.9843745,-1.8473640047975834,1.4830476423777017,-7.935452401423784,-1.0422116165741981,-0.8934949091141481,9.762619816696853,-0.00068556590316842,-0.0008484758031050143,-0.002181661564992912,20.32530794396678,8.647108301792048,-53.25
1772314147.0024734,-1.8473640047975834,1.4830476423777017,-7.935452401423784,-1.0424435742111333,-0.8933106410814845,9.761743458746485,-0.00068556590316842,-0.0008484758031050143,0.0,20.32530794396678,8.647108301792048,-53.25
1772314147.0145159,-1.8473640047975834,1.4830476423777017,-7.935452401423784,-1.0424435742111333,-0.8933106410814845,9.761743458746485,-0.00068556590316842,-0.0008484758031050143,0.0,20.32530794396678,8.647108301792048,-53.25
1772314147.0276916,-1.8473640047975834,1.4830476423777017,-7.935452401423784,-1.042597939427377,-0.8931880127641557,9.757815140612756,-0.0008484758031050143,0.00068556590316842,0.001090830782496456,20.61699243918812,8.411428104814298,-52.875
1772314147.0416381,-1.8473640047975834,1.4830476423777017,-7.935452401423784,-1.0427006677544148,-0.8931064049888214,9.755200888776947,-0.00068556590316842,-0.0008484758031050143,0.0,20.61699243918812,8.411428104814298,-52.875
1772314147.0584083,-1.8473640047975834,1.4830476423777017,-7.935452401423784,-1.0427006677544148,-0.8931064049888214,9.755200888776947,-0.00068556590316842,-0.0008484758031050143,0.0,20.61699243918812,8.411428104814298,-52.875
1772314147.0812428,-1.8473640047975834,1.4830476423777017,-7.935452401423784,-1.042769032308508,-0.8930520959259552,9.753461133383324,-0.0015340417062734344,-0.00016290989993659427,0.0,20.61699243918812,8.411428104814298,-52.875
1772314147.1064448,-1.8473640047975834,1.4830476423777017,-7.935452401423784,-1.0428145281555747,-0.8930159538512896,9.75230334560321,0.00068556590316842,0.0008484758031050143,-0.002181661564992912,20.61699243918812,8.411428104814298,-54.5
1772314147.1254292,-1.8473640047975834,1.4830476423777017,-7.935452401423784,-1.0454467177197315,-0.8908895641414167,9.758223074183519,-0.00016290989993659425,0.0015340417062734344,0.001090830782496456,20.61699243918812,8.411428104814298,-54.5
1772314147.1532114,-1.8473640047975834,1.4830476423777017,-7.935452401423784,-1.0454467177197315,-0.8908895641414167,9.758223074183519,-0.00016290989993659425,0.0015340417062734344,0.001090830782496456,20.61699243918812,8.411428104814298,-54.5
1772314147.1697493,-1.8473640047975834,1.4830476423777017,-7.935452401423784,-1.0445964978850382,-0.8915768131057422,9.762162587426014,-0.0003258197998731885,0.0030680834125468687,-0.001090830782496456,20.61699243918812,8.411428104814298,-54.5
1772314147.188576,-1.8473640047975834,1.4830476423777017,-7.935452401423784,-1.0466325986687832,-0.8899318320515105,9.761439177774328,-0.0016969516062100285,0.00137113180633684,-0.001090830782496456,20.190743580063934,9.07724482891736,-53.0
1772314147.2205,-1.8473640047975834,1.4830476423777017,-7.935452401423784,-1.0466325986687832,-0.8899318320515105,9.761439177774328,-0.0016969516062100285,0.00137113180633684,-0.001090830782496456,20.190743580063934,9.07724482891736,-53.0
1772314147.2367806,-1.8473640047975834,1.4830476423777017,-7.935452401423784,-1.0479876009956297,-0.8888371155355618,9.760957756732147,-0.0016969516062100285,0.00137113180633684,-0.001090830782496456,20.190743580063934,9.07724482891736,-53.0
1772314147.2502675,-1.8473640047975834,1.4830476423777017,-7.935452401423784,-1.048889339907778,-0.8881085939229825,9.7606373764064,0.0022196076094418544,0.0010113857030416085,0.0,20.190743580063934,9.07724482891736,-53.0
1772314147.263431,-1.8473640047975834,1.4830476423777017,-7.935452401423784,-1.048889339907778,-0.8881085939229825,9.7606373764064,0.0022196076094418544,0.0010113857030416085,0.0,20.190743580063934,9.07724482891736,-53.0
1772314147.2866108,-1.8473640047975834,1.4830476423777017,-7.935452401423784,-1.0468875244945737,-0.8897261084908471,9.757079055171179,0.00016290989993659425,-0.0015340417062734344,-0.001090830782496456,19.693324870987205,9.157748728577173,-52.5
1772314147.3046117,-1.8473640047975834,1.4830476423777017,-7.935452401423784,-1.0468875244945737,-0.8897261084908471,9.757079055171179,0.00016290989993659425,-0.0015340417062734344,-0.001090830782496456,19.693324870987205,9.157748728577173,-52.5
1772314147.3288872,-1.8473640047975834,1.4830476423777017,-7.935452401423784,-1.0455553386988292,-0.8908025463669392,9.751365920430873,0.0016969516062100285,-0.00137113180633684,0.0,19.693324870987205,9.157748728577173,-52.5
1772314147.3551433,-1.8473640047975834,1.4830476423777017,-7.935452401423784,-1.0420668713470957,-0.8936212413117959,9.747563893081095,-0.0005226560032318258,-0.0023825175093784485,0.001090830782496456,20.190743580063934,9.07724482891736,-53.25
1772314147.370281,-1.8473640047975834,1.4830476423777017,-7.935452401423784,-1.042347247879407,-0.893394713747796,9.755069021473204,0.0010113857030416085,-0.0022196076094418544,0.0,20.190743580063934,9.07724482891736,-53.25
1772314147.3872676,-1.8473640047975834,1.4830476423777017,-7.935452401423784,-1.042347247879407,-0.893394713747796,9.755069021473204,0.0010113857030416085,-0.0022196076094418544,0.0,20.190743580063934,9.07724482891736,-53.25
1772314147.4038892,-1.8473640047975834,1.4830476423777017,-7.935452401423784,-1.0425338353296487,-0.8932439621844328,9.760063600580375,0.0023825175093784485,-0.0005226560032318258,0.0,20.190743580063934,9.07724482891736,-53.25
1772314147.4250329,-1.8473640047975834,1.4830476423777017,-7.935452401423784,-1.0426580071934664,-0.8931436387030199,9.763387437183095,0.0008484758031050143,-0.00068556590316842,0.0,20.190743580063934,9.07724482891736,-52.875
1772314147.4388337,-1.8473640047975834,1.4830476423777017,-7.935452401423784,-1.0427406421817462,-0.8930768745468264,9.755564078190558,0.0022196076094418544,0.0010113857030416085,0.0,20.190743580063934,9.07724482891736,-52.875
1772314147.4571586,-1.8473640047975834,1.4830476423777017,-7.935452401423784,-1.0427406421817462,-0.8930768745468264,9.755564078190558,0.0022196076094418544,0.0010113857030416085,0.0,20.190743580063934,9.07724482891736,-52.875
1772314147.4793463,-1.8473640047975834,1.4830476423777017,-7.935452401423784,-1.043295209866593,-0.888328193597612,9.750357720173671,0.0,0.0,-0.1407171709420428,20.190743580063934,9.07724482891736,-52.875
1772314147.5035405,-1.8473640047975834,1.4830476423777017,-7.935452401423784,-1.0410623558797756,-0.887270337035068,9.753583170486902,0.0016969516062100285,-0.00137113180633684,0.0,19.83722328459731,8.639718086085347,-53.25
1772314147.5290687,-1.8473640047975834,1.4830476423777017,-7.935452401423784,-1.042178329080318,-0.8844640077468107,9.755729671639715,0.0022196076094418544,0.0010113857030416085,0.0,19.83722328459731,8.639718086085347,-53.25
1772314147.5493906,-1.8473640047975834,1.4830476423777017,-7.935452401423784,-1.0497275844910297,-0.8856979145636232,9.757158144178923,-0.0008484758031050143,0.00068556590316842,0.001090830782496456,19.83722328459731,8.639718086085347,-53.25
1772314147.5647297,-1.8473640047975834,1.4830476423777017,-7.935452401423784,-1.0497275844910297,-0.8856979145636232,9.757158144178923,-0.0008484758031050143,0.00068556590316842,0.001090830782496456,19.83722328459731,8.639718086085347,-53.25
1772314147.5789309,-1.8473640047975834,1.4830476423777017,-7.935452401423784,-1.0547515296361498,-0.8865190657665696,9.754763664989364,0.00016290989993659425,-0.0015340417062734344,0.0,20.420592275039997,8.168357692129847,-53.25
1772314147.598149,-1.8473640047975834,1.4830476423777017,-7.935452401423784,-1.055492996422927,-0.8891678702821868,9.753170165836798,0.0029051735126102746,0.001859861506146623,-0.002181661564992912,20.420592275039997,8.168357692129847,-53.25
1772314147.6178637,-1.8473640047975834,1.4830476423777017,-7.935452401423784,-1.0559864342868004,-0.8909306200982449,9.752109709951316,0.00137113180633684,0.0016969516062100285,-0.001090830782496456,20.420592275039997,8.168357692129847,-53.25
1772314147.641938,-1.8473640047975834,1.4830476423777017,-7.935452401423784,-1.0559864342868004,-0.8909306200982449,9.752109709951316,0.00137113180633684,0.0016969516062100285,-0.001090830782496456,20.420592275039997,8.168357692129847,-53.25
1772314147.6627662,-1.8473640047975834,1.4830476423777017,-7.935452401423784,-1.0521101365473136,-0.886899885237314,9.751403988405597,0.0015340417062734344,0.00016290989993659427,0.0,19.850445002305705,9.352205058724735,-53.6875
1772314147.6889467,-1.8473640047975834,1.4830476423777017,-7.935452401423784,-1.0516328412656843,-0.8868193887997791,9.750934338600347,0.0,0.0,0.001090830782496456,19.850445002305705,9.352205058724735,-53.6875
1772314147.7096868,-1.8473640047975834,1.4830476423777017,-7.935452401423784,-1.0516328412656843,-0.8868193887997791,9.750934338600347,0.0,0.0,0.001090830782496456,19.850445002305705,9.352205058724735,-53.6875
1772314147.7260783,-1.8473640047975834,1.4830476423777017,-7.935452401423784,-1.0466109564384254,-0.8862662442965641,9.750621791901285,0.0008484758031050143,-0.00068556590316842,-0.001090830782496456,19.850445002305705,9.352205058724735,-53.6875
1772314147.7521043,-1.8473640047975834,1.4830476423777017,-7.935452401423784,-1.0453712857469304,-0.8885000453948594,9.760449130686393,0.00016290989993659425,-0.0015340417062734344,0.002181661564992912,19.693324870987205,9.157748728577173,-52.875
1772314147.7718527,-1.8473640047975834,1.4830476423777017,-7.935452401423784,-1.0419443861636133,-0.8920889526354979,9.756953779747356,-0.0016969516062100285,0.00137113180633684,0.0,19.693324870987205,9.157748728577173,-52.875
1772314147.7894776,-1.8473640047975834,1.4830476423777017,-7.935452401423784,-1.0396638227718926,-0.8944773303134221,9.764662997865013,-0.0015340417062734344,-0.00016290989993659427,-0.002181661564992912,19.693324870987205,9.157748728577173,-52.875
1772314147.8066182,-1.8473640047975834,1.4830476423777017,-7.935452401423784,-1.0396638227718926,-0.8944773303134221,9.764662997865013,-0.0015340417062734344,-0.00016290989993659427,-0.002181661564992912,19.693324870987205,9.157748728577173,-52.875
1772314147.8350282,-1.8473640047975834,1.4830476423777017,-7.935452401423784,-1.0407480458964204,-0.8939644314152376,9.759758061282747,-0.0008484758031050143,0.00068556590316842,0.0,20.190743580063934,9.07724482891736,-53.6875
1772314147.8495858,-31.82572974954094,-15.309880566158737,126.8528434079242,-1.0414695842742279,-0.8936231029279518,9.756493880778981,0.0,0.0,0.001090830782496456,20.190743580063934,9.07724482891736,-53.6875
1772314147.8742015,-1.8473640047975834,1.4830476423777017,-7.935452401423784,-1.041949760004547,-0.8933959526325522,9.750976493409691,0.00137113180633684,0.0016969516062100285,-0.001090830782496456,20.190743580063934,9.07724482891736,-53.6875
1772314147.9052114,-1.8473640047975834,1.4830476423777017,-7.935452401423784,-1.041949760004547,-0.8933959526325522,9.750976493409691,0.00137113180633684,0.0016969516062100285,-0.001090830782496456,20.190743580063934,9.07724482891736,-53.6875
1772314147.9244974,-1.8473640047975834,1.4830476423777017,-7.935452401423784,-1.04226931158916,-0.8932447866483987,9.750649845456003,0.00016290989993659425,-0.0015340417062734344,0.0,21.00396126548268,7.696997298174348,-54.0625
1772314147.945443,-1.8473640047975834,1.4830476423777017,-7.935452401423784,-1.0429815446223345,-0.8884399372255072,9.75377757659904,-0.00137113180633684,-0.0016969516062100285,0.001090830782496456,21.00396126548268,7.696997298174348,-54.0625
1772314147.9618614,-1.8473640047975834,1.4830476423777017,-7.935452401423784,-1.0434555277497477,-0.8852423636082578,9.755859046735685,-0.0022196076094418544,-0.0010113857030416085,0.001090830782496456,21.00396126548268,7.696997298174348,-54.0625
1772314147.9761984,-1.8473640047975834,1.4830476423777017,-7.935452401423784,-1.0434555277497477,-0.8852423636082578,9.755859046735685,-0.0022196076094418544,-0.0010113857030416085,0.001090830782496456,21.00396126548268,7.696997298174348,-54.0625
1772314147.9936354,-1.8473640047975834,1.4830476423777017,-7.935452401423784,-1.0458732957892192,-0.8857163266713719,9.757244241860077,-0.0008484758031050143,0.00068556590316842,0.001090830782496456,18.97889406434725,8.770779902282612,-53.25
1772314148.0078728,-1.8473640047975834,1.4830476423777017,-7.935452401423784,-1.049584630974165,-0.8886336563815159,9.754820962034398,0.0022196076094418544,0.0010113857030416085,-0.001090830782496456,18.97889406434725,8.770779902282612,-53.25
1772314148.0200775,-1.8473640047975834,1.4830476423777017,-7.935452401423784,-1.049584630974165,-0.8886336563815159,9.754820962034398,0.0022196076094418544,0.0010113857030416085,-0.001090830782496456,18.97889406434725,8.770779902282612,-53.25
1772314148.0328617,-1.8473640047975834,1.4830476423777017,-7.935452401423784,-1.0499521455184997,-0.8879731941287528,9.753208296380217,-0.0005226560032318258,-0.0023825175093784485,0.001090830782496456,18.97889406434725,8.770779902282612,-53.25
1772314148.045739,-1.8473640047975834,1.4830476423777017,-7.935452401423784,-1.0499521455184997,-0.8879731941287528,9.753208296380217,-0.0005226560032318258,-0.0023825175093784485,0.001090830782496456,18.97889406434725,8.770779902282612,-53.25
1772314148.073957,-1.8473640047975834,1.4830476423777017,-7.935452401423784,-1.047594809756192,-0.8896360014403019,9.752135085402015,-0.0022196076094418544,-0.0010113857030416085,0.0,20.46570380987131,9.417543406675591,-53.25
1772314148.101196,-1.8473640047975834,1.4830476423777017,-7.935452401423784,-1.0449820231635896,-0.8914789975544594,9.754290688470086,0.00068556590316842,0.0008484758031050143,0.001090830782496456,20.46570380987131,9.417543406675591,-53.25
1772314148.1279776,-1.8473640047975834,1.4830476423777017,-7.935452401423784,-1.0449820231635896,-0.8914789975544594,9.754290688470086,0.00068556590316842,0.0008484758031050143,0.001090830782496456,20.46570380987131,9.417543406675591,-53.25
1772314148.1543286,-1.8473640047975834,1.4830476423777017,-7.935452401423784,-1.044287248848904,-0.8919690744577194,9.752855405246711,-0.0015340417062734344,-0.00016290989993659427,0.0,20.32530794396678,8.647108301792048,-53.0
1772314148.167852,-1.8473640047975834,1.4830476423777017,-7.935452401423784,-1.044287248848904,-0.8919690744577194,9.752855405246711,-0.0015340417062734344,-0.00016290989993659427,0.0,20.32530794396678,8.647108301792048,-53.0
1772314148.1822748,-1.8473640047975834,1.4830476423777017,-7.935452401423784,-1.0459272218665345,-0.8948971277484771,9.75190024029472,-0.00137113180633684,-0.0016969516062100285,0.0,20.32530794396678,8.647108301792048,-53.0
1772314148.2000642,-1.8473640047975834,1.4830476423777017,-7.935452401423784,-1.0470186055900688,-0.8968457145049779,9.751264588689061,0.00068556590316842,0.0008484758031050143,0.0,20.32530794396678,8.647108301792048,-53.0
1772314148.218503,-1.8473640047975834,1.4830476423777017,-7.935452401423784,-1.0470186055900688,-0.8968457145049779,9.751264588689061,0.00068556590316842,0.0008484758031050143,0.0,20.32530794396678,8.647108301792048,-53.0
1772314148.2351546,-1.8473640047975834,1.4830476423777017,-7.935452401423784,-1.0456425717036095,-0.895540564638133,9.757531793060828,0.0008484758031050143,-0.00068556590316842,-0.001090830782496456,20.388702457917073,7.63165895022349,-53.25
1772314148.249343,-1.8473640047975834,1.4830476423777017,-7.935452401423784,-1.0421249239373205,-0.8967743395441433,9.761702547560978,0.0005226560032318258,0.0023825175093784485,-0.002181661564992912,20.388702457917073,7.63165895022349,-53.25
1772314148.263743,-1.8473640047975834,1.4830476423777017,-7.935452401423784,-1.0421249239373205,-0.8967743395441433,9.761702547560978,0.0005226560032318258,0.0023825175093784485,-0.002181661564992912,20.388702457917073,7.63165895022349,-53.25
1772314148.2811346,-1.8473640047975834,1.4830476423777017,-7.935452401423784,-1.0423858812297115,-0.8954930653990081,9.761133026383128,0.0023825175093784485,-0.0005226560032318258,0.0,20.388702457917073,7.63165895022349,-53.25
1772314148.306714,-1.8473640047975834,1.4830476423777017,-7.935452401423784,-1.0423858812297115,-0.8954930653990081,9.761133026383128,0.0023825175093784485,-0.0005226560032318258,0.0,20.388702457917073,7.63165895022349,-53.25
1772314148.3240845,-1.8473640047975834,1.4830476423777017,-7.935452401423784,-1.0430591204159532,-0.8899361416191185,9.757408904693918,0.0008484758031050143,-0.00068556590316842,0.001090830782496456,20.420592275039997,8.168357692129847,-52.5
1772314148.3424323,-1.8473640047975834,1.4830476423777017,-7.935452401423784,-1.0435071535738227,-0.8862380709185079,9.758275655018233,-0.0015340417062734344,-0.00016290989993659427,0.0,20.420592275039997,8.168357692129847,-52.5
1772314148.3581362,-1.8473640047975834,1.4830476423777017,-7.935452401423784,-1.0438053146355264,-0.8837770461774079,9.75550735596951,0.0015340417062734344,0.00016290989993659427,0.002181661564992912,20.420592275039997,8.168357692129847,-52.5
1772314148.3740306,-1.8473640047975834,1.4830476423777017,-7.935452401423784,-1.0438053146355264,-0.8837770461774079,9.75550735596951,0.0015340417062734344,0.00016290989993659427,0.002181661564992912,20.420592275039997,8.168357692129847,-52.5
1772314148.388254,-1.8473640047975834,1.4830476423777017,-7.935452401423784,-1.0435041624681733,-0.8868435118527259,9.76035530729115,-0.00137113180633684,-0.0016969516062100285,-0.001090830782496456,19.562263054789938,8.299419508327114,-53.25
1772314148.4088774,-1.8473640047975834,1.4830476423777017,-7.935452401423784,-1.0428041740416505,-0.8935884606540561,9.753546229618578,-0.0020566977095052602,-0.002545427409315043,0.0,19.562263054789938,8.299419508327114,-53.25
1772314148.4298549,-1.8473640047975834,1.4830476423777017,-7.935452401423784,-1.0423383395631827,-0.8980771487353263,9.755705087904502,-0.00137113180633684,-0.0016969516062100285,0.001090830782496456,19.562263054789938,8.299419508327114,-53.25
1772314148.4440522,-1.8473640047975834,1.4830476423777017,-7.935452401423784,-1.0423383395631827,-0.8980771487353263,9.755705087904502,-0.00137113180633684,-0.0016969516062100285,0.001090830782496456,19.562263054789938,8.299419508327114,-53.25
1772314148.4618003,-1.8473640047975834,1.4830476423777017,-7.935452401423784,-1.0420283319214743,-0.9010643205114802,9.75045156056312,-0.0030680834125468687,-0.00032581979987318855,0.001090830782496456,20.757388305092654,9.181863209697843,-52.875
1772314148.4770296,-1.8473640047975834,1.4830476423777017,-7.935452401423784,-1.0397196877360135,-0.9004503373734598,9.746955396803175,-0.00068556590316842,-0.0008484758031050143,0.0,20.757388305092654,9.181863209697843,-52.875
1772314148.4979908,-1.8473640047975834,1.4830476423777017,-7.935452401423784,-1.0381833108198346,-0.9000417384537482,9.74462873887564,-0.0005226560032318258,-0.0023825175093784485,-0.001090830782496456,20.757388305092654,9.181863209697843,-52.875
1772314148.5226429,-1.8473640047975834,1.4830476423777017,-7.935452401423784,-1.0381833108198346,-0.9000417384537482,9.74462873887564,-0.0005226560032318258,-0.0023825175093784485,-0.001090830782496456,20.757388305092654,9.181863209697843,-52.875
1772314148.541043,-1.8473640047975834,1.4830476423777017,-7.935452401423784,-1.0376604441678117,-0.895065570287957,9.746425485722657,0.0,0.0,0.0,18.97889406434725,8.770779902282612,-52.5
1772314148.559819,-1.8473640047975834,1.4830476423777017,-7.935452401423784,-1.0373124822516937,-0.8917539859610635,9.747621200678369,-0.00137113180633684,-0.0016969516062100285,0.001090830782496456,18.97889406434725,8.770779902282612,-52.5
1772314148.5750241,-1.8473640047975834,1.4830476423777017,-7.935452401423784,-1.0373124822516937,-0.8917539859610635,9.747621200678369,-0.00137113180633684,-0.0016969516062100285,0.001090830782496456,18.97889406434725,8.770779902282612,-52.5
1772314148.601081,-1.8473640047975834,1.4830476423777017,-7.935452401423784,-1.0391832550464228,-0.8921520761704926,9.745071823917064,-0.0022196076094418544,-0.0010113857030416085,0.0,18.97889406434725,8.770779902282612,-52.5
1772314148.6257856,-1.8473640047975834,1.4830476423777017,-7.935452401423784,-1.0404282334434136,-0.8924170007579088,9.74337524216082,-0.0015340417062734344,-0.00016290989993659427,0.002181661564992912,20.482428075285277,8.84156463193961,-54.0625
1772314148.64176,-1.8473640047975834,1.4830476423777017,-7.935452401423784,-1.043858665245447,-0.8904909675485162,9.752281521076059,-0.00068556590316842,-0.0008484758031050143,0.0,20.482428075285277,8.84156463193961,-54.0625
1772314148.665732,-1.8473640047975834,1.4830476423777017,-7.935452401423784,-1.046141579289266,-0.8892092139628661,9.758208550204495,-0.00137113180633684,-0.0016969516062100285,-0.001090830782496456,20.482428075285277,8.84156463193961,-54.0625
1772314148.6813588,-1.8473640047975834,1.4830476423777017,-7.935452401423784,-1.046141579289266,-0.8892092139628661,9.758208550204495,-0.00137113180633684,-0.0016969516062100285,-0.001090830782496456,20.482428075285277,8.84156463193961,-54.0625
1772314148.696674,-1.8473640047975834,1.4830476423777017,-7.935452401423784,-1.045058920497451,-0.8904585588326582,9.762152921880217,-0.0008484758031050143,0.00068556590316842,-0.001090830782496456,19.61826735303353,7.772054816128023,-51.6875
1772314148.7144473,-1.8473640047975834,1.4830476423777017,-7.935452401423784,-1.045058920497451,-0.8904585588326582,9.762152921880217,-0.0008484758031050143,0.00068556590316842,-0.001090830782496456,19.61826735303353,7.772054816128023,-51.6875
1772314148.7359571,-1.8473640047975834,1.4830476423777017,-7.935452401423784,-1.0443384231655892,-0.8912899838874081,9.76143274546157,0.0008484758031050143,-0.00068556590316842,0.001090830782496456,19.61826735303353,7.772054816128023,-51.6875
1772314148.7505057,-1.8473640047975834,1.4830476423777017,-7.935452401423784,-1.0438589402397178,-0.8918432879737178,9.754263252685222,0.0,0.0,0.0,19.61826735303353,7.772054816128023,-51.6875
1772314148.7634568,-1.8473640047975834,1.4830476423777017,-7.935452401423784,-1.0438589402397178,-0.8918432879737178,9.754263252685222,0.0,0.0,0.0,19.61826735303353,7.772054816128023,-51.6875
1772314148.7763188,-1.8473640047975834,1.4830476423777017,-7.935452401423784,-1.0461417622948814,-0.890109168099429,9.749492035331043,0.0005226560032318258,0.0023825175093784485,0.001090830782496456,19.850445002305705,9.352205058724735,-53.25
1772314148.793327,-1.8473640047975834,1.4830476423777017,-7.935452401423784,-1.0476609548717997,-0.888955130694478,9.746316843479827,-0.00016290989993659425,0.0015340417062734344,-0.001090830782496456,19.850445002305705,9.352205058724735,-53.25
1772314148.8076553,-1.8473640047975834,1.4830476423777017,-7.935452401423784,-1.0476609548717997,-0.888955130694478,9.746316843479827,-0.00016290989993659425,0.0015340417062734344,-0.001090830782496456,19.850445002305705,9.352205058724735,-53.25
1772314148.8206139,-1.8473640047975834,1.4830476423777017,-7.935452401423784,-1.0486719605612456,-0.8881871316929256,9.747548900479378,0.0020566977095052602,0.002545427409315043,-0.001090830782496456,19.850445002305705,9.352205058724735,-53.25
1772314148.832917,-1.8473640047975834,1.4830476423777017,-7.935452401423784,-1.0467428609677425,-0.8897783744994199,9.741678597234964,0.0005226560032318258,0.0023825175093784485,-0.001090830782496456,19.326582857812188,8.007735013105773,-52.5
1772314148.8448992,-1.8473640047975834,1.4830476423777017,-7.935452401423784,-1.0467428609677425,-0.8897783744994199,9.741678597234964,0.0005226560032318258,0.0023825175093784485,-0.001090830782496456,19.326582857812188,8.007735013105773,-52.5
1772314148.8624022,-1.8473640047975834,1.4830476423777017,-7.935452401423784,-1.0454590667377206,-0.8908373288117948,9.744462199416029,-0.0008484758031050143,0.00068556590316842,0.0,19.326582857812188,8.007735013105773,-52.5
1772314148.8778913,-1.8473640047975834,1.4830476423777017,-7.935452401423784,-1.0454590667377206,-0.8908373288117948,9.744462199416029,-0.0008484758031050143,0.00068556590316842,0.0,19.326582857812188,8.007735013105773,-52.5
1772314148.90734,-1.8473640047975834,1.4830476423777017,-7.935452401423784,-1.0446047160185623,-0.8915420510773856,9.746314655572654,0.0,0.0,-0.001090830782496456,19.326582857812188,8.007735013105773,-52.5
1772314148.9252825,-1.8473640047975834,1.4830476423777017,-7.935452401423784,-1.0440361551586852,-0.8920110358728727,9.750892556158915,0.0005226560032318258,0.0023825175093784485,-0.001090830782496456,19.61826735303353,7.772054816128023,-52.5
1772314148.943108,-1.8473640047975834,1.4830476423777017,-7.935452401423784,-1.043657784257678,-0.892323140015366,9.753939097860572,0.0020566977095052602,0.002545427409315043,-0.001090830782496456,19.61826735303353,7.772054816128023,-52.5
1772314148.9668207,-1.8473640047975834,1.4830476423777017,-7.935452401423784,-1.0434059826497375,-0.8925308418357636,9.755966537330924,0.00016290989993659425,-0.0015340417062734344,0.0,19.61826735303353,7.772054816128023,-52.5
1772314148.9982402,-1.8473640047975834,1.4830476423777017,-7.935452401423784,-1.0434059826497375,-0.8925308418357636,9.755966537330924,0.00016290989993659425,-0.0015340417062734344,0.0,19.61826735303353,7.772054816128023,-52.5
1772314149.0206394,-1.8473640047975834,1.4830476423777017,-7.935452401423784,-1.0432384114924615,-0.8926690650770568,9.75731577565046,-0.0016969516062100285,0.00137113180633684,0.0,19.45025445830275,9.354148892725297,-52.875
1772314149.038878,-1.8473640047975834,1.4830476423777017,-7.935452401423784,-1.045229232322103,-0.8953629636862386,9.76155879038745,0.00068556590316842,0.0008484758031050143,0.0,19.45025445830275,9.354148892725297,-52.875
1772314149.0580752,-1.8473640047975834,1.4830476423777017,-7.935452401423784,-1.0465541013453037,-0.8971557231178299,9.764382469297338,0.0005226560032318258,0.0023825175093784485,-0.001090830782496456,19.45025445830275,9.354148892725297,-52.875
1772314149.071811,-1.8473640047975834,1.4830476423777017,-7.935452401423784,-1.0465541013453037,-0.8971557231178299,9.764382469297338,0.0005226560032318258,0.0023825175093784485,-0.001090830782496456,19.45025445830275,9.354148892725297,-52.875
1772314149.0933998,-1.8473640047975834,1.4830476423777017,-7.935452401423784,-1.050037699466643,-0.8962464469302025,9.75957137265467,-0.00016290989993659425,0.0015340417062734344,0.0,20.128907779818654,8.404037889107597,-54.0625
1772314149.1130111,-1.8473640047975834,1.4830476423777017,-7.935452401423784,-1.050253657539137,-0.8930394211984611,9.756369641582443,-0.00137113180633684,-0.0016969516062100285,0.002181661564992912,20.128907779818654,8.404037889107597,-54.0625
1772314149.1298883,-1.8473640047975834,1.4830476423777017,-7.935452401423784,-1.0503973752239721,-0.890905181398812,9.754238925319557,-0.0022196076094418544,-0.0010113857030416085,0.0,20.128907779818654,8.404037889107597,-54.0625
1772314149.1419096,-1.8473640047975834,1.4830476423777017,-7.935452401423784,-1.0503973752239721,-0.890905181398812,9.754238925319557,-0.0022196076094418544,-0.0010113857030416085,0.0,20.128907779818654,8.404037889107597,-54.0625
1772314149.159077,-1.8473640047975834,1.4830476423777017,-7.935452401423784,-1.0452891925654864,-0.8936895437789988,9.756166069155586,-0.0010113857030416085,0.0022196076094418544,0.001090830782496456,19.562263054789938,8.299419508327114,-53.6875
1772314149.1782026,-1.8473640047975834,1.4830476423777017,-7.935452401423784,-1.0452891925654864,-0.8936895437789988,9.756166069155586,-0.0010113857030416085,0.0022196076094418544,0.001090830782496456,19.562263054789938,8.299419508327114,-53.6875
1772314149.2086484,-1.8473640047975834,1.4830476423777017,-7.935452401423784,-1.036126045996423,-0.8924421750450918,9.758302046413176,-0.00016290989993659425,0.0015340417062734344,0.001090830782496456,19.562263054789938,8.299419508327114,-53.6875
1772314149.2246053,-1.8473640047975834,1.4830476423777017,-7.935452401423784,-1.036126045996423,-0.8924421750450918,9.758302046413176,-0.00016290989993659425,0.0015340417062734344,0.001090830782496456,19.562263054789938,8.299419508327114,-53.6875
1772314149.2421186,-1.8473640047975834,1.4830476423777017,-7.935452401423784,-1.0388932699951412,-0.8879058081692655,9.755524919148034,-0.0010113857030416085,0.0022196076094418544,0.001090830782496456,20.482428075285277,8.84156463193961,-52.0625
1772314149.2603471,-1.8473640047975834,1.4830476423777017,-7.935452401423784,-1.0388932699951412,-0.8879058081692655,9.755524919148034,-0.0010113857030416085,0.0022196076094418544,0.001090830782496456,20.482428075285277,8.84156463193961,-52.0625
1772314149.2744558,-1.8473640047975834,1.4830476423777017,-7.935452401423784,-1.0381329140682147,-0.8869892442508578,9.750331660268307,0.0,0.0,0.0,20.482428075285277,8.84156463193961,-52.0625
1772314149.2868595,-1.8473640047975834,1.4830476423777017,-7.935452401423784,-1.0381329140682147,-0.8869892442508578,9.750331660268307,0.0,0.0,0.0,20.482428075285277,8.84156463193961,-52.0625
1772314149.3071303,-1.8473640047975834,1.4830476423777017,-7.935452401423784,-1.0397292432554937,-0.8889811937880032,9.746875604496351,0.0030680834125468687,0.00032581979987318855,0.001090830782496456,20.482428075285277,8.84156463193961,-52.0625
1772314149.3194761,-1.8473640047975834,1.4830476423777017,-7.935452401423784,-1.0386892449345462,-0.8877049013672832,9.737885414572148,-0.00068556590316842,-0.0008484758031050143,0.001090830782496456,20.388702457917073,7.63165895022349,-53.25
1772314149.33133,-1.8473640047975834,1.4830476423777017,-7.935452401423784,-1.0400994752324142,-0.8894574556045705,9.74528299043387,0.0,0.0,0.0,20.388702457917073,7.63165895022349,-53.25
1772314149.3451324,-1.8473640047975834,1.4830476423777017,-7.935452401423784,-1.0400994752324142,-0.8894574556045705,9.74528299043387,0.0,0.0,0.0,20.388702457917073,7.63165895022349,-53.25
1772314149.3686993,-1.880109656885582,1.765923148057698,-8.782303768287226,-1.0363337175932688,-0.8901241858489319,9.74017065941155,-0.00068556590316842,-0.0008484758031050143,-0.001090830782496456,20.388702457917073,7.63165895022349,-53.25
1772314149.3915038,-1.8473640047975834,1.4830476423777017,-7.935452401423784,-1.0338276479506865,-0.8905678873786897,9.736768460224678,-0.00068556590316842,-0.0008484758031050143,0.0,20.14563204523262,7.828059114371615,-53.0
1772314149.4210744,-1.8473640047975834,1.4830476423777017,-7.935452401423784,-1.034761799184336,-0.8887608282273562,9.734504334670868,0.002545427409315043,-0.0020566977095052602,0.001090830782496456,20.14563204523262,7.828059114371615,-53.0
1772314149.436487,-1.8473640047975834,1.4830476423777017,-7.935452401423784,-1.034761799184336,-0.8887608282273562,9.734504334670868,0.002545427409315043,-0.0020566977095052602,0.001090830782496456,20.14563204523262,7.828059114371615,-53.0
1772314149.4509475,-1.8473640047975834,1.4830476423777017,-7.935452401423784,-1.0379853789813327,-0.8854559129854009,9.736342696114066,0.0030680834125468687,0.00032581979987318855,0.001090830782496456,20.14563204523262,7.828059114371615,-53.0
1772314149.4649704,-1.8473640047975834,1.4830476423777017,-7.935452401423784,-1.0379853789813327,-0.8854559129854009,9.736342696114066,0.0030680834125468687,0.00032581979987318855,0.001090830782496456,20.14563204523262,7.828059114371615,-53.0
1772314149.483842,-1.8473640047975834,1.4830476423777017,-7.935452401423784,-1.0422329728894044,-0.8858584413963578,9.737566105118672,0.0016969516062100285,-0.00137113180633684,-0.001090830782496456,21.200361429630806,7.9400677108588,-52.0625
1772314149.5019207,-1.8473640047975834,1.4830476423777017,-7.935452401423784,-1.0424577866003373,-0.888228657120229,9.741725381852183,0.0030680834125468687,0.00032581979987318855,-0.001090830782496456,21.200361429630806,7.9400677108588,-52.0625
1772314149.515119,-1.8473640047975834,1.4830476423777017,-7.935452401423784,-1.0424577866003373,-0.888228657120229,9.741725381852183,0.0030680834125468687,0.00032581979987318855,-0.001090830782496456,21.200361429630806,7.9400677108588,-52.0625
1772314149.5302308,-1.8473640047975834,1.4830476423777017,-7.935452401423784,-1.0405050600507133,-0.8872040966212649,9.74114822234885,0.00016290989993659425,-0.0015340417062734344,-0.001090830782496456,21.200361429630806,7.9400677108588,-52.0625
1772314149.5440147,-1.8473640047975834,1.4830476423777017,-7.935452401423784,-1.0392055423453233,-0.8865222630542948,9.744109240853994,0.00137113180633684,0.0016969516062100285,0.001090830782496456,20.493320838697556,7.065014225194774,-52.875
1772314149.5599303,-1.8473640047975834,1.4830476423777017,-7.935452401423784,-1.0392055423453233,-0.8865222630542948,9.744109240853994,0.00137113180633684,0.0016969516062100285,0.001090830782496456,20.493320838697556,7.065014225194774,-52.875
1772314149.574741,-1.8473640047975834,1.4830476423777017,-7.935452401423784,-1.0404430653918666,-0.8886704230182123,9.746079765592425,0.0020566977095052602,0.002545427409315043,-0.001090830782496456,20.493320838697556,7.065014225194774,-52.875
1772314149.5981364,-1.8473640047975834,1.4830476423777017,-7.935452401423784,-1.0412666231553027,-0.8900999994776803,9.750736239500966,0.00068556590316842,0.0008484758031050143,0.0,20.493320838697556,7.065014225194774,-52.875
1772314149.6191275,-1.8473640047975834,1.4830476423777017,-7.935452401423784,-1.0412666231553027,-0.8900999994776803,9.750736239500966,0.00068556590316842,0.0008484758031050143,0.0,20.493320838697556,7.065014225194774,-52.875
1772314149.646695,-1.8473640047975834,1.4830476423777017,-7.935452401423784,-1.0418146916471267,-0.8910513666420407,9.75048995916356,0.00016290989993659425,-0.0015340417062734344,-0.002181661564992912,20.77411257050662,8.60588443496186,-54.5
1772314149.661537,-1.8473640047975834,1.4830476423777017,-7.935452401423784,-1.044781337692265,-0.8895821532995387,9.743635838935507,0.0016969516062100285,-0.00137113180633684,0.001090830782496456,20.77411257050662,8.60588443496186,-54.5
1772314149.683998,-1.8473640047975834,1.4830476423777017,-7.935452401423784,-1.046755607495697,-0.8886044082322921,9.739074498489279,0.0005226560032318258,0.0023825175093784485,0.0,20.77411257050662,8.60588443496186,-54.5
1772314149.6967924,-1.8473640047975834,1.4830476423777017,-7.935452401423784,-1.048069461995842,-0.8879537298121675,9.739384089083144,-0.0015340417062734344,-0.00016290989993659427,0.0,20.128907779818654,8.404037889107597,-53.0
1772314149.7125819,-1.8473640047975834,1.4830476423777017,-7.935452401423784,-1.048069461995842,-0.8879537298121675,9.739384089083144,-0.0015340417062734344,-0.00016290989993659427,0.0,20.128907779818654,8.404037889107597,-53.0
1772314149.7270224,-1.8473640047975834,1.4830476423777017,-7.935452401423784,-1.0463419049028164,-0.8896230481550451,9.749625453286965,0.0015340417062734344,0.00016290989993659427,-0.001090830782496456,20.128907779818654,8.404037889107597,-53.0
1772314149.7409124,-1.8473640047975834,1.4830476423777017,-7.935452401423784,-1.045192234955485,-0.8907339608647225,9.756440966761074,-0.0008484758031050143,0.00068556590316842,0.0,20.128907779818654,8.404037889107597,-53.0
1772314149.7559726,-1.8473640047975834,1.4830476423777017,-7.935452401423784,-1.045192234955485,-0.8907339608647225,9.756440966761074,-0.0008484758031050143,0.00068556590316842,0.0,20.128907779818654,8.404037889107597,-53.0
1772314149.7747827,-1.8473640047975834,1.4830476423777017,-7.935452401423784,-1.0444271424481908,-0.8914732608633045,9.76097661484382,0.0015340417062734344,0.00016290989993659427,-0.001090830782496456,19.496924706839078,8.914678315892722,-53.25
1772314149.7884958,-1.8473640047975834,1.4830476423777017,-7.935452401423784,-1.0444271424481908,-0.8914732608633045,9.76097661484382,0.0015340417062734344,0.00016290989993659427,-0.001090830782496456,19.496924706839078,8.914678315892722,-53.25
1772314149.8087628,-1.8473640047975834,1.4830476423777017,-7.935452401423784,-1.046020319494146,-0.8945671693399948,9.763995037976379,0.0015340417062734344,0.00016290989993659427,0.0,19.496924706839078,8.914678315892722,-53.25
1772314149.8372796,-1.8473640047975834,1.4830476423777017,-7.935452401423784,-1.0496824736074315,-0.8945237933070935,9.759313541438463,-0.0008484758031050143,0.00068556590316842,-0.001090830782496456,19.83722328459731,8.639718086085347,-52.875
1772314149.8530588,-1.8473640047975834,1.4830476423777017,-7.935452401423784,-1.0496824736074315,-0.8945237933070935,9.759313541438463,-0.0008484758031050143,0.00068556590316842,-0.001090830782496456,19.83722328459731,8.639718086085347,-52.875
1772314149.8728008,-1.8473640047975834,1.4830476423777017,-7.935452401423784,-1.052119596260881,-0.8944949270417397,9.756198057788222,0.0022196076094418544,0.0010113857030416085,0.0,19.83722328459731,8.639718086085347,-52.875
1772314149.8920608,-1.8473640047975834,1.4830476423777017,-7.935452401423784,-1.0537414741623077,-0.8944757168646041,9.75412473822122,0.0,0.0,0.0,19.83722328459731,8.639718086085347,-52.875
1772314149.9056735,-1.8473640047975834,1.4830476423777017,-7.935452401423784,-1.0522189032019882,-0.8965652702692285,9.752744967209876,0.0008484758031050143,-0.00068556590316842,-0.001090830782496456,19.693324870987205,9.157748728577173,-53.6875
1772314149.920021,-1.8473640047975834,1.4830476423777017,-7.935452401423784,-1.0522189032019882,-0.8965652702692285,9.752744967209876,0.0008484758031050143,-0.00068556590316842,-0.001090830782496456,19.693324870987205,9.157748728577173,-53.6875
1772314149.9323306,-1.8473640047975834,1.4830476423777017,-7.935452401423784,-1.0470009741102948,-0.8927520195458533,9.75182674501488,0.0020566977095052602,0.002545427409315043,0.0,19.693324870987205,9.157748728577173,-53.6875
1772314149.9457242,-1.8473640047975834,1.4830476423777017,-7.935452401423784,-1.0461304131740161,-0.8881120062233324,9.751215678401323,0.0008484758031050143,-0.00068556590316842,0.0,19.693324870987205,9.157748728577173,-53.6875
1772314149.9690385,-1.8473640047975834,1.4830476423777017,-7.935452401423784,-1.0461304131740161,-0.8881120062233324,9.751215678401323,0.0008484758031050143,-0.00068556590316842,0.0,19.693324870987205,9.157748728577173,-53.6875
1772314150.030608,-1.8473640047975834,1.4830476423777017,-7.935452401423784,-1.0455510645957253,-0.8850241291895399,9.750809020396062,0.0029051735126102746,0.001859861506146623,0.001090830782496456,20.61699243918812,8.411428104814298,-53.25
1772314150.073861,-1.8473640047975834,1.4830476423777017,-7.935452401423784,-1.044665939565381,-0.8876734316664696,9.743848170621591,0.0015340417062734344,0.00016290989993659427,0.0,20.61699243918812,8.411428104814298,-53.25
1772314150.1051862,-1.8473640047975834,1.4830476423777017,-7.935452401423784,-1.044665939565381,-0.8876734316664696,9.743848170621591,0.0015340417062734344,0.00016290989993659427,0.0,20.61699243918812,8.411428104814298,-53.25
1772314150.146452,-1.8473640047975834,1.4830476423777017,-7.935452401423784,-1.0440768987451812,-0.8894365128702185,9.739215802854467,0.00016290989993659425,-0.0015340417062734344,-0.002181661564992912,19.83722328459731,8.639718086085347,-54.5
1772314150.1883905,-1.8473640047975834,1.4830476423777017,-7.935452401423784,-1.0462868112455113,-0.8885074861534897,9.746168348974342,0.00016290989993659425,-0.0015340417062734344,0.001090830782496456,19.83722328459731,8.639718086085347,-54.5
1772314150.2478106,-1.8473640047975834,1.4830476423777017,-7.935452401423784,-1.047757483328141,-0.8878892292514151,9.75079519075209,0.00016290989993659425,-0.0015340417062734344,0.001090830782496456,20.128907779818654,8.404037889107597,-53.25
1772314150.264631,-1.8473640047975834,1.4830476423777017,-7.935452401423784,-1.0461342865844914,-0.8895801237523828,9.753874302269972,-0.0010113857030416085,0.0022196076094418544,0.0,20.128907779818654,8.404037889107597,-53.25
1772314150.2934341,-1.8473640047975834,1.4830476423777017,-7.935452401423784,-1.0461342865844914,-0.8895801237523828,9.753874302269972,-0.0010113857030416085,0.0022196076094418544,0.0,20.128907779818654,8.404037889107597,-53.25
1772314150.3512118,-1.8473640047975834,1.4830476423777017,-7.935452401423784,-1.0424521546977323,-0.892807732717164,9.755923416589194,-0.00068556590316842,-0.0008484758031050143,0.001090830782496456,20.61699243918812,8.411428104814298,-52.875
1772314150.3910983,-1.8473640047975834,1.4830476423777017,-7.935452401423784,-1.0400017370592025,-0.8949556704284712,9.757287079278528,0.0005226560032318258,0.0023825175093784485,-0.001090830782496456,20.61699243918812,8.411428104814298,-52.875
1772314150.4485884,-1.8473640047975834,1.4830476423777017,-7.935452401423784,-1.0383710114937195,-0.8963850989813099,9.75819458156517,0.0020566977095052602,0.002545427409315043,-0.001090830782496456,20.46570380987131,9.417543406675591,-53.6875
1772314150.4704924,-1.8473640047975834,1.4830476423777017,-7.935452401423784,-1.0383710114937195,-0.8963850989813099,9.75819458156517,0.0020566977095052602,0.002545427409315043,-0.001090830782496456,20.46570380987131,9.417543406675591,-53.6875
1772314150.4975793,-1.8473640047975834,1.4830476423777017,-7.935452401423784,-1.0398876944324447,-0.8952340301525444,9.758798514199466,-0.0022196076094418544,-0.0010113857030416085,0.003272492347489368,20.46570380987131,9.417543406675591,-53.6875
1772314150.5675385,-1.8473640047975834,1.4830476423777017,-7.935452401423784,-1.0408970299857077,-0.8944680067052825,9.75920042462122,0.00137113180633684,0.0016969516062100285,0.001090830782496456,19.85394755001128,8.063739311349364,-53.25
1772314150.5863166,-1.8473640047975834,1.4830476423777017,-7.935452401423784,-1.0441706441075431,-0.8918558890952559,9.752777668102626,0.00068556590316842,0.0008484758031050143,0.001090830782496456,19.85394755001128,8.063739311349364,-53.25
1772314150.6148772,-1.8473640047975834,1.4830476423777017,-7.935452401423784,-1.0441706441075431,-0.8918558890952559,9.752777668102626,0.00068556590316842,0.0008484758031050143,0.001090830782496456,19.85394755001128,8.063739311349364,-53.25
1772314150.6983998,-1.8473640047975834,1.4830476423777017,-7.935452401423784,-1.0507717072295497,-0.8908593686077023,9.745658914640494,-0.00016290989993659425,0.0015340417062734344,0.0,20.420592275039997,8.168357692129847,-53.6875
1772314150.7280912,-1.8473640047975834,1.4830476423777017,-7.935452401423784,-1.050242556482708,-0.8941586309015173,9.74376594447903,0.00068556590316842,0.0008484758031050143,0.0,20.420592275039997,8.168357692129847,-53.6875
1772314150.7418368,-1.8473640047975834,1.4830476423777017,-7.935452401423784,-1.0477880750087696,-0.8937523405167206,9.742506193982438,-0.0016969516062100285,0.00137113180633684,0.0,20.420592275039997,8.168357692129847,-53.6875
1772314150.7608697,-1.8473640047975834,1.4830476423777017,-7.935452401423784,-1.0435527324200624,-0.8955842963671157,9.741667844099291,0.002545427409315043,-0.0020566977095052602,-0.001090830782496456,19.31569009439991,9.784285419850608,-51.6875
1772314150.775638,-1.8473640047975834,1.4830476423777017,-7.935452401423784,-1.0435527324200624,-0.8955842963671157,9.741667844099291,0.002545427409315043,-0.0020566977095052602,-0.001090830782496456,19.31569009439991,9.784285419850608,-51.6875
1772314150.7974076,-1.8473640047975834,1.4830476423777017,-7.935452401423784,-1.0407341592391546,-0.8968034425212659,9.74110993161704,-0.00016290989993659425,0.0015340417062734344,0.0,19.31569009439991,9.784285419850608,-51.6875
1772314150.8181922,-1.8473640047975834,1.4830476423777017,-7.935452401423784,-1.0407341592391546,-0.8968034425212659,9.74110993161704,-0.00016290989993659425,0.0015340417062734344,0.0,19.31569009439991,9.784285419850608,-51.6875
1772314150.8417375,-1.8473640047975834,1.4830476423777017,-7.935452401423784,-1.0388584302727857,-0.8976147706680979,9.74073864709239,-0.0005226560032318258,-0.0023825175093784485,0.001090830782496456,19.31569009439991,9.784285419850608,-51.6875
1772314150.8584585,-1.8473640047975834,1.4830476423777017,-7.935452401423784,-1.0376101535989326,-0.8981547004866853,9.747181784803397,0.0010113857030416085,-0.0022196076094418544,0.0,20.190743580063934,9.07724482891736,-52.875
1772314150.8719,-1.8473640047975834,1.4830476423777017,-7.935452401423784,-1.038881776979564,-0.9011159303357,9.751469620975506,-0.0003258197998731885,0.0030680834125468687,-0.001090830782496456,20.190743580063934,9.07724482891736,-52.875
