timestamp,yaw,pitch,roll,ax,ay,az,gx,gy,gz,mx,my,mz
1773080573.23534,0.0,0.0,0.0,-0.16052527034125033,-1.263633284163462,9.497087880969943,-0.001090830782496456,0.001090830782496456,0.001090830782496456,-4.6875,10.1875,-88.0625
1773080573.2486296,0.0,0.0,0.0,-0.16052527034125033,-1.263633284163462,9.497087880969943,-0.001090830782496456,0.001090830782496456,0.001090830782496456,-4.6875,10.1875,-88.0625
1773080573.2639372,-0.06447412906712725,0.9840515339093854,-7.496713978385425,-0.15700444983712852,-1.2757983568536182,9.585034921706303,0.0,0.0,0.0,-4.6875,10.1875,-88.0625
1773080573.2754807,-0.06447412906712725,0.9840515339093854,-7.496713978385425,-0.15700444983712852,-1.2757983568536182,9.585034921706303,0.0,0.0,0.0,-4.6875,10.1875,-88.0625
1773080573.2868721,-0.06447412906712725,0.9840515339093854,-7.496713978385425,-0.1580064948290969,-1.283894076836151,9.643562694883533,-0.001090830782496456,0.003272492347489368,0.0,-4.6875,10.1875,-88.0625
1773080573.3005447,-0.06447412906712725,0.9840515339093854,-7.496713978385425,-0.1580064948290969,-1.283894076836151,9.643562694883533,-0.001090830782496456,0.003272492347489368,0.0,-4.6875,10.1875,-88.0625
1773080573.316903,-0.06447412906712725,0.9840515339093854,-7.496713978385425,-0.15867334457767587,-1.289281688049409,9.692547609256874,0.003272492347489368,0.004363323129985824,0.001090830782496456,-4.6875,10.1875,-88.0625
1773080573.3300142,-0.06447412906712725,0.9840515339093854,-7.496713978385425,-0.15867334457767587,-1.289281688049409,9.692547609256874,0.003272492347489368,0.004363323129985824,0.001090830782496456,-4.6875,10.1875,-88.0625
1773080573.3483448,-0.06447412906712725,0.9840515339093854,-7.496713978385425,-0.15867334457767587,-1.289281688049409,9.692547609256874,0.003272492347489368,0.004363323129985824,0.001090830782496456,-4.6875,10.1875,-88.0625
1773080573.3609955,-0.06447412906712725,0.9840515339093854,-7.496713978385425,-0.16246223734347479,-1.2895219714209518,9.735181857696942,-0.002181661564992912,0.0,0.002181661564992912,-4.375,11.6875,-85.6875
1773080573.3773315,-0.06447412906712725,0.9840515339093854,-7.496713978385425,-0.16246223734347479,-1.2895219714209518,9.735181857696942,-0.002181661564992912,0.0,0.002181661564992912,-4.375,11.6875,-85.6875
1773080573.3905196,-0.06447412906712725,0.9840515339093854,-7.496713978385425,-0.1683288148617279,-1.2863367656132532,9.763554473778045,0.0,0.001090830782496456,0.0,-4.375,11.6875,-85.6875
1773080573.4030533,-0.06447412906712725,0.9840515339093854,-7.496713978385425,-0.1683288148617279,-1.2863367656132532,9.763554473778045,0.0,0.001090830782496456,0.0,-4.375,11.6875,-85.6875
1773080573.4149678,-0.06447412906712725,0.9840515339093854,-7.496713978385425,-0.1722329566661605,-1.28421704672931,9.769055686007855,0.0,0.003272492347489368,-0.001090830782496456,-4.375,11.6875,-85.6875
1773080573.4328692,-0.06447412906712725,0.9840515339093854,-7.496713978385425,-0.1722329566661605,-1.28421704672931,9.769055686007855,0.0,0.003272492347489368,-0.001090830782496456,-4.375,11.6875,-85.6875
1773080573.4551408,-0.06447412906712725,0.9840515339093854,-7.496713978385425,-0.1722329566661605,-1.28421704672931,9.769055686007855,0.0,0.003272492347489368,-0.001090830782496456,-4.375,11.6875,-85.6875
1773080573.4994285,-0.06447412906712725,0.9840515339093854,-7.496713978385425,-0.17483111942488885,-1.2861515091981766,9.772716681294225,0.001090830782496456,0.001090830782496456,-0.001090830782496456,-5.5,11.375,-85.25
1773080573.5526304,-0.06447412906712725,0.9840515339093854,-7.496713978385425,-0.1732150560101235,-1.290783984069165,9.771807921053988,-0.001090830782496456,0.002181661564992912,0.0,-5.5,11.375,-85.25
1773080573.576176,-0.06447412906712725,0.9840515339093854,-7.496713978385425,-0.1732150560101235,-1.290783984069165,9.771807921053988,-0.001090830782496456,0.002181661564992912,0.0,-5.5,11.375,-85.25
1773080573.6252337,-0.06447412906712725,0.9840515339093854,-7.496713978385425,-0.17213958386020833,-1.2905217326403535,9.771203151265627,-0.001090830782496456,-0.002181661564992912,0.002181661564992912,-5.0625,11.0,-86.0625
1773080573.6525624,-0.06447412906712725,0.9840515339093854,-7.496713978385425,-0.17476898086557027,-1.2936923189513392,9.770800683727195,0.0,0.003272492347489368,0.0,-5.0625,11.0,-86.0625
1773080573.686763,-0.06447412906712725,0.9840515339093854,-7.496713978385425,-0.17651881520034954,-1.2958023087235304,9.773877957783544,0.001090830782496456,-0.001090830782496456,0.0,-4.6875,11.375,-85.0
1773080573.7364779,-0.06447412906712725,0.9840515339093854,-7.496713978385425,-0.17768331040321483,-1.2972064833467936,9.77592584929264,0.0,0.001090830782496456,-0.001090830782496456,-4.6875,11.375,-85.0
1773080573.7816849,-0.06447412906712725,0.9840515339093854,-7.496713978385425,-0.17511315724513857,-1.2981409458729167,9.777288698215498,0.001090830782496456,0.001090830782496456,0.0,-5.0625,11.75,-84.875
1773080573.8156438,-0.06447412906712725,0.9840515339093854,-7.496713978385425,-0.17511315724513857,-1.2981409458729167,9.777288698215498,0.001090830782496456,0.001090830782496456,0.0,-5.0625,11.75,-84.875
1773080573.8483245,-0.06447412906712725,0.9840515339093854,-7.496713978385425,-0.17340274902893077,-1.295417708538102,9.771505435535001,0.0,0.001090830782496456,0.0,-5.0625,11.75,-84.875
1773080573.8680408,-0.06447412906712725,0.9840515339093854,-7.496713978385425,-0.17226449146755618,-1.2969505362196565,9.767656738824407,0.0,0.001090830782496456,0.0,-5.0625,12.0625,-85.25
1773080573.8925025,-0.06447412906712725,0.9840515339093854,-7.496713978385425,-0.17485210548295085,-1.2946255042116044,9.765095474156265,0.0,0.0,-0.002181661564992912,-5.0625,12.0625,-85.25
1773080573.9136457,-0.06447412906712725,0.9840515339093854,-7.496713978385425,-0.17485210548295085,-1.2946255042116044,9.765095474156265,0.0,0.0,-0.002181661564992912,-5.0625,12.0625,-85.25
1773080573.931256,-0.06447412906712725,0.9840515339093854,-7.496713978385425,-0.1765741337046535,-1.2930782213825551,9.766736092838137,0.0,0.001090830782496456,0.0,-5.0625,12.0625,-85.25
1773080573.9673004,-0.06447412906712725,0.9840515339093854,-7.496713978385425,-0.17772012424988093,-1.2920485219441045,9.771173017951332,0.0,0.002181661564992912,-0.002181661564992912,-5.875,10.6875,-85.25
1773080574.0263815,-0.06447412906712725,0.9840515339093854,-7.496713978385425,-0.17513765644885723,-1.291363268470312,9.770780630343141,0.0,0.001090830782496456,-0.003272492347489368,-5.875,10.6875,-85.25
1773080574.0417497,-0.06447412906712725,0.9840515339093854,-7.496713978385425,-0.1734190529753315,-1.290907239938286,9.773864612480468,-0.001090830782496456,0.0,0.0,-4.6875,11.375,-85.6875
1773080574.05996,-0.06447412906712725,0.9840515339093854,-7.496713978385425,-0.17227534156175886,-1.2906037580443952,9.77591696814252,0.0,0.0,0.0,-4.6875,11.375,-85.6875
1773080574.0774899,-0.06447412906712725,0.9840515339093854,-7.496713978385425,-0.17227534156175886,-1.2906037580443952,9.77591696814252,0.0,0.0,0.0,-4.6875,11.375,-85.6875
1773080574.092246,-0.06447412906712725,0.9840515339093854,-7.496713978385425,-0.17151421439211986,-1.2870566825268064,9.78397301132394,-0.001090830782496456,0.001090830782496456,0.0,-4.6875,11.375,-85.6875
1773080574.1059167,-0.06447412906712725,0.9840515339093854,-7.496713978385425,-0.1743528044703921,-1.2846961433932809,9.789334218069277,-0.001090830782496456,0.0,0.0,-4.0,11.375,-84.5625
1773080574.1247551,-0.06447412906712725,0.9840515339093854,-7.496713978385425,-0.1743528044703921,-1.2846961433932809,9.789334218069277,-0.001090830782496456,0.0,0.0,-4.0,11.375,-84.5625
1773080574.1494162,-0.06447412906712725,0.9840515339093854,-7.496713978385425,-0.172896742751034,-1.2864703426761888,9.789556929562375,-0.001090830782496456,0.001090830782496456,0.0,-4.0,11.375,-84.5625
1773080574.1642547,-0.06447412906712725,0.9840515339093854,-7.496713978385425,-0.172896742751034,-1.2864703426761888,9.789556929562375,-0.001090830782496456,0.001090830782496456,0.0,-4.0,11.375,-84.5625
1773080574.186846,-0.06447412906712725,0.9840515339093854,-7.496713978385425,-0.17192774994207638,-1.2876510524798594,9.783014918158543,0.0,0.0,0.002181661564992912,-4.375,11.75,-84.875
1773080574.21425,-0.06447412906712725,0.9840515339093854,-7.496713978385425,-0.17128289605207397,-1.2884368016648096,9.782006394355667,0.0,0.002181661564992912,0.001090830782496456,-4.375,11.75,-84.875
1773080574.241641,-0.06447412906712725,0.9840515339093854,-7.496713978385425,-0.17128289605207397,-1.2884368016648096,9.782006394355667,0.0,0.002181661564992912,0.001090830782496456,-4.375,11.75,-84.875
1773080574.2625835,-0.06447412906712725,0.9840515339093854,-7.496713978385425,-0.17085375299176733,-1.2889597089700005,9.781335233030802,-0.002181661564992912,0.002181661564992912,0.0,-4.6875,11.0,-84.875
1773080574.312798,-0.06447412906712725,0.9840515339093854,-7.496713978385425,-0.17056816307897535,-1.2893076979403475,9.780888582666469,-0.002181661564992912,0.002181661564992912,0.002181661564992912,-4.6875,11.0,-84.875
1773080574.3578675,-0.06447412906712725,0.9840515339093854,-7.496713978385425,-0.17037810618226065,-1.289539280712822,9.783936453545737,-0.002181661564992912,0.001090830782496456,0.001090830782496456,-4.6875,12.5,-85.25
1773080574.3720975,-0.06447412906712725,0.9840515339093854,-7.496713978385425,-0.17037810618226065,-1.289539280712822,9.783936453545737,-0.002181661564992912,0.001090830782496456,0.001090830782496456,-4.6875,12.5,-85.25
1773080574.4068236,-0.06447412906712725,0.9840515339093854,-7.496713978385425,-0.17025162544057165,-1.2930385081682743,9.78596477756894,0.0,0.0,-0.001090830782496456,-4.6875,12.5,-85.25
1773080574.447271,-0.06447412906712725,0.9840515339093854,-7.496713978385425,-0.17025162544057165,-1.2930385081682743,9.78596477756894,0.0,0.0,-0.001090830782496456,-4.6875,12.5,-85.25
1773080574.4628646,-0.06447412906712725,0.9840515339093854,-7.496713978385425,-0.1701674539198601,-1.2953672049509457,9.787314604548518,-0.001090830782496456,0.0,0.0,-6.1875,11.375,-85.6875
1773080574.5024405,-0.06447412906712725,0.9840515339093854,-7.496713978385425,-0.17345655042040342,-1.296916926646566,9.788212899324872,-0.001090830782496456,-0.001090830782496456,0.0,-6.1875,11.375,-85.6875
1773080574.5157475,-0.06447412906712725,0.9840515339093854,-7.496713978385425,-0.17345655042040342,-1.296916926646566,9.788212899324872,-0.001090830782496456,-0.001090830782496456,0.0,-6.1875,11.375,-85.6875
1773080574.5300202,-0.06447412906712725,0.9840515339093854,-7.496713978385425,-0.17345655042040342,-1.296916926646566,9.788212899324872,-0.001090830782496456,-0.001090830782496456,0.0,-6.1875,11.375,-85.6875
1773080574.5491114,-0.06447412906712725,0.9840515339093854,-7.496713978385425,-0.17564540739989967,-1.2946031374161564,9.782120481049287,0.0,-0.001090830782496456,-0.001090830782496456,-5.5,10.6875,-85.25
1773080574.6055021,-0.06447412906712725,0.9840515339093854,-7.496713978385425,-0.17564540739989967,-1.2946031374161564,9.782120481049287,0.0,-0.001090830782496456,-0.001090830782496456,-5.5,10.6875,-85.25
1773080574.6400669,-0.06447412906712725,0.9840515339093854,-7.496713978385425,-0.1737569555613005,-1.293063336530038,9.778066044743655,-0.001090830782496456,0.002181661564992912,0.003272492347489368,-5.5,11.0,-85.6875
1773080574.6624854,-0.06447412906712725,0.9840515339093854,-7.496713978385425,-0.172500211958102,-1.2920386162410291,9.775367862673278,0.001090830782496456,0.001090830782496456,0.001090830782496456,-5.5,11.0,-85.6875
1773080574.683586,-0.06447412906712725,0.9840515339093854,-7.496713978385425,-0.17166386312891932,-1.2947017880428888,9.773572252646112,0.003272492347489368,0.0,0.0,-5.5,11.0,-85.6875
1773080574.7052171,-0.06447412906712725,0.9840515339093854,-7.496713978385425,-0.17166386312891932,-1.2947017880428888,9.773572252646112,0.003272492347489368,0.0,0.0,-5.5,11.0,-85.6875
1773080574.7304695,-0.06447412906712725,0.9840515339093854,-7.496713978385425,-0.1711072823257268,-1.2964740991274482,9.77237729423131,0.001090830782496456,-0.001090830782496456,0.0,-5.0625,12.0625,-85.75
1773080574.7470973,-0.06447412906712725,0.9840515339093854,-7.496713978385425,-0.17073688401861714,-1.294308440648891,9.764891839340182,0.001090830782496456,-0.002181661564992912,0.002181661564992912,-5.0625,12.0625,-85.75
1773080574.7861962,-0.06447412906712725,0.9840515339093854,-7.496713978385425,-0.17049038808285588,-1.2928672191234014,9.759910352728145,0.0,0.0,0.0,-5.0625,12.0625,-85.75
1773080574.8055248,-0.06447412906712725,0.9840515339093854,-7.496713978385425,-0.17049038808285588,-1.2928672191234014,9.759910352728145,0.0,0.0,0.0,-5.0625,12.0625,-85.75
1773080574.8496807,-0.06447412906712725,0.9840515339093854,-7.496713978385425,-0.17032634779114678,-1.2919081022976875,9.766630564156644,0.001090830782496456,-0.002181661564992912,0.002181661564992912,-5.875,11.375,-85.25
1773080574.885851,-0.06447412906712725,0.9840515339093854,-7.496713978385425,-0.1702171808094645,-1.2912698207642117,9.77110278979263,0.001090830782496456,-0.001090830782496456,-0.003272492347489368,-5.875,11.375,-85.25
1773080574.9160116,-0.06447412906712725,0.9840515339093854,-7.496713978385425,-0.17014453140263003,-1.2908450515337555,9.770733894288027,0.001090830782496456,0.0,0.0,-4.375,11.375,-86.0625
1773080574.9429462,-0.06447412906712725,0.9840515339093854,-7.496713978385425,-0.1734412957412481,-1.2905623723558701,9.770488398450546,0.0,0.003272492347489368,0.002181661564992912,-4.375,11.375,-86.0625
1773080574.9760983,-0.06447412906712725,0.9840515339093854,-7.496713978385425,-0.17563525558132775,-1.2903742525207207,9.773670135420389,0.003272492347489368,0.001090830782496456,0.001090830782496456,-4.6875,11.75,-86.5
1773080575.0136385,-0.06447412906712725,0.9840515339093854,-7.496713978385425,-0.17375019963944413,-1.290249060871865,9.77578754583149,0.001090830782496456,-0.001090830782496456,0.002181661564992912,-4.6875,11.75,-86.5
1773080575.0309248,-0.06447412906712725,0.9840515339093854,-7.496713978385425,-0.17375019963944413,-1.290249060871865,9.77578754583149,0.001090830782496456,-0.001090830782496456,0.002181661564992912,-4.6875,11.75,-86.5
1773080575.0715046,-0.06447412906712725,0.9840515339093854,-7.496713978385425,-0.17249571596757518,-1.2868206355207146,9.777196658807052,0.001090830782496456,0.0,0.001090830782496456,-5.5,11.375,-87.25
1773080575.1052837,-0.06447412906712725,0.9840515339093854,-7.496713978385425,-0.1716608710974472,-1.2845390567475445,9.778134407751466,-0.001090830782496456,-0.002181661564992912,0.001090830782496456,-5.5,11.375,-87.25
1773080575.1377885,-0.06447412906712725,0.9840515339093854,-7.496713978385425,-0.1711052911622053,-1.2830206915609048,9.778758469198632,0.0,0.002181661564992912,0.0,-5.0625,11.0,-85.6875
1773080575.1544096,-0.06447412906712725,0.9840515339093854,-7.496713978385425,-0.17073555892153633,-1.2853553481977658,9.779173775120498,0.0,0.001090830782496456,0.002181661564992912,-5.0625,11.0,-85.6875
1773080575.1723073,-0.06447412906712725,0.9840515339093854,-7.496713978385425,-0.1704895062455509,-1.2902541478170928,9.779450156572228,0.0,-0.001090830782496456,0.0,-5.0625,11.0,-85.6875
1773080575.2085724,-0.06447412906712725,0.9840515339093854,-7.496713978385425,-0.1704895062455509,-1.2902541478170928,9.779450156572228,0.0,-0.001090830782496456,0.0,-5.0625,11.0,-85.6875
1773080575.2412846,-0.06447412906712725,0.9840515339093854,-7.496713978385425,-0.17032576093827106,-1.290169132533258,9.776288973633651,-0.001090830782496456,-0.001090830782496456,0.002181661564992912,-4.6875,11.75,-84.0625
1773080575.257807,-0.06447412906712725,0.9840515339093854,-7.496713978385425,-0.17032576093827106,-1.290169132533258,9.776288973633651,-0.001090830782496456,-0.001090830782496456,0.002181661564992912,-4.6875,11.75,-84.0625
1773080575.2778,-0.06447412906712725,0.9840515339093854,-7.496713978385425,-0.17021679026543127,-1.2867674441042296,9.774185241700756,0.001090830782496456,0.0,-0.001090830782496456,-4.6875,11.75,-84.0625
1773080575.298987,-0.06447412906712725,0.9840515339093854,-7.496713978385425,-0.17021679026543127,-1.2867674441042296,9.774185241700756,0.001090830782496456,0.0,-0.001090830782496456,-4.6875,11.75,-84.0625
1773080575.3317435,-0.06447412906712725,0.9840515339093854,-7.496713978385425,-0.17014427149993858,-1.2845036584540608,9.77947545501428,-0.001090830782496456,-0.001090830782496456,0.001090830782496456,-4.375,12.0625,-85.0
1773080575.3548203,-0.06447412906712725,0.9840515339093854,-7.496713978385425,-0.17344112277891024,-1.2829971343920161,9.782996032878875,0.0,-0.002181661564992912,-0.001090830782496456,-4.375,12.0625,-85.0
1773080575.3802402,-0.06447412906712725,0.9840515339093854,-7.496713978385425,-0.17563514047682402,-1.2786494477503825,9.785338938120331,-0.001090830782496456,-0.002181661564992912,-0.001090830782496456,-4.375,12.0625,-85.0
1773080575.41837,-0.06447412906712725,0.9840515339093854,-7.496713978385425,-0.17563514047682402,-1.2786494477503825,9.785338938120331,-0.001090830782496456,-0.002181661564992912,-0.001090830782496456,-4.375,12.0625,-85.0
1773080575.4479566,-0.06447412906712725,0.9840515339093854,-7.496713978385425,-0.17709523474600206,-1.272410999149898,9.783553003679234,0.001090830782496456,0.0,-0.001090830782496456,-5.875,11.375,-86.0625
1773080575.4627287,-0.06447412906712725,0.9840515339093854,-7.496713978385425,-0.17709523474600206,-1.272410999149898,9.783553003679234,0.001090830782496456,0.0,-0.001090830782496456,-5.875,11.375,-86.0625
1773080575.4821157,-0.06447412906712725,0.9840515339093854,-7.496713978385425,-0.17806691117181836,-1.2682593812943126,9.782364484258878,-0.001090830782496456,-0.001090830782496456,-0.003272492347489368,-5.875,11.375,-86.0625
1773080575.5208182,-2.745834139099625e-06,0.9840934407958352,-7.4970323394688325,-0.17393675481390133,-1.2723832835168323,9.781573537861263,0.001090830091854358,1.2274961684072706e-06,0.0,-4.7007191379500215,11.744717784438688,-85.75
1773080575.8811483,-2.745834139099625e-06,0.9840934407958352,-7.4970323394688325,-0.17093846367469082,-1.278959002475493,9.78069688118121,-1.2274961684072706e-06,0.001090830091854358,-0.002181661564992912,-5.0760705522738485,12.05679560448539,-85.75
1773080576.0867383,-2.745834139099625e-06,0.9840934407958352,-7.4970323394688325,-0.16181116586655134,-1.2855044898013905,9.781794068553575,-0.0010920575880227653,0.0010896025956859507,0.0,-5.075718900524757,11.744295802339778,-85.75
1773080576.2132134,-2.745834139099625e-06,0.9840934407958352,-7.4970323394688325,-0.1640723321899281,-1.280381787294931,9.784539044288666,0.0010932850841911725,-0.0021804326875403085,0.001090830782496456,-4.700297155851112,11.369718021863951,-85.25
1773080576.2725472,-2.745834139099625e-06,0.9840934407958352,-7.4970323394688325,-0.16891469429661798,-1.283666669386074,9.78636579497698,0.0,0.0,0.0,-4.700297155851112,11.369718021863951,-85.25
1773080576.307324,-2.745834139099625e-06,0.9840934407958352,-7.4970323394688325,-0.17213723218589103,-1.2858527217231925,9.78423636544659,3.682488505221812e-06,-0.003272490275563074,-0.002181661564992912,-5.5127966414297065,11.368803727316315,-85.375
1773080576.32888,-2.745834139099625e-06,0.9840934407958352,-7.4970323394688325,-0.1742817951530953,-1.2873075151337403,9.782819253881403,3.682488505221812e-06,-0.003272490275563074,0.002181661564992912,-5.5127966414297065,11.368803727316315,-85.375
1773080576.3584871,-2.745834139099625e-06,0.9840934407958352,-7.4970323394688325,-0.17570897785143175,-1.2882756638973525,9.778531070257625,0.0010920575880227653,-0.0010896025956859507,-0.001090830782496456,-4.701070789699113,12.0572175865843,-85.75
1773080576.380979,-2.745834139099625e-06,0.9840934407958352,-7.4970323394688325,-0.1766587519944993,-1.2889199560846063,9.77567733195815,-0.001090830091854358,-1.2274961684072706e-06,0.0,-4.701070789699113,12.0572175865843,-85.75
1773080576.4223764,-2.745834139099625e-06,0.9840934407958352,-7.4970323394688325,-0.1766587519944993,-1.2889199560846063,9.77567733195815,-0.001090830091854358,-1.2274961684072706e-06,0.0,-4.701070789699113,12.0572175865843,-85.75
1773080576.4572477,-2.745834139099625e-06,0.9840934407958352,-7.4970323394688325,-0.1739457064876231,-1.2893449611319832,9.773778200998196,-0.0010920575880227653,0.0010896025956859507,0.001090830782496456,-4.38737537160659,10.995069911038307,-85.25
1773080576.4723556,-2.745834139099625e-06,0.9840934407958352,-7.4970323394688325,-0.17214020500950108,-1.2896277972433952,9.779204573973669,-0.001090830091854358,-1.2274961684072706e-06,-0.001090830782496456,-4.38737537160659,10.995069911038307,-85.25
1773080576.514357,-2.745834139099625e-06,0.9840934407958352,-7.4970323394688325,-0.17214020500950108,-1.2896277972433952,9.779204573973669,-0.001090830091854358,-1.2274961684072706e-06,-0.001090830782496456,-4.38737537160659,10.995069911038307,-85.25
1773080576.5645747,-2.745834139099625e-06,0.9840934407958352,-7.4970323394688325,-0.1709386639445839,-1.2898160215160537,9.782815764572288,0.001090830091854358,1.2274961684072706e-06,-0.001090830782496456,-5.887374421905533,10.99338198264267,-85.75
1773080576.6233547,-2.745834139099625e-06,0.9840934407958352,-7.4970323394688325,-0.1701390517879747,-1.2899412826669048,9.781873859868705,-0.0010883750995175434,-0.002182887679877123,0.0,-5.887374421905533,10.99338198264267,-85.75
1773080576.6392536,-2.745834139099625e-06,0.9840934407958352,-7.4970323394688325,-0.1696069188300043,-1.2900246425635375,9.781247032810237,-0.0010883750995175434,-0.002182887679877123,-0.001090830782496456,-4.388219335804409,11.745069436187778,-85.0
1773080576.652413,-2.745834139099625e-06,0.9840934407958352,-7.4970323394688325,-0.1696069188300043,-1.2900246425635375,9.781247032810237,-0.0010883750995175434,-0.002182887679877123,-0.001090830782496456,-4.388219335804409,11.745069436187778,-85.0
1773080576.6722171,-2.745834139099625e-06,0.9840934407958352,-7.4970323394688325,-0.16925655449681454,-1.2867350080541402,9.780829886404943,-0.0010920575880227653,0.0010896025956859507,0.0,-4.388219335804409,11.745069436187778,-85.0
1773080576.6858895,-2.745834139099625e-06,0.9840934407958352,-7.4970323394688325,-0.1690233909469028,-1.2845457930357618,9.79058761525401,0.0,0.0,0.0,-4.388219335804409,11.745069436187778,-85.0
1773080576.7179613,-2.745834139099625e-06,0.9840934407958352,-7.4970323394688325,-0.1690233909469028,-1.2845457930357618,9.79058761525401,0.0,0.0,0.0,-4.388219335804409,11.745069436187778,-85.0
1773080576.7486987,-2.745834139099625e-06,0.9840934407958352,-7.4970323394688325,-0.17221333279845938,-1.2830926591021896,9.79708127480209,-2.454992336814541e-06,0.002181660183708716,-0.001090830782496456,-5.074874936326939,10.994296277190307,-85.0
1773080576.7655528,-2.745834139099625e-06,0.9840934407958352,-7.4970323394688325,-0.17433620346668494,-1.282125614701967,9.78802228586313,-0.001090830091854358,-1.2274961684072706e-06,0.002181661564992912,-5.074874936326939,10.994296277190307,-85.0
1773080576.7966053,-2.745834139099625e-06,0.9840934407958352,-7.4970323394688325,-0.17574895018236986,-1.2814820574562127,9.78199362991979,-0.0010920575880227653,0.0010896025956859507,-0.001090830782496456,-5.074874936326939,10.994296277190307,-85.25
1773080576.8401327,-2.745834139099625e-06,0.9840934407958352,-7.4970323394688325,-0.17574895018236986,-1.2814820574562127,9.78199362991979,-0.0010920575880227653,0.0010896025956859507,-0.001090830782496456,-5.074874936326939,10.994296277190307,-85.25
1773080576.8575923,-2.745834139099625e-06,0.9840934407958352,-7.4970323394688325,-0.17668911734024334,-1.281053777298169,9.777981626733995,0.0010871476033491362,0.003273717771731481,0.0,-5.074874936326939,10.994296277190307,-85.25
1773080576.87488,-2.745834139099625e-06,0.9840934407958352,-7.4970323394688325,-0.17668911734024334,-1.281053777298169,9.777981626733995,0.0010871476033491362,0.003273717771731481,0.0,-5.074874936326939,10.994296277190307,-85.25
1773080576.8926682,-2.745834139099625e-06,0.9840934407958352,-7.4970323394688325,-0.17731478808145282,-1.2807687616371934,9.77865679513818,0.0010920575880227653,-0.0010896025956859507,0.0,-5.075296918425848,11.369296039765043,-85.0
1773080576.9155676,-2.745834139099625e-06,0.9840934407958352,-7.4970323394688325,-0.17731478808145282,-1.2807687616371934,9.77865679513818,0.0010920575880227653,-0.0010896025956859507,0.0,-5.075296918425848,11.369296039765043,-85.0
1773080576.9454458,-2.745834139099625e-06,0.9840934407958352,-7.4970323394688325,-0.17438605538111232,-1.2805753226926229,9.77576100046172,-2.454992336814541e-06,0.002181660183708716,0.0,-5.075296918425848,11.369296039765043,-85.0
1773080576.975603,-2.745834139099625e-06,0.9840934407958352,-7.4970323394688325,-0.17242948807307382,-1.2871368104146963,9.773833881452683,-0.001090830091854358,-1.2274961684072706e-06,-0.001090830782496456,-4.699523522003112,10.682218457143604,-87.0
1773080577.020611,-2.745834139099625e-06,0.9840934407958352,-7.4970323394688325,-0.17112741438586312,-1.2915034071971159,9.772551405279499,-1.2274961684072706e-06,0.001090830091854358,-0.001090830782496456,-4.699523522003112,10.682218457143604,-87.0
1773080577.0441377,-2.745834139099625e-06,0.9840934407958352,-7.4970323394688325,-0.17112741438586312,-1.2915034071971159,9.772551405279499,-1.2274961684072706e-06,0.001090830091854358,-0.001090830782496456,-4.699523522003112,10.682218457143604,-87.0
1773080577.0702283,-2.745834139099625e-06,0.9840934407958352,-7.4970323394688325,-0.1702684273041903,-1.2877191093989033,9.771697931712442,-0.001090830091854358,-1.2274961684072706e-06,-0.002181661564992912,-4.699875173752203,10.994718259289217,-85.0
1773080577.1001086,-2.745834139099625e-06,0.9840934407958352,-7.4970323394688325,-0.1696967809968515,-1.2852007014875693,9.774475066294809,-0.0010896025956859507,-0.0010920575880227653,-0.001090830782496456,-4.699875173752203,10.994718259289217,-85.0
1773080577.1267745,-2.745834139099625e-06,0.9840934407958352,-7.4970323394688325,-0.16931635676502518,-1.2835247291550358,9.776323218336747,-0.0010871476033491362,-0.003273717771731481,-0.001090830782496456,-5.511530695132978,10.243804439592108,-85.25
1773080577.1755357,-2.745834139099625e-06,0.9840934407958352,-7.4970323394688325,-0.16905566027631205,-1.2890996074684034,9.774208031168127,-0.0021792051913719014,-0.0021841151760455305,0.0,-5.511530695132978,10.243804439592108,-85.25
1773080577.2080128,-2.745834139099625e-06,0.9840934407958352,-7.4970323394688325,-0.1688821696752441,-1.292809626710478,9.772800397735601,0.0,0.0,0.001090830782496456,-5.511530695132978,10.243804439592108,-85.25
1773080577.2394195,-2.745834139099625e-06,0.9840934407958352,-7.4970323394688325,-0.1688821696752441,-1.292809626710478,9.772800397735601,0.0,0.0,0.001090830782496456,-5.511530695132978,10.243804439592108,-85.25
1773080577.2698958,-2.745834139099625e-06,0.9840934407958352,-7.4970323394688325,-0.16877424203030014,-1.2885883838936179,9.77186363341055,-2.454992336814541e-06,0.002181660183708716,-0.002181661564992912,-4.699875173752203,10.994718259289217,-85.6875
1773080577.3075395,-2.745834139099625e-06,0.9840934407958352,-7.4970323394688325,-0.16877424203030014,-1.2885883838936179,9.77186363341055,-2.454992336814541e-06,0.002181660183708716,-0.002181661564992912,-4.699875173752203,10.994718259289217,-85.6875
1773080577.351417,-2.745834139099625e-06,0.9840934407958352,-7.4970323394688325,-0.16870241738822075,-1.2857791939533694,9.774585338923892,-0.0010932850841911725,0.0021804326875403085,0.0,-4.699875173752203,10.994718259289217,-85.6875
1773080577.3702395,-2.745834139099625e-06,0.9840934407958352,-7.4970323394688325,-0.16865461889125075,-1.2839097094288416,9.776396603539578,-0.002181660183708716,-2.454992336814541e-06,0.0,-5.888218386103351,11.743381507792142,-85.0
1773080577.3900418,-2.745834139099625e-06,0.9840934407958352,-7.4970323394688325,-0.16865461889125075,-1.2839097094288416,9.776396603539578,-0.002181660183708716,-2.454992336814541e-06,0.0,-5.888218386103351,11.743381507792142,-85.0
1773080577.4289615,-2.745834139099625e-06,0.9840934407958352,-7.4970323394688325,-0.1686190453194365,-1.2860106979506944,9.777601979908164,-2.454992336814541e-06,0.002181660183708716,0.0,-5.888218386103351,11.743381507792142,-85.0
1773080577.4615788,-2.745834139099625e-06,0.9840934407958352,-7.4970323394688325,-0.17194048109419222,-1.2874126465484328,9.778404144416523,-0.0010945125803595798,0.0032712627793946665,0.0,-5.075718900524757,11.744295802339778,-86.5625
1773080577.506673,-2.745834139099625e-06,0.9840934407958352,-7.4970323394688325,-0.17415085949942347,-1.2883456276794356,9.78228308764339,-0.002185342672213938,0.0032700352832262594,-0.001090830782496456,-5.075718900524757,11.744295802339778,-86.5625
1773080577.5322754,-2.745834139099625e-06,0.9840934407958352,-7.4970323394688325,-0.17415085949942347,-1.2883456276794356,9.78228308764339,-0.002185342672213938,0.0032700352832262594,-0.001090830782496456,-5.075718900524757,11.744295802339778,-86.5625
1773080577.5485148,-2.745834139099625e-06,0.9840934407958352,-7.4970323394688325,-0.17896695122597556,-1.2889702804060608,9.784864481030237,-2.454992336814541e-06,0.002181660183708716,0.001090830782496456,-5.513218623528616,11.74380348989105,-86.0625
1773080577.562345,-2.745834139099625e-06,0.9840934407958352,-7.4970323394688325,-0.17896695122597556,-1.2889702804060608,9.784864481030237,-2.454992336814541e-06,0.002181660183708716,0.001090830782496456,-5.513218623528616,11.74380348989105,-86.0625
1773080577.6085262,-2.745834139099625e-06,0.9840934407958352,-7.4970323394688325,-0.17882689688131098,-1.2893822156117767,9.786582369493129,-0.0010932850841911725,0.0021804326875403085,-0.001090830782496456,-5.513218623528616,11.74380348989105,-86.0625
1773080577.684267,-2.745834139099625e-06,0.9840934407958352,-7.4970323394688325,-0.1731004230042202,-1.2898325206080188,9.788486415584144,0.001090830091854358,1.2274961684072706e-06,0.001090830782496456,-4.701070789699113,12.0572175865843,-85.375
1773080577.768265,-2.745834139099625e-06,0.9840934407958352,-7.4970323394688325,-0.1715776782937317,-1.2899522626283006,9.788992726479094,-0.0010932850841911725,0.0021804326875403085,-0.001090830782496456,-5.5127966414297065,11.368803727316315,-85.25
1773080577.854614,-2.745834139099625e-06,0.9840934407958352,-7.4970323394688325,-0.17323126793730068,-1.293433854193592,9.786208791647452,0.0,0.0,0.0,-5.887374421905533,10.99338198264267,-86.0625
1773080577.8857992,-2.745834139099625e-06,0.9840934407958352,-7.4970323394688325,-0.17166098992903814,-1.295694019489383,9.777441658069993,0.0010896025956859507,0.0010920575880227653,0.0,-5.887374421905533,10.99338198264267,-86.0625
1773080577.907882,-2.745834139099625e-06,0.9840934407958352,-7.4970323394688325,-0.17166098992903814,-1.295694019489383,9.777441658069993,0.0010896025956859507,0.0010920575880227653,0.0,-5.887374421905533,10.99338198264267,-86.0625
1773080577.957764,-2.745834139099625e-06,0.9840934407958352,-7.4970323394688325,-0.1739610970451094,-1.297201898452056,9.771607228609493,0.0010945125803595798,-0.0032712627793946665,0.0,-5.5127966414297065,11.368803727316315,-84.0625
1773080578.001494,-2.745834139099625e-06,0.9840934407958352,-7.4970323394688325,-0.17549555684299975,-1.2948602654681878,9.771069592685699,0.002181660183708716,2.454992336814541e-06,0.001090830782496456,-5.5127966414297065,11.368803727316315,-84.0625
1773080578.0572991,-2.745834139099625e-06,0.9840934407958352,-7.4970323394688325,-0.17651672269745666,-1.293301934875178,9.774056913691519,3.682488505221812e-06,-0.003272490275563074,0.0,-5.075296918425848,11.369296039765043,-86.1875
1773080578.084705,-2.745834139099625e-06,0.9840934407958352,-7.4970323394688325,-0.17719629716642774,-1.2922648832732233,9.77604494245033,0.0,0.0,0.001090830782496456,-5.075296918425848,11.369296039765043,-86.1875
1773080578.1199431,-2.745834139099625e-06,0.9840934407958352,-7.4970323394688325,-0.17719629716642774,-1.2922648832732233,9.77604494245033,0.0,0.0,0.001090830782496456,-5.075296918425848,11.369296039765043,-86.1875
1773080578.1409335,-2.745834139099625e-06,0.9840934407958352,-7.4970323394688325,-0.1743109652068183,-1.2848807536318922,9.774022841674263,1.2274961684072706e-06,-0.001090830091854358,-0.001090830782496456,-5.513218623528616,11.74380348989105,-85.75
1773080578.1793284,-2.745834139099625e-06,0.9840934407958352,-7.4970323394688325,-0.17573591860838333,-1.2799704620477443,9.772677156196137,-0.0010945125803595798,0.0032712627793946665,-0.001090830782496456,-5.513218623528616,11.74380348989105,-85.75
1773080578.2150767,-2.745834139099625e-06,0.9840934407958352,-7.4970323394688325,-0.1733390995899371,-1.2766989536440199,9.771781617542734,-0.0010920575880227653,0.0010896025956859507,0.0,-5.0760705522738485,12.05679560448539,-85.0
1773080578.2404013,-2.745834139099625e-06,0.9840934407958352,-7.4970323394688325,-0.17173651489533412,-1.2812120205253155,9.777875869987357,0.0,0.0,-0.002181661564992912,-5.0760705522738485,12.05679560448539,-85.0
1773080578.2658205,-2.745834139099625e-06,0.9840934407958352,-7.4970323394688325,-0.17067377688914478,-1.280870306531142,9.775241303497353,-1.2274961684072706e-06,0.001090830091854358,0.0,-5.0760705522738485,12.05679560448539,-85.0
1773080578.288776,-2.745834139099625e-06,0.9840934407958352,-7.4970323394688325,-0.17067377688914478,-1.280870306531142,9.775241303497353,-1.2274961684072706e-06,0.001090830091854358,0.0,-5.0760705522738485,12.05679560448539,-85.0
1773080578.3099859,-2.745834139099625e-06,0.9840934407958352,-7.4970323394688325,-0.16996653661758712,-1.2806428996852148,9.773488028928291,0.0010920575880227653,-0.0010896025956859507,-0.002181661564992912,-4.388219335804409,11.745069436187778,-93.75
1773080578.3299923,-2.745834139099625e-06,0.9840934407958352,-7.4970323394688325,-0.169495876117257,-1.2804915629695512,9.77232124428794,-0.001085920107180729,-0.004364547863585839,0.001090830782496456,-4.388219335804409,11.745069436187778,-93.75
1773080578.3453753,-2.745834139099625e-06,0.9840934407958352,-7.4970323394688325,-0.1725277664013249,-1.280394614281844,9.778234985558266,-0.001090830091854358,-1.2274961684072706e-06,-0.002181661564992912,-4.388219335804409,11.745069436187778,-93.75
1773080578.3663654,-2.745834139099625e-06,0.9840934407958352,-7.4970323394688325,-0.1725277664013249,-1.280394614281844,9.778234985558266,-0.001090830091854358,-1.2274961684072706e-06,-0.002181661564992912,-4.388219335804409,11.745069436187778,-93.75
1773080578.3900537,-2.745834139099625e-06,0.9840934407958352,-7.4970323394688325,-0.17454169131091357,-1.2836752056025778,9.782170514312849,-1.2274961684072706e-06,0.001090830091854358,0.0,-4.7007191379500215,11.744717784438688,-85.75
1773080578.4166021,-2.745834139099625e-06,0.9840934407958352,-7.4970323394688325,-0.17253682625181416,-1.2858546382738951,9.784789564736288,3.682488505221812e-06,-0.003272490275563074,0.0,-4.7007191379500215,11.744717784438688,-85.75
1773080578.4409738,-2.745834139099625e-06,0.9840934407958352,-7.4970323394688325,-0.17253682625181416,-1.2858546382738951,9.784789564736288,3.682488505221812e-06,-0.003272490275563074,0.0,-4.7007191379500215,11.744717784438688,-85.75
1773080578.468142,-2.745834139099625e-06,0.9840934407958352,-7.4970323394688325,-0.1712026109507937,-1.2873050263707986,9.786532513536375,0.0010920575880227653,-0.0010896025956859507,-0.001090830782496456,-4.701070789699113,12.0572175865843,-84.5625
1773080578.5271692,-2.745834139099625e-06,0.9840934407958352,-7.4970323394688325,-0.17031470557212602,-1.2882702434473914,9.78769242649282,1.2274961684072706e-06,-0.001090830091854358,-0.001090830782496456,-4.701070789699113,12.0572175865843,-84.5625
1773080578.5586245,-2.745834139099625e-06,0.9840934407958352,-7.4970323394688325,-0.17031470557212602,-1.2882702434473914,9.78769242649282,-0.0010871476033491362,-0.003273717771731481,0.002181661564992912,-4.7007191379500215,11.744717784438688,-85.375
1773080578.580225,-2.745834139099625e-06,0.9840934407958352,-7.4970323394688325,-0.173068924050591,-1.2889163488357072,9.788464335608257,-0.0021828876798771235,0.0010883750995175434,-0.1407171709420428,-4.7007191379500215,11.744717784438688,-85.375
1773080578.6061773,-2.745834139099625e-06,0.9840934407958352,-7.4970323394688325,-0.17490558988739796,-1.2860012151647462,9.78897803250179,0.0,0.0,0.0,-4.700297155851112,11.369718021863951,-86.0625
1773080578.6346567,-2.745834139099625e-06,0.9840934407958352,-7.4970323394688325,-0.17490558988739796,-1.2860012151647462,9.78897803250179,0.0,0.0,0.0,-4.700297155851112,11.369718021863951,-86.0625
1773080578.655077,-2.745834139099625e-06,0.9840934407958352,-7.4970323394688325,-0.1761278704848913,-1.2840612262708984,9.785974780338746,1.2274961684072706e-06,-0.001090830091854358,0.001090830782496456,-4.700297155851112,11.369718021863951,-86.0625
1773080578.6795032,-2.745834139099625e-06,0.9840934407958352,-7.4970323394688325,-0.1761278704848913,-1.2840612262708984,9.785974780338746,1.2274961684072706e-06,-0.001090830091854358,0.001090830782496456,-4.700297155851112,11.369718021863951,-86.0625
1773080578.7106555,-2.745834139099625e-06,0.9840934407958352,-7.4970323394688325,-0.17747883834910944,-1.285256121600347,9.77707483694298,3.682488505221812e-06,-0.003272490275563074,0.0,-5.074874936326939,10.994296277190307,-85.75
1773080578.7347572,-2.745834139099625e-06,0.9840934407958352,-7.4970323394688325,-0.17747883834910944,-1.285256121600347,9.77707483694298,3.682488505221812e-06,-0.003272490275563074,0.0,-5.074874936326939,10.994296277190307,-85.75
1773080578.757202,-2.745834139099625e-06,0.9840934407958352,-7.4970323394688325,-0.17449522900167622,-1.2835616106210064,9.774708224954447,0.0,0.0,0.0,-5.074874936326939,10.994296277190307,-85.75
1773080578.772072,-2.745834139099625e-06,0.9840934407958352,-7.4970323394688325,-0.17449522900167622,-1.2835616106210064,9.774708224954447,0.0,0.0,0.0,-5.074874936326939,10.994296277190307,-85.75
1773080578.8259573,-2.745834139099625e-06,0.9840934407958352,-7.4970323394688325,-0.17250590610403477,-1.2857790420825985,9.786513717942142,-0.0010920575880227653,0.0010896025956859507,-0.002181661564992912,-5.5127966414297065,11.368803727316315,-87.0
1773080578.8464997,-2.745834139099625e-06,0.9840934407958352,-7.4970323394688325,-0.17118579814387208,-1.2839096083605401,9.78098969482018,-0.001090830091854358,-1.2274961684072706e-06,0.001090830782496456,-5.5127966414297065,11.368803727316315,-87.0
1773080578.8647277,-2.745834139099625e-06,0.9840934407958352,-7.4970323394688325,-0.17030728104295598,-1.2826655211014533,9.777313519139895,-2.454992336814541e-06,0.002181660183708716,0.001090830782496456,-5.074874936326939,10.994296277190307,-86.0625
1773080578.9101152,-2.745834139099625e-06,0.9840934407958352,-7.4970323394688325,-0.16972640193200025,-1.2784924853384811,9.774867065290238,-0.0010920575880227653,0.0010896025956859507,-0.001090830782496456,-5.074874936326939,10.994296277190307,-86.0625
1773080578.934702,-2.745834139099625e-06,0.9840934407958352,-7.4970323394688325,-0.16933606916647914,-1.2790604862435022,9.773238977581972,0.0,0.0,-0.001090830782496456,-5.074874936326939,10.994296277190307,-86.0625
1773080578.9476256,-2.745834139099625e-06,0.9840934407958352,-7.4970323394688325,-0.16933606916647914,-1.2790604862435022,9.773238977581972,0.0,0.0,-0.001090830782496456,-5.074874936326939,10.994296277190307,-86.0625
1773080578.976844,-2.745834139099625e-06,0.9840934407958352,-7.4970323394688325,-0.16907630707132754,-1.2794384845008078,9.77884572681369,-0.002181660183708716,-2.454992336814541e-06,0.001090830782496456,-4.388219335804409,11.745069436187778,-86.0625
1773080579.001766,-2.745834139099625e-06,0.9840934407958352,-7.4970323394688325,-0.1655583287093216,-1.2796862739125028,9.775886732381268,-0.0010920575880227653,0.0010896025956859507,0.0,-4.388219335804409,11.745069436187778,-86.0625
1773080579.0313654,-2.745834139099625e-06,0.9840934407958352,-7.4970323394688325,-0.1655583287093216,-1.2796862739125028,9.775886732381268,-0.0010920575880227653,0.0010896025956859507,0.0,-4.388219335804409,11.745069436187778,-86.0625
1773080579.0516303,-2.745834139099625e-06,0.9840934407958352,-7.4970323394688325,-0.16321338920177497,-1.2831962845874119,9.777262666347944,-6.137480842036353e-06,0.0054541504592717895,-0.001090830782496456,-4.7007191379500215,11.744717784438688,-86.1875
1773080579.0686264,-2.745834139099625e-06,0.9840934407958352,-7.4970323394688325,-0.16499796774360861,-1.2855359216882003,9.778178335032576,-2.454992336814541e-06,0.002181660183708716,0.0,-4.7007191379500215,11.744717784438688,-86.1875
1773080579.0910099,-2.745834139099625e-06,0.9840934407958352,-7.4970323394688325,-0.16499796774360861,-1.2855359216882003,9.778178335032576,-2.454992336814541e-06,0.002181660183708716,0.0,-4.7007191379500215,11.744717784438688,-86.1875
1773080579.1114018,-2.745834139099625e-06,0.9840934407958352,-7.4970323394688325,-0.16953069441756574,-1.2870966882493413,9.77878770231351,0.001090830091854358,1.2274961684072706e-06,-0.001090830782496456,-5.512374659330797,10.993803964741579,-86.0625
1773080579.157349,-2.745834139099625e-06,0.9840934407958352,-7.4970323394688325,-0.17254717338520956,-1.2881353609608757,9.772503006017255,-2.454992336814541e-06,0.002181660183708716,-0.001090830782496456,-5.512374659330797,10.993803964741579,-86.0625
1773080579.196914,-2.745834139099625e-06,0.9840934407958352,-7.4970323394688325,-0.17455460644189855,-1.2888265860476673,9.768320610836755,2.454992336814541e-06,-0.002181660183708716,-0.001090830782496456,-5.075718900524757,11.744295802339778,-87.0
1773080579.2295542,-2.745834139099625e-06,0.9840934407958352,-7.4970323394688325,-0.17589053071662852,-1.289286588621437,9.768882385271866,0.0,0.0,0.0,-5.075718900524757,11.744295802339778,-87.0
1773080579.262441,-2.745834139099625e-06,0.9840934407958352,-7.4970323394688325,-0.17589053071662852,-1.289286588621437,9.768882385271866,0.0,0.0,0.0,-5.075718900524757,11.744295802339778,-87.0
1773080579.2964935,-2.745834139099625e-06,0.9840934407958352,-7.4970323394688325,-0.17677957339820935,-1.2895927151957154,9.77260135159032,0.001090830091854358,1.2274961684072706e-06,0.0,-5.0760705522738485,12.05679560448539,-85.375
1773080579.3182945,-2.745834139099625e-06,0.9840934407958352,-7.4970323394688325,-0.17402611178212862,-1.2897926748052146,9.771731170424356,-1.2274961684072706e-06,0.001090830091854358,-0.001090830782496456,-5.0760705522738485,12.05679560448539,-85.375
1773080579.33226,-2.745834139099625e-06,0.9840934407958352,-7.4970323394688325,-0.17219371383480855,-1.2899257456916413,9.771152074578968,0.0,0.0,0.001090830782496456,-5.0760705522738485,12.05679560448539,-85.375
1773080579.346094,-2.745834139099625e-06,0.9840934407958352,-7.4970323394688325,-0.17097427347009328,-1.2900143028800592,9.770766692762786,-0.0010920575880227653,0.0010896025956859507,0.0,-6.199522572302055,10.680530528747965,-85.75
1773080579.3684318,-2.745834139099625e-06,0.9840934407958352,-7.4970323394688325,-0.17097427347009328,-1.2900143028800592,9.770766692762786,-0.0010920575880227653,0.0010896025956859507,0.0,-6.199522572302055,10.680530528747965,-85.75
1773080579.414363,-2.745834139099625e-06,0.9840934407958352,-7.4970323394688325,-0.1701627495294167,-1.2900732366997025,9.767165113761795,1.2274961684072706e-06,-0.001090830091854358,0.001090830782496456,-6.199522572302055,10.680530528747965,-85.75
1773080579.4291987,-2.745834139099625e-06,0.9840934407958352,-7.4970323394688325,-0.16962645361823775,-1.286767346908926,9.764768303168909,-0.0010871476033491362,-0.003273717771731481,0.001090830782496456,-5.075296918425848,11.369296039765043,-85.75
1773080579.4426877,-2.745834139099625e-06,0.9840934407958352,-7.4970323394688325,-0.16926955468016602,-1.2845673141823728,9.763173252493472,-0.0021792051913719014,-0.0021841151760455305,0.002181661564992912,-5.075296918425848,11.369296039765043,-85.75
1773080579.4650059,-2.745834139099625e-06,0.9840934407958352,-7.4970323394688325,-0.16926955468016602,-1.2845673141823728,9.763173252493472,-0.0021792051913719014,-0.0021841151760455305,0.002181661564992912,-5.075296918425848,11.369296039765043,-85.75
1773080579.5080473,-2.745834139099625e-06,0.9840934407958352,-7.4970323394688325,-0.16902827821767674,-1.286448326568243,9.76880198750149,-0.001090830091854358,-1.2274961684072706e-06,0.001090830782496456,-5.075296918425848,11.369296039765043,-85.75
1773080579.5512462,-2.745834139099625e-06,0.9840934407958352,-7.4970323394688325,-0.1688677114271248,-1.287700119298754,9.772547847772238,1.2274961684072706e-06,-0.001090830091854358,0.002181661564992912,-5.075718900524757,11.744295802339778,-85.0
1773080579.5810657,-2.745834139099625e-06,0.9840934407958352,-7.4970323394688325,-0.1687608560216611,-1.2885331733774685,9.781730899353057,0.0,0.0,-0.001090830782496456,-5.075718900524757,11.744295802339778,-85.0
1773080579.6018066,-2.745834139099625e-06,0.9840934407958352,-7.4970323394688325,-0.16534463535356275,-1.2890837973550042,9.784497005891367,0.0,0.0,0.0,-4.7007191379500215,11.744717784438688,-85.375
1773080579.6218934,-2.745834139099625e-06,0.9840934407958352,-7.4970323394688325,-0.16641628825004395,-1.2894539956672062,9.786337818893177,-0.0010896025956859507,-0.0010920575880227653,0.001090830782496456,-4.7007191379500215,11.744717784438688,-85.375
1773080579.6405644,-2.745834139099625e-06,0.9840934407958352,-7.4970323394688325,-0.16641628825004395,-1.2894539956672062,9.786337818893177,-0.0010896025956859507,-0.0010920575880227653,0.001090830782496456,-4.7007191379500215,11.744717784438688,-85.375
1773080579.6716661,-2.745834139099625e-06,0.9840934407958352,-7.4970323394688325,-0.16712946128150494,-1.2897003585085904,9.780872635968013,0.00016202949422975974,-0.14398957212477526,0.001090830782496456,-4.7007191379500215,11.744717784438688,-85.375
1773080579.6992888,-2.745834139099625e-06,0.9840934407958352,-7.4970323394688325,-0.1676040699672775,-1.2898643102274785,9.777235617781411,-0.0010920575880227653,0.0010896025956859507,0.0,-5.513570275277707,12.056303292036663,-85.75
1773080579.740351,-2.745834139099625e-06,0.9840934407958352,-7.4970323394688325,-0.1679161525399078,-1.293318527854353,9.774815222806382,0.0010896025956859507,0.0010920575880227653,-0.001090830782496456,-5.513570275277707,12.056303292036663,-85.75
1773080579.7646596,-2.745834139099625e-06,0.9840934407958352,-7.4970323394688325,-0.1681276042118274,-1.2922721615094837,9.783239812110041,0.001090830091854358,1.2274961684072706e-06,-0.001090830782496456,-4.700297155851112,11.369718021863951,-85.0
1773080579.7956526,-2.745834139099625e-06,0.9840934407958352,-7.4970323394688325,-0.17161343252683525,-1.2915795806016759,9.7888462821828,-3.682488505221812e-06,0.003272490275563074,-0.001090830782496456,-4.700297155851112,11.369718021863951,-85.0
1773080579.8159368,-2.745834139099625e-06,0.9840934407958352,-7.4970323394688325,-0.17161343252683525,-1.2915795806016759,9.7888462821828,-3.682488505221812e-06,0.003272490275563074,-0.001090830782496456,-4.700297155851112,11.369718021863951,-85.0
1773080579.8355484,-2.745834139099625e-06,0.9840934407958352,-7.4970323394688325,-0.1672467573584136,-1.2877660377427003,9.782541990265887,-2.454992336814541e-06,0.002181660183708716,-0.003272492347489368,-4.700297155851112,11.369718021863951,-85.0
1773080579.8577046,-2.745834139099625e-06,0.9840934407958352,-7.4970323394688325,-0.1710310029916174,-1.2852356959821671,9.778346554418736,-0.0010932850841911725,0.0021804326875403085,0.0,-5.511530695132978,10.243804439592108,-85.0
1773080579.9187763,-2.745834139099625e-06,0.9840934407958352,-7.4970323394688325,-0.1735493761877209,-1.2835517818063016,9.775554538728546,-0.0010932850841911725,0.0021804326875403085,0.002181661564992912,-5.511530695132978,10.243804439592108,-85.0
1773080579.9514625,-2.745834139099625e-06,0.9840934407958352,-7.4970323394688325,-0.17522532541765592,-1.282431155732817,9.777041595182903,-0.0010896025956859507,-0.0010920575880227653,0.001090830782496456,-4.7007191379500215,11.744717784438688,-85.0
1773080579.9687417,-2.745834139099625e-06,0.9840934407958352,-7.4970323394688325,-0.17299554131918277,-1.2816816273931015,9.77468610293445,-0.0032737177717314814,0.0010871476033491362,-0.001090830782496456,-4.7007191379500215,11.744717784438688,-85.0
1773080579.9922426,-2.745834139099625e-06,0.9840934407958352,-7.4970323394688325,-0.17299554131918277,-1.2816816273931015,9.77468610293445,-0.0032737177717314814,0.0010871476033491362,-0.001090830782496456,-4.7007191379500215,11.744717784438688,-85.0
1773080580.0155973,-2.745834139099625e-06,0.9840934407958352,-7.4970323394688325,-0.16816653532055406,-1.2811790604497761,9.776463660862996,2.454992336814541e-06,-0.002181660183708716,0.0,-5.075296918425848,11.369296039765043,-85.25
1773080580.0369284,-2.745834139099625e-06,0.9840934407958352,-7.4970323394688325,-0.16494535735994836,-1.2875348269418643,9.7743014941005,-1.2274961684072706e-06,0.001090830091854358,0.0,-5.075296918425848,11.369296039765043,-85.25
1773080580.0506089,-2.745834139099625e-06,0.9840934407958352,-7.4970323394688325,-0.16280922782213064,-1.2850742993649549,9.776207707980365,-0.0010945125803595798,0.0032712627793946665,0.0,-5.075296918425848,11.369296039765043,-85.25
1773080580.080571,-2.745834139099625e-06,0.9840934407958352,-7.4970323394688325,-0.16280922782213064,-1.2850742993649549,9.776207707980365,-0.0010945125803595798,0.0032712627793946665,0.0,-5.075296918425848,11.369296039765043,-85.25
1773080580.1083455,-2.745834139099625e-06,0.9840934407958352,-7.4970323394688325,-0.16807411244964907,-1.2867894837498806,9.77747627202361,-0.0010920575880227653,0.0010896025956859507,0.0,-5.076562864722576,12.49429532748925,-85.25
1773080580.1276147,-2.745834139099625e-06,0.9840934407958352,-7.4970323394688325,-0.1715853627686975,-1.281240700619353,9.778320487223601,0.0010883750995175434,0.002182887679877123,0.0,-5.076562864722576,12.49429532748925,-85.25
1773080580.1484103,-2.745834139099625e-06,0.9840934407958352,-7.4970323394688325,-0.17057695104337292,-1.277544283223931,9.778882303008693,0.0,0.0,-0.002181661564992912,-5.076562864722576,12.49429532748925,-85.25
1773080580.1628332,-2.745834139099625e-06,0.9840934407958352,-7.4970323394688325,-0.17057695104337292,-1.277544283223931,9.778882303008693,0.0,0.0,-0.002181661564992912,-5.076562864722576,12.49429532748925,-85.25
1773080580.1855667,-2.745834139099625e-06,0.9840934407958352,-7.4970323394688325,-0.16990586430486643,-1.2750843587389653,9.779256185137779,0.0010920575880227653,-0.0010896025956859507,-0.001090830782496456,-4.013219573229673,11.745491418286688,-85.0
1773080580.2218835,-2.745834139099625e-06,0.9840934407958352,-7.4970323394688325,-0.16944797095884573,-1.2834826352416238,9.779504999518148,1.2274961684072706e-06,-0.001090830091854358,0.0,-4.013219573229673,11.745491418286688,-85.0
1773080580.244973,-2.745834139099625e-06,0.9840934407958352,-7.4970323394688325,-0.17248835764148804,-1.2890753586452721,9.783015694416164,1.2274961684072706e-06,-0.001090830091854358,-0.001090830782496456,-4.013219573229673,11.745491418286688,-85.0
1773080580.2648616,-2.745834139099625e-06,0.9840934407958352,-7.4970323394688325,-0.17248835764148804,-1.2890753586452721,9.783015694416164,1.2274961684072706e-06,-0.001090830091854358,-0.001090830782496456,-4.013219573229673,11.745491418286688,-85.0
1773080580.29358,-2.745834139099625e-06,0.9840934407958352,-7.4970323394688325,-0.1711778840441013,-1.2827581606213154,9.785352022653763,0.001090830091854358,1.2274961684072706e-06,-0.001090830782496456,-5.5127966414297065,11.368803727316315,-86.5625
1773080580.3284078,-2.745834139099625e-06,0.9840934407958352,-7.4970323394688325,-0.16696066891457442,-1.2785503716980733,9.780216599582749,2.454992336814541e-06,-0.002181660183708716,0.0,-5.5127966414297065,11.368803727316315,-86.5625
1773080580.34581,-2.745834139099625e-06,0.9840934407958352,-7.4970323394688325,-0.1641503951492291,-1.2790952447631527,9.776799032895424,-0.0010920575880227653,0.0010896025956859507,-0.002181661564992912,-5.5127966414297065,11.368803727316315,-86.5625
1773080580.3816426,-2.745834139099625e-06,0.9840934407958352,-7.4970323394688325,-0.1689704085300373,-1.2794653801133822,9.774524680441731,1.2274961684072706e-06,-0.001090830091854358,-0.002181661564992912,-5.5127966414297065,11.368803727316315,-85.0
1773080580.4249554,-2.745834139099625e-06,0.9840934407958352,-7.4970323394688325,-0.17217430938586284,-1.2830568106436924,9.77301112428998,-0.0010920575880227653,0.0010896025956859507,0.0,-5.5127966414297065,11.368803727316315,-85.0
1773080580.4520683,-2.745834139099625e-06,0.9840934407958352,-7.4970323394688325,-0.1676162504366665,-1.2854393391306564,9.77200386957852,-0.0010883750995175434,-0.002182887679877123,0.001090830782496456,-5.5127966414297065,11.368803727316315,-85.0
1773080580.472018,-2.745834139099625e-06,0.9840934407958352,-7.4970323394688325,-0.1676162504366665,-1.2854393391306564,9.77200386957852,-0.0010883750995175434,-0.002182887679877123,0.001090830782496456,-5.5127966414297065,11.368803727316315,-85.0
1773080580.5306914,-2.745834139099625e-06,0.9840934407958352,-7.4970323394688325,-0.16590937061448682,-1.288083812643674,9.782029956867214,-0.001090830091854358,-1.2274961684072706e-06,-0.001090830782496456,-4.701070789699113,12.0572175865843,-86.1875
1773080580.5602298,-2.745834139099625e-06,0.9840934407958352,-7.4970323394688325,-0.16590937061448682,-1.288083812643674,9.782029956867214,-0.001090830091854358,-1.2274961684072706e-06,-0.001090830782496456,-4.701070789699113,12.0572175865843,-86.1875
1773080580.582596,-2.745834139099625e-06,0.9840934407958352,-7.4970323394688325,-0.16679587746370764,-1.285443407422962,9.784696025326348,-1.2274961684072706e-06,0.001090830091854358,-0.002181661564992912,-5.076562864722576,12.49429532748925,-86.1875
1773080580.6007817,-2.745834139099625e-06,0.9840934407958352,-7.4970323394688325,-0.16738583786893368,-1.2836862472438368,9.789815375811283,1.2274961684072706e-06,-0.001090830091854358,-0.001090830782496456,-5.076562864722576,12.49429532748925,-86.1875
1773080580.6156232,-2.745834139099625e-06,0.9840934407958352,-7.4970323394688325,-0.16738583786893368,-1.2836862472438368,9.789815375811283,1.2274961684072706e-06,-0.001090830091854358,-0.001090830782496456,-5.076562864722576,12.49429532748925,-86.1875
1773080580.6533577,-2.745834139099625e-06,0.9840934407958352,-7.4970323394688325,-0.16777468572229717,-1.2858619863628098,9.793222246372116,-0.0010871476033491362,-0.003273717771731481,0.002181661564992912,-5.076562864722576,12.49429532748925,-86.1875
1773080580.694915,-2.745834139099625e-06,0.9840934407958352,-7.4970323394688325,-0.1646883500355801,-1.2873061522358629,9.792144368965793,-0.0010932850841911725,0.0021804326875403085,-0.001090830782496456,-4.387023719857499,10.682570108892694,-85.75
1773080580.7336888,-2.745834139099625e-06,0.9840934407958352,-7.4970323394688325,-0.16263442811269857,-1.28826722849199,9.788081941885245,-2.454992336814541e-06,0.002181660183708716,0.0,-4.387023719857499,10.682570108892694,-85.75
1773080580.757453,-2.745834139099625e-06,0.9840934407958352,-7.4970323394688325,-0.16796154940168764,-1.2855692328271517,9.785378442043424,-1.2274961684072706e-06,0.001090830091854358,-0.001090830782496456,-5.5127966414297065,11.368803727316315,-85.375
1773080580.7877593,-2.745834139099625e-06,0.9840934407958352,-7.4970323394688325,-0.17150668911166594,-1.2837737468507884,9.783579293098764,-1.2274961684072706e-06,0.001090830091854358,0.0,-5.5127966414297065,11.368803727316315,-85.375
1773080580.838975,-2.745834139099625e-06,0.9840934407958352,-7.4970323394688325,-0.17051706619141088,-1.2859202163738013,9.782381979573904,2.454992336814541e-06,-0.002181660183708716,-0.001090830782496456,-5.888570037852443,12.055881309937755,-86.1875
1773080580.8587465,-2.745834139099625e-06,0.9840934407958352,-7.4970323394688325,-0.16316826401396292,-1.287341139451681,9.781585180797977,0.0010945125803595798,-0.0032712627793946665,0.0,-5.888570037852443,12.055881309937755,-86.1875
1773080580.8845923,-2.745834139099625e-06,0.9840934407958352,-7.4970323394688325,-0.16316826401396292,-1.287341139451681,9.781585180797977,0.0010945125803595798,-0.0032712627793946665,0.0,-5.888570037852443,12.055881309937755,-86.1875
1773080580.919087,-2.745834139099625e-06,0.9840934407958352,-7.4970323394688325,-0.1582777182563705,-1.288286747887259,9.781054920113425,-0.0021828876798771235,0.0010883750995175434,0.002181661564992912,-5.074874936326939,10.994296277190307,-85.375
1773080580.9391189,-2.745834139099625e-06,0.9840934407958352,-7.4970323394688325,-0.16171333386449901,-1.288923568150048,9.777356925843934,-0.0010920575880227653,0.0010896025956859507,0.0,-5.074874936326939,10.994296277190307,-85.375
1773080580.9573834,-2.745834139099625e-06,0.9840934407958352,-7.4970323394688325,-0.16400346187939244,-1.28600225533177,9.774895951966892,-0.0010896025956859507,-0.0010920575880227653,0.0,-5.074874936326939,10.994296277190307,-85.375
1773080581.0015213,-2.745834139099625e-06,0.9840934407958352,-7.4970323394688325,-0.1655275164908979,-1.2840581542844085,9.7732582013426,-3.682488505221812e-06,0.003272490275563074,-0.001090830782496456,-5.075296918425848,11.369296039765043,-86.1875
1773080581.0741866,-2.745834139099625e-06,0.9840934407958352,-7.4970323394688325,-0.1655275164908979,-1.2840581542844085,9.7732582013426,-3.682488505221812e-06,0.003272490275563074,-0.001090830782496456,-5.075296918425848,11.369296039765043,-86.1875
1773080581.1460009,-2.745834139099625e-06,0.9840934407958352,-7.4970323394688325,-0.16654175781004923,-1.282764376754421,9.772168296597005,-3.682488505221812e-06,0.003272490275563074,0.0,-5.075296918425848,11.369296039765043,-86.1875
1773080581.184313,-2.745834139099625e-06,0.9840934407958352,-7.4970323394688325,-0.16721672407812654,-1.2819033822606565,9.768097865456527,-2.454992336814541e-06,0.002181660183708716,0.0,-5.5127966414297065,11.368803727316315,-86.1875
1773080581.211158,-2.745834139099625e-06,0.9840934407958352,-7.4970323394688325,-0.16432079700024946,-1.2813266358369697,9.765389039002235,0.0010896025956859507,0.0010920575880227653,-0.001090830782496456,-5.5127966414297065,11.368803727316315,-86.1875
1773080581.2378109,-2.745834139099625e-06,0.9840934407958352,-7.4970323394688325,-0.16432079700024946,-1.2813266358369697,9.765389039002235,0.0010896025956859507,0.0010920575880227653,-0.001090830782496456,-5.5127966414297065,11.368803727316315,-86.1875
1773080581.2706528,-2.745834139099625e-06,0.9840934407958352,-7.4970323394688325,-0.16239358987954736,-1.280942817534686,9.763586345256478,-0.0010883750995175434,-0.002182887679877123,0.0,-4.699875173752203,10.994718259289217,-86.1875
1773080581.329041,-2.745834139099625e-06,0.9840934407958352,-7.4970323394688325,-0.16111105506903423,-1.2806873907420475,9.769076896120723,0.0021841151760455305,-0.0021792051913719014,0.001090830782496456,-4.699875173752203,10.994718259289217,-86.1875
1773080581.3486998,-2.745834139099625e-06,0.9840934407958352,-7.4970323394688325,-0.1635988878628807,-1.283866280860291,9.769385684680087,1.2274961684072706e-06,-0.001090830091854358,0.0,-5.887374421905533,10.99338198264267,-86.1875
1773080581.4050014,-2.745834139099625e-06,0.9840934407958352,-7.4970323394688325,-0.16525451279627232,-1.2859817967234526,9.769591180016949,-0.001090830091854358,-1.2274961684072706e-06,-0.001090830782496456,-5.887374421905533,10.99338198264267,-86.1875
1773080581.4655597,-2.745834139099625e-06,0.9840934407958352,-7.4970323394688325,-0.1670895482195289,-1.2883265587942985,9.783199390523164,-3.682488505221812e-06,0.003272490275563074,0.001090830782496456,-5.075718900524757,11.744295802339778,-86.0625
1773080581.5305386,-2.745834139099625e-06,0.9840934407958352,-7.4970323394688325,-0.1675775082703905,-1.2889500618639655,9.79216449377559,-0.0010883750995175434,-0.002182887679877123,-0.002181661564992912,-5.512374659330797,10.993803964741579,-85.25
1773080581.5845802,-2.745834139099625e-06,0.9840934407958352,-7.4970323394688325,-0.16790224023336803,-1.2893649961918432,9.794785558135995,1.2274961684072706e-06,-0.001090830091854358,0.0,-5.512374659330797,10.993803964741579,-85.25
1773080581.6024554,-2.745834139099625e-06,0.9840934407958352,-7.4970323394688325,-0.16790224023336803,-1.2893649961918432,9.794785558135995,1.2274961684072706e-06,-0.001090830091854358,0.0,-5.512374659330797,10.993803964741579,-85.25
1773080581.6264598,-2.745834139099625e-06,0.9840934407958352,-7.4970323394688325,-0.16811834572723586,-1.2896411303519257,9.786494512066678,-0.0021828876798771235,0.0010883750995175434,-0.001090830782496456,-4.012375609031854,10.995491893137217,-85.25
1773080581.643458,-2.745834139099625e-06,0.9840934407958352,-7.4970323394688325,-0.16811834572723586,-1.2896411303519257,9.786494512066678,-0.0021828876798771235,0.0010883750995175434,-0.001090830782496456,-4.012375609031854,10.995491893137217,-85.25
1773080581.66371,-2.745834139099625e-06,0.9840934407958352,-7.4970323394688325,-0.16826592572537322,-1.2864797849614247,9.784322025231921,2.454992336814541e-06,-0.002181660183708716,0.0,-4.012375609031854,10.995491893137217,-85.25
1773080581.7011912,-2.745834139099625e-06,0.9840934407958352,-7.4970323394688325,-0.16836413856555707,-1.284375944918588,9.779531147804338,0.0010896025956859507,0.0010920575880227653,0.002181661564992912,-5.888570037852443,12.055881309937755,-85.0
1773080581.7168992,-2.745834139099625e-06,0.9840934407958352,-7.4970323394688325,-0.16508438852417484,-1.2829720986654887,9.77634287239389,-0.0010920575880227653,0.0010896025956859507,-0.001090830782496456,-5.888570037852443,12.055881309937755,-85.0
1773080581.7513492,-2.745834139099625e-06,0.9840934407958352,-7.4970323394688325,-0.16290175150884345,-1.2820378546660411,9.774221110723607,-0.0010932850841911725,0.0021804326875403085,0.0,-5.888570037852443,12.055881309937755,-85.0
1773080581.7654397,-2.745834139099625e-06,0.9840934407958352,-7.4970323394688325,-0.16290175150884345,-1.2820378546660411,9.774221110723607,-0.0010932850841911725,0.0021804326875403085,0.0,-5.888570037852443,12.055881309937755,-85.0
1773080581.8030078,-2.745834139099625e-06,0.9840934407958352,-7.4970323394688325,-0.16144546675076854,-1.2847612353100133,9.776154213740984,-0.0021828876798771235,0.0010883750995175434,0.0,-4.699875173752203,10.994718259289217,-86.1875
1773080581.8232334,-2.745834139099625e-06,0.9840934407958352,-7.4970323394688325,-0.16382143510145164,-1.2865773789124466,9.780785783912192,-0.0021804326875403085,-0.0010932850841911725,0.001090830782496456,-4.699875173752203,10.994718259289217,-86.1875
1773080581.8471367,-2.745834139099625e-06,0.9840934407958352,-7.4970323394688325,-0.1620575059081104,-1.2877822379861878,9.780522930415781,-0.0010920575880227653,0.0010896025956859507,-0.001090830782496456,-5.512023007581706,10.681304162595966,-86.1875
1773080581.8616264,-2.745834139099625e-06,0.9840934407958352,-7.4970323394688325,-0.1620575059081104,-1.2877822379861878,9.780522930415781,-0.0010920575880227653,0.0010896025956859507,-0.001090830782496456,-5.512023007581706,10.681304162595966,-86.1875
1773080581.9024944,-2.745834139099625e-06,0.9840934407958352,-7.4970323394688325,-0.17091895950256789,-1.2885953508586794,9.783693116057506,-0.001090830091854358,-1.2274961684072706e-06,0.001090830782496456,-5.512023007581706,10.681304162595966,-86.1875
1773080581.931247,-2.745834139099625e-06,0.9840934407958352,-7.4970323394688325,-0.17347481249736627,-1.2857875945968167,9.785802839188781,-1.2274961684072706e-06,0.001090830091854358,-0.001090830782496456,-4.38737537160659,10.995069911038307,-86.5625
1773080581.948997,-2.745834139099625e-06,0.9840934407958352,-7.4970323394688325,-0.17517570411465588,-1.2839190641692393,9.787206836365492,0.0,0.0,0.002181661564992912,-4.38737537160659,10.995069911038307,-86.5625
1773080581.9708176,-2.745834139099625e-06,0.9840934407958352,-7.4970323394688325,-0.17517570411465588,-1.2839190641692393,9.787206836365492,0.0,0.0,0.002181661564992912,-4.38737537160659,10.995069911038307,-86.5625
1773080582.0016348,-2.745834139099625e-06,0.9840934407958352,-7.4970323394688325,-0.17631139269178275,-1.279330468453124,9.788141180802917,-0.0010945125803595798,0.0032712627793946665,0.0,-4.38737537160659,10.995069911038307,-86.5625
1773080582.0280008,-2.745834139099625e-06,0.9840934407958352,-7.4970323394688325,-0.1770634165473631,-1.2796219188514373,9.788762976588712,0.001090830091854358,1.2274961684072706e-06,-0.001090830782496456,-5.0760705522738485,12.05679560448539,-85.75
1773080582.0497444,-2.745834139099625e-06,0.9840934407958352,-7.4970323394688325,-0.1770634165473631,-1.2796219188514373,9.788762976588712,0.001090830091854358,1.2274961684072706e-06,-0.001090830782496456,-5.0760705522738485,12.05679560448539,-85.75
1773080582.069318,-2.745834139099625e-06,0.9840934407958352,-7.4970323394688325,-0.17756388002259493,-1.2798158758358005,9.789176774738245,-0.0010920575880227653,0.0010896025956859507,-0.002181661564992912,-5.0760705522738485,12.05679560448539,-85.75
1773080582.0877101,-2.745834139099625e-06,0.9840934407958352,-7.4970323394688325,-0.17455182328540308,-1.279941187836228,9.782761929369691,-1.2274961684072706e-06,0.001090830091854358,0.0,-4.3877973537054995,11.370069673613044,-85.75
1773080582.1304376,-2.745834139099625e-06,0.9840934407958352,-7.4970323394688325,-0.17254733317368032,-1.2800245815726854,9.778492921435438,-1.2274961684072706e-06,0.001090830091854358,-0.001090830782496456,-4.3877973537054995,11.370069673613044,-85.75
1773080582.1456373,-2.745834139099625e-06,0.9840934407958352,-7.4970323394688325,-0.17254733317368032,-1.2800245815726854,9.778492921435438,-1.2274961684072706e-06,0.001090830091854358,-0.001090830782496456,-4.3877973537054995,11.370069673613044,-85.75
1773080582.163425,-2.745834139099625e-06,0.9840934407958352,-7.4970323394688325,-0.17120960318992562,-1.2834251887621442,9.775651944343135,-1.2274961684072706e-06,0.001090830091854358,0.001090830782496456,-4.3877973537054995,11.370069673613044,-85.75
1773080582.197501,-2.745834139099625e-06,0.9840934407958352,-7.4970323394688325,-0.1669704850337197,-1.289029600242848,9.773761305824001,0.001090830091854358,1.2274961684072706e-06,-0.002181661564992912,-4.701070789699113,12.0572175865843,-85.75
1773080582.222989,-2.745834139099625e-06,0.9840934407958352,-7.4970323394688325,-0.1708396184336478,-1.2927668018899279,9.779193330423972,-0.0010920575880227653,0.0010896025956859507,0.0,-4.701070789699113,12.0572175865843,-85.75
1773080582.249105,-2.745834139099625e-06,0.9840934407958352,-7.4970323394688325,-0.17341824769627287,-1.2919087582493662,9.776118058700924,1.2274961684072706e-06,-0.001090830091854358,0.002181661564992912,-4.701070789699113,12.0572175865843,-85.75
1773080582.2719102,-2.745834139099625e-06,0.9840934407958352,-7.4970323394688325,-0.17341824769627287,-1.2919087582493662,9.776118058700924,1.2274961684072706e-06,-0.001090830091854358,0.002181661564992912,-4.701070789699113,12.0572175865843,-85.75
1773080582.3165522,-2.745834139099625e-06,0.9840934407958352,-7.4970323394688325,-0.17628257732787259,-1.285386490732716,9.77270953758354,-0.001090830091854358,-1.2274961684072706e-06,0.0,-4.699875173752203,10.994718259289217,-86.1875
1773080582.340296,-2.745834139099625e-06,0.9840934407958352,-7.4970323394688325,-0.17628257732787259,-1.285386490732716,9.77270953758354,-0.001090830091854358,-1.2274961684072706e-06,0.0,-4.699875173752203,10.994718259289217,-86.1875
1773080582.3542936,-2.745834139099625e-06,0.9840934407958352,-7.4970323394688325,-0.17369913065515433,-1.2836483698222791,9.771803166994328,0.0,0.0,0.001090830782496456,-4.699875173752203,10.994718259289217,-86.1875
1773080582.3735952,-2.745834139099625e-06,0.9840934407958352,-7.4970323394688325,-0.17532122113684093,-1.2858405435679066,9.77789021090667,1.2274961684072706e-06,-0.001090830091854358,0.0,-5.075718900524757,11.744295802339778,-85.375
1773080582.4064276,-2.745834139099625e-06,0.9840934407958352,-7.4970323394688325,-0.17305559464305012,-1.2872956465014114,9.778595958926276,-0.0010920575880227653,0.0010896025956859507,0.0,-5.075718900524757,11.744295802339778,-85.375
1773080582.4251919,-2.745834139099625e-06,0.9840934407958352,-7.4970323394688325,-0.17305559464305012,-1.2872956465014114,9.778595958926276,-0.0010920575880227653,0.0010896025956859507,0.0,-5.075718900524757,11.744295802339778,-85.375
1773080582.4445775,-2.745834139099625e-06,0.9840934407958352,-7.4970323394688325,-0.1715478455201386,-1.288264001249094,9.779065626349603,1.2274961684072706e-06,-0.001090830091854358,0.0,-5.075718900524757,11.744295802339778,-85.375
1773080582.4655561,-2.745834139099625e-06,0.9840934407958352,-7.4970323394688325,-0.16719934573208695,-1.2889046663104207,9.779378184773298,-0.0010932850841911725,0.0021804326875403085,-0.001090830782496456,-4.3877973537054995,11.370069673613044,-85.25
1773080582.4937913,-2.745834139099625e-06,0.9840934407958352,-7.4970323394688325,-0.16430546769906407,-1.289331021752036,9.77624107720544,0.0,0.0,0.001090830782496456,-4.3877973537054995,11.370069673613044,-85.25
1773080582.5255284,-2.745834139099625e-06,0.9840934407958352,-7.4970323394688325,-0.16237585998879817,-1.2929598661251438,9.784188702284778,3.682488505221812e-06,-0.003272490275563074,0.0,-5.075296918425848,11.369296039765043,-85.0
1773080582.5569863,-2.745834139099625e-06,0.9840934407958352,-7.4970323394688325,-0.16109172761274668,-1.2953748215185994,9.77944242287233,-0.0010920575880227653,0.0010896025956859507,0.001090830782496456,-5.075296918425848,11.369296039765043,-85.0
1773080582.610827,-2.745834139099625e-06,0.9840934407958352,-7.4970323394688325,-0.16109172761274668,-1.2953748215185994,9.77944242287233,-0.0010920575880227653,0.0010896025956859507,0.001090830782496456,-5.075296918425848,11.369296039765043,-85.0
1773080582.6717844,0.006312519826821626,0.9984783086702387,-7.468611192532906,-0.2186271983821829,-1.4174111168961483,9.677220857095255,-0.013067866171220965,-0.01964967160739933,0.031634092692397225,-4.7007191379500215,11.744717784438688,-85.25
1773080582.7117853,0.014203579523695484,0.9849761701207738,-7.46853650933638,-0.2552652449601351,-1.4919934562376846,9.63800917095412,-0.002171840214361458,-0.008729095727171678,-0.002181661564992912,-4.7007191379500215,11.744717784438688,-85.25
1773080582.7411966,-0.006736024073671912,0.9836095794828955,-7.468715651694011,-0.27630611030057484,-1.5382782961347168,9.618604455265068,0.0032700352832262594,0.0021853426722139376,-0.015271630954950384,-4.7007191379500215,11.744717784438688,-85.0
1773080582.765804,0.015173701407429588,0.971025340629822,-7.461542781220097,-0.26702455122773566,-1.4519751549789426,9.672593067885268,0.0011055600458752452,-0.013088733606083888,-0.007635815477475192,-4.7007191379500215,11.744717784438688,-85.0
1773080582.8547704,0.007283452826626844,0.9845280437581058,-7.4616163826393125,-0.23074179104183187,-1.394507500754806,9.708521886491692,0.003263897802384223,0.0076394931314857275,-0.001090830782496456,-5.513570275277707,12.056303292036663,-86.5625
1773080582.8777459,0.007283452826626844,0.9845280437581058,-7.4616163826393125,-0.23074179104183187,-1.394507500754806,9.708521886491692,0.003263897802384223,0.0076394931314857275,-0.001090830782496456,-5.513570275277707,12.056303292036663,-86.5625
1773080582.9167435,-0.013656312943196402,0.9831627012468483,-7.461795362824489,-0.17983137852175363,-1.3595784147656196,9.722396778801109,0.0054504679707665675,0.00327862775640511,-0.015271630954950384,-5.513570275277707,12.056303292036663,-86.5625
1773080582.94267,-0.013656312943196402,0.9831627012468483,-7.461795362824489,-0.17983137852175363,-1.3595784147656196,9.722396778801109,0.0054504679707665675,0.00327862775640511,-0.015271630954950384,-5.513570275277707,12.056303292036663,-86.5625
1773080582.987598,0.014502582978733516,0.9850109641358215,-7.433636466902555,-0.145936010872113,-1.3497139365809334,9.718249917811045,0.006537615574115704,0.006552345528136591,0.00545415391248228,-5.887796404004442,11.368381745217405,-86.5625
1773080583.0255737,0.0494033325486881,0.9872778859194346,-7.4333367563113875,-0.17018420714698304,-1.3666177025527224,9.715490228145631,-0.0087327782156769,0.005444330489924531,0.014180800172453928,-5.887796404004442,11.368381745217405,-86.5625
1773080583.0512154,0.0494033325486881,0.9872778859194346,-7.4333367563113875,-0.17018420714698304,-1.3666177025527224,9.715490228145631,-0.0087327782156769,0.005444330489924531,0.014180800172453928,-5.887796404004442,11.368381745217405,-86.5625
1773080583.1076324,-0.006497488840342725,0.9836425090845692,-7.440795745251091,-0.1863474603399828,-1.3544512028536022,9.72368902062301,-0.0076382656353173204,0.002173067710529865,-0.031634092692397225,-4.388219335804409,11.745069436187778,-86.5625
1773080583.130307,-0.005707239356744586,0.9696681477800808,-7.454739452881148,-0.19712274581468003,-1.3296289852654684,9.772631677625343,-0.008718048261656014,-0.007645630612327764,-0.003272492347489368,-4.388219335804409,11.745069436187778,-86.5625
1773080583.1493192,-0.006068101412990416,0.9696780636690967,-7.497075554332182,-0.17753270121494302,-1.3130799630947045,9.808547580842413,-0.023992124539953835,-0.005481155374976749,-0.00545415391248228,-5.887374421905533,10.99338198264267,-85.75
1773080583.180102,0.0006177638503689314,0.970096548445696,-7.53191631230948,-0.15779799777807452,-1.3087494644715327,9.829104101519128,-0.01418201869027506,0.0010748726416650635,0.014180800172453928,-5.887374421905533,10.99338198264267,-85.75
1773080583.2096505,0.0006177638503689314,0.970096548445696,-7.53191631230948,-0.15779799777807452,-1.3087494644715327,9.829104101519128,-0.01418201869027506,0.0010748726416650635,0.014180800172453928,-5.887374421905533,10.99338198264267,-85.75
1773080583.2388372,0.05281647896778774,0.9174553967440515,-7.573343723420745,-0.14466477309192052,-1.305867566012651,9.84612934810542,-0.013054363713368485,-0.03164880261779727,0.013089969389957472,2043.2984061856391,13.674302924707264,-85.75
1773080583.2757287,0.22419579444038817,0.753759760550287,-7.6773458374155465,-0.12259325509168006,-1.2604482132946817,9.900945911719282,-0.09692553116931331,-0.1408263290082004,0.11780972450961724,2043.2984061856391,13.674302924707264,-85.75
1773080583.3225596,0.9755291937077726,0.10577561030195762,-7.999969657590917,-0.12128534477519232,-1.2302371982523868,10.051159520512028,-0.13495851234017536,-0.27067807230476326,0.27052603405912107,-5.887796404004442,11.368381745217405,-85.375
1773080583.3385735,0.9755291937077726,0.10577561030195762,-7.999969657590917,-0.12128534477519232,-1.2302371982523868,10.051159520512028,-0.13495851234017536,-0.27067807230476326,0.27052603405912107,-5.887796404004442,11.368381745217405,-85.375
1773080583.3647141,1.5828848579493235,-0.2489646324346238,-8.186991389061358,-0.12038106721566108,-1.240238091525628,10.151124999167644,-0.08697671825260452,-0.25753410137110105,0.3687008044838021,-5.887796404004442,11.368381745217405,-85.375
1773080583.4153366,3.7128792166726767,-0.8306289165758325,-8.719206359204001,-0.11920568475718973,-1.4051623048657178,10.103678490526528,-0.14593309805181295,-0.211785522306312,0.5835944686356039,-6.201843473846056,12.743029222909012,-84.5625
1773080583.432889,3.7128792166726767,-0.8306289165758325,-8.719206359204001,-0.11920568475718973,-1.4051623048657178,10.103678490526528,-0.14593309805181295,-0.211785522306312,0.5835944686356039,-6.201843473846056,12.743029222909012,-84.5625
1773080583.454403,4.821399218545638,-0.8849436511484621,-8.936180194882596,-0.11884650846400861,-1.4904531795119367,9.9519179675246,-0.11765989538772496,-0.13321384079241963,0.6512259771503842,-6.201843473846056,12.743029222909012,-84.5625
1773080583.4811325,5.6193939538120965,-0.8298832905143383,-9.083118926435896,-0.11860748065315865,-1.5472133038274978,9.850923034742939,-0.11007441208764916,-0.08848121455321212,0.7068583470577035,-8.017718183081886,15.74098774336217,-81.375
1773080583.5100358,7.404731642345907,-0.5384155029742344,-9.345300712780379,-0.11512965016791268,-1.5615670011754381,9.75695114150551,-0.08512279954586054,0.03371998814634933,0.8639379797371931,-8.017718183081886,15.74098774336217,-81.375
1773080583.5270708,7.404731642345907,-0.5384155029742344,-9.345300712780379,-0.11512965016791268,-1.5615670011754381,9.75695114150551,-0.08512279954586054,0.03371998814634933,0.8639379797371931,-8.017718183081886,15.74098774336217,-81.375
1773080583.5595381,9.953007263836358,0.14836450749844435,-9.510367656337706,-0.1128302496539932,-1.5577387880615259,9.667653002632274,-0.063377392486541,0.09701268339727023,0.9413869652944415,-8.019406111477524,17.240986793661115,-81.75
1773080583.5778906,9.953007263836358,0.14836450749844435,-9.510367656337706,-0.1128302496539932,-1.5577387880615259,9.667653002632274,-0.063377392486541,0.09701268339727023,0.9413869652944415,-8.019406111477524,17.240986793661115,-81.75
1773080583.6061938,12.385846200828043,0.8312075267757802,-9.510003179301806,-0.11130002429796654,-1.5551911549981596,9.584810306786473,-0.008873940275043736,0.13088979105317566,1.1595531217937327,-8.019406111477524,17.240986793661115,-81.75
1773080583.6577609,15.059475062643429,1.5097431657778586,-9.51372102633268,-0.12366211477492924,-1.5535107904775152,9.52967941811464,-0.02521061423332255,0.10796394668170806,1.2446379228284563,-9.209718573623583,19.73964893417947,-81.0
1773080583.6797574,15.059475062643429,1.5097431657778586,-9.51372102633268,-0.12366211477492924,-1.5535107904775152,9.52967941811464,-0.02521061423332255,0.10796394668170806,1.2446379228284563,-9.209718573623583,19.73964893417947,-81.0
1773080583.7125351,19.222282860973035,2.2572068403178123,-9.641784915709911,-0.09834374684897329,-1.6359826243350615,9.492990427555913,-0.09162359023492403,-0.005557260137418,1.2904528156933075,-9.209718573623583,19.73964893417947,-81.0
1773080583.731017,21.361644184170807,2.4453798717072597,-9.75435183739422,-0.11829086130251916,-1.6909081147627838,9.508715654669793,-0.09044438041894434,-0.08409579925476336,1.2871803233458181,-10.21189818133391,21.676022421885182,-81.75
1773080583.74433,22.744041707980617,2.502750659656417,-9.850700401055844,-0.15823597891821,-1.8077731588786694,9.579392628383532,-0.1525149034879913,-0.1790679845276917,1.2370021073509812,-10.21189818133391,21.676022421885182,-81.75
1773080583.7605479,22.744041707980617,2.502750659656417,-9.850700401055844,-0.15823597891821,-1.8077731588786694,9.579392628383532,-0.1525149034879913,-0.1790679845276917,1.2370021073509812,-10.21189818133391,21.676022421885182,-81.75
1773080583.7851458,24.150036670660647,2.506189282338243,-9.97392537919017,-0.18478889482705185,-1.9123064169850328,9.636462699998456,-0.16118753439141625,-0.22707432853863074,1.2522737383059315,-10.21189818133391,21.676022421885182,-81.75
1773080583.8162565,27.826967244542285,2.409479107186092,-10.338080003648933,-0.1957693445700497,-1.981864604129763,9.697857977094952,-0.18295871887027235,-0.26745959186061014,1.315541923690726,-11.026859229156141,23.86260674235684,-81.75
1773080583.8457022,30.041331650399297,2.3982869971956307,-10.58588541523063,-0.2030880038324289,-2.018119471890472,9.738715848172486,-0.19936290511781357,-0.23038978118008804,1.296997800388286,-11.026859229156141,23.86260674235684,-81.75
1773080583.8736217,31.513077392362845,2.4261271714925297,-10.687407842400022,-0.1979758599328643,-1.9954038545219261,9.765906304962261,-0.13392782956057298,-0.21722617030773134,1.31117860056074,-11.026859229156141,23.86260674235684,-81.75
1773080583.9150572,34.49248222873391,2.5502673708291708,-10.741709919480126,-0.15118146576231695,-1.896610190499525,9.753895244852677,-0.06305333349808148,-0.19096646085228025,1.3308135546456763,-13.220195263210345,29.04764189573038,-80.5625
1773080583.9500265,34.49248222873391,2.5502673708291708,-10.741709919480126,-0.15118146576231695,-1.896610190499525,9.753895244852677,-0.06305333349808148,-0.19096646085228025,1.3308135546456763,-13.220195263210345,29.04764189573038,-80.5625
1773080583.9837873,38.430419551037794,2.7357821640052635,-10.741941841599761,-0.1200403191694512,-1.8308641106901546,9.74590201852208,-0.07285607437074983,-0.20406746942004822,1.4333516482003432,-13.220195263210345,29.04764189573038,-80.5625
1773080584.003354,41.60538677203119,2.8183678124016502,-10.7891017516285,-0.12935070037156432,-1.8507017890619675,9.677025493250191,-0.07828076492197983,-0.23025352910539484,1.3908092476829814,-14.723499839950744,31.983452107503503,-81.0
1773080584.0174434,43.1635952667994,2.856740648645484,-10.800286391160231,-0.17563903545245774,-1.9074351375517191,9.584357371180477,-0.0826502227702393,-0.22480428863079668,1.3842642629880026,-14.723499839950744,31.983452107503503,-81.0
1773080584.0396647,43.1635952667994,2.856740648645484,-10.800286391160231,-0.17563903545245774,-1.9074351375517191,9.584357371180477,-0.0826502227702393,-0.22480428863079668,1.3842642629880026,-14.723499839950744,31.983452107503503,-81.0
1773080584.0597456,45.46313526131938,2.964988155164698,-10.809298273282907,-0.20643587696215945,-1.9518807663974518,9.495926877455279,-0.07286098435542346,-0.19970414905263076,1.3679018012505557,-14.723499839950744,31.983452107503503,-81.0
1773080584.0903728,48.46868571636292,3.2398181920294005,-10.778335766689876,-0.2135503926059437,-1.9814437790799813,9.4370773717145,-0.03588691837603716,-0.09821521564044965,1.3646293089030663,-15.791344273832012,36.73225348416992,-81.75
1773080584.1179447,48.46868571636292,3.2398181920294005,-10.778335766689876,-0.2135503926059437,-1.9814437790799813,9.4370773717145,-0.03588691837603716,-0.09821521564044965,1.3646293089030663,-15.791344273832012,36.73225348416992,-81.75
1773080584.1366627,51.58163755339464,3.71480641030055,-10.646323362427452,-0.20489329231679906,-2.011137905723861,9.4213294649873,-0.010899708445364729,-0.007648085604664579,1.4508049407202865,-15.791344273832012,36.73225348416992,-81.75
1773080584.150869,51.58163755339464,3.71480641030055,-10.646323362427452,-0.20489329231679906,-2.011137905723861,9.4213294649873,-0.010899708445364729,-0.007648085604664579,1.4508049407202865,-15.791344273832012,36.73225348416992,-81.75
1773080584.1910965,54.732116687603856,4.272868078798942,-10.49105380073667,-0.19912456036847018,-2.0375892344790647,9.440955414341868,-0.01094880829210102,0.03598511806950974,1.4420782944603148,-15.42021268049728,40.17017328987057,-80.1875
1773080584.227482,57.74209503349679,4.790226637317688,-10.323070263622991,-0.19528553369781548,-2.05519229828495,9.494157604888946,-0.006603900367209697,0.052352479431998736,1.3548118318605984,-15.42021268049728,40.17017328987057,-80.1875
1773080584.2535803,57.74209503349679,4.790226637317688,-10.323070263622991,-0.19528553369781548,-2.05519229828495,9.494157604888946,-0.006603900367209697,0.052352479431998736,1.3548118318605984,-15.42021268049728,40.17017328987057,-80.1875
1773080584.2750273,-120.16105962840251,-6.032210858914012,-3.3214612115158615,-0.28674601465387695,-2.218650506063707,9.549779897138718,-0.021881659134012743,0.05778944494491282,1.0581058590215622,-15.048448114014182,43.04559345170912,-82.1875
1773080584.3455734,65.64019185414712,6.100280801224226,-10.192329198764767,-0.34040762119470264,-2.3196241336391057,9.563233970833805,-0.04474121871238638,0.015221293943056312,0.980656873464314,-12.115099464484693,46.73639664346881,-82.1875
1773080584.3640497,67.13866773663042,6.153530029319775,-10.308745765322206,-0.3594422076394474,-2.343315709148684,9.639089740732421,-0.052391759309387775,0.028302662572129756,0.9032078879070655,-12.115099464484693,46.73639664346881,-82.1875
1773080584.4013407,68.55482237894236,6.231606986631012,-10.359554842696134,-0.3721697395845608,-2.3055604345674237,9.6929160199428,-0.06220432015140336,0.023928294739196658,0.8715737952146683,-12.115099464484693,46.73639664346881,-82.1875
1773080584.415239,68.55482237894236,6.231606986631012,-10.359554842696134,-0.3721697395845608,-2.3055604345674237,9.6929160199428,-0.06220432015140336,0.023928294739196658,0.8715737952146683,-12.115099464484693,46.73639664346881,-82.1875
1773080584.4486873,70.83998947734818,6.295053823975204,-10.360816904285745,-0.39409925660237044,-2.210202476534025,9.748807477722286,-0.06433442549603897,-0.021889024111023187,0.8246680715673207,-10.618405940627206,49.67558271203321,-82.5625
1773080584.469762,70.83998947734818,6.295053823975204,-10.360816904285745,-0.39409925660237044,-2.210202476534025,9.748807477722286,-0.06433442549603897,-0.021889024111023187,0.8246680715673207,-10.618405940627206,49.67558271203321,-82.5625
1773080584.5178025,72.28534829523193,6.234338991669412,-10.375940900096445,-0.4321201649529485,-2.1367338413549137,9.826143959013875,-0.10240054906344803,-0.12228835492751837,0.8573929950422144,-10.618405940627206,49.67558271203321,-82.5625
1773080584.5454843,74.97038217119166,6.08117627113215,-10.484302923951427,-0.4809061775732384,-2.0276556621743436,9.877610523408325,-0.13829360492032725,-0.21504942010869624,0.9533861039019025,-8.809282944973925,52.67762039277582,-81.75
1773080584.5743434,76.65777333882998,6.022917466662401,-10.498766610005932,-0.5234607516491666,-1.908245110779035,9.848303824654568,-0.12298270375697717,-0.249938798101678,0.9850201965942997,-8.809282944973925,52.67762039277582,-81.75
1773080584.6127596,78.77176439676538,5.868865063370207,-10.350598598796855,-0.5451202398003258,-1.8020103176013451,9.82880054401122,-0.052115572671496135,-0.21713410809510078,0.8377580409572782,-8.810056578821925,53.36511995749617,-81.25
1773080584.629473,80.00272102471895,5.822634870138552,-10.19841279248024,-0.6097110310538156,-1.7313687125523631,9.889413786170017,0.035083322387590106,-0.1570402533496385,0.7210391472301574,-8.810056578821925,53.36511995749617,-81.25
1773080584.6462793,80.00272102471895,5.822634870138552,-10.19841279248024,-0.6097110310538156,-1.7313687125523631,9.889413786170017,0.035083322387590106,-0.1570402533496385,0.7210391472301574,-8.810056578821925,53.36511995749617,-81.25
1773080584.6696723,80.92316618047784,5.841734251736603,-10.121343439745742,-0.6526051401620004,-1.7646401436566665,9.929751221732417,-0.016259341699669156,-0.09164814015829217,0.5421428989007386,-8.810056578821925,53.36511995749617,-81.25
1773080584.6991773,81.54988312298664,5.882319981818697,-10.083078944517064,-0.6811318695847783,-1.803507457337419,9.856241983280933,0.009850613223236217,-0.029441365014551996,0.36760997370130566,-8.436744744642827,54.86554098989402,-80.5625
1773080584.73331,82.16393834893046,5.908447299307084,-10.019743452499998,-0.7268581450363876,-1.8461288820108932,9.807322406243468,-0.0075818008115705856,-0.048005116514770595,0.35997415822383044,-8.436744744642827,54.86554098989402,-80.5625
1773080584.773762,82.81086864607546,5.863921196405869,-9.924835580960847,-0.7572884705534678,-1.8744929640185803,9.764731639070558,0.060033707433210313,-0.03374822055822269,0.22689280275926285,-8.437659039190462,55.67804047547262,-80.5625
1773080584.8331916,83.04903845123293,5.731993718153714,-9.793240285838511,-0.7775395122560756,-1.8933689437471393,9.736387959287029,0.05681031700438353,-0.07738510672090224,0.08726646259971647,-8.437659039190462,55.67804047547262,-80.5625
1773080584.8530612,83.31917534781277,5.550167015621079,-9.791600608835923,-0.7476165063663768,-1.8289442421631101,9.65731354627899,-0.015169739103983207,-0.09055608257026941,0.12326387842209953,-8.063432910463728,56.365962022291875,-79.375
1773080584.868186,83.31917534781277,5.550167015621079,-9.791600608835923,-0.7476165063663768,-1.8289442421631101,9.65731354627899,-0.015169739103983207,-0.09055608257026941,0.12326387842209953,-8.063432910463728,56.365962022291875,-79.375
1773080584.9152067,83.63836406841237,5.443881438621057,-9.763518865761991,-0.7277520148869836,-1.7425838982676112,9.604690407741213,-0.007559705880539254,-0.06764005816814904,0.1341721862470641,-8.063432910463728,56.365962022291875,-79.375
1773080584.9456537,84.1383044248702,5.321920574658169,-9.536580154767025,-0.8004134830921958,-1.6759114908014396,9.681359169791927,0.04374122333699416,-0.0959439482364472,0.22471114119426994,-9.251283810366148,56.67712554779094,-79.0
1773080584.9747386,84.1383044248702,5.321920574658169,-9.536580154767025,-0.8004134830921958,-1.6759114908014396,9.681359169791927,0.04374122333699416,-0.0959439482364472,0.22471114119426994,-9.251283810366148,56.67712554779094,-79.0
1773080585.0320232,84.81944119601575,5.124210866465945,-9.278180638826658,-0.8196605709865795,-1.724434042962069,9.677559400606286,0.09170828747054413,-0.0697100162005327,0.16689710972195776,-9.250510176518148,55.989625983070596,-79.375
1773080585.0472257,84.81944119601575,5.124210866465945,-9.278180638826658,-0.8196605709865795,-1.724434042962069,9.677559400606286,0.09170828747054413,-0.0697100162005327,0.16689710972195776,-9.250510176518148,55.989625983070596,-79.375
1773080585.076666,85.30341075176429,4.982274879432817,-9.060145293553,-0.758820418918722,-1.806819090701226,9.795454718122944,0.05356114915602019,-0.09811456095464026,0.16580627893946132,-9.250510176518148,55.989625983070596,-79.375
1773080585.1569576,86.25899084115926,4.662484422014569,-8.934158334090172,-0.7137175128535616,-1.858015491048438,9.799153263758445,0.012017543452924044,-0.016348948919962886,0.19198621771937624,-11.438008791537438,55.98716442082696,-79.75
1773080585.1834056,86.25899084115926,4.662484422014569,-8.934158334090172,-0.7137175128535616,-1.858015491048438,9.799153263758445,0.012017543452924044,-0.016348948919962886,0.19198621771937624,-11.438008791537438,55.98716442082696,-79.75
1773080585.2135854,86.5288629855508,4.734708916614059,-8.875636691481022,-0.7218127635591536,-1.8556123791874217,9.79274628307527,0.05997110512862154,0.021884114126349555,0.2454369260617026,-11.438008791537438,55.98716442082696,-79.75
1773080585.2738485,87.13432160927381,4.898768319709646,-8.709722617029344,-0.7272000624738494,-1.8540131350884337,9.78848250900128,0.08285644212653172,0.04154483319926455,0.2923426497090502,-11.063782662810704,56.67508596764622,-80.1875
1773080585.3472798,88.38166001727885,4.904033868107969,-8.222842124834683,-0.7141048722467299,-1.812788719902176,9.785645014984517,0.09272178530378883,-0.00098649291753974,0.13308135546456762,-10.252619453878657,57.86349951034718,-79.75
1773080585.381308,88.6152829975342,4.822314769032965,-8.121864535959618,-0.6652714395966075,-1.765238504093822,9.793792029535206,0.09162113524258722,0.007738920321126716,0.15271630954950383,-10.252619453878657,57.86349951034718,-79.75
1773080585.417133,88.97123099350293,4.6489739657898665,-8.094299339194363,-0.6193928973154755,-1.7335793098199777,9.81259422353985,0.06657377799966281,-0.02937753521379482,0.11453723216212788,-8.438432673038463,56.36554004019297,-79.75
1773080585.4498756,88.97123099350293,4.6489739657898665,-8.094299339194363,-0.6193928973154755,-1.7335793098199777,9.81259422353985,0.06657377799966281,-0.02937753521379482,0.11453723216212788,-8.438432673038463,56.36554004019297,-79.75
1773080585.5496056,89.1382877640693,4.288452565858228,-8.15830796374733,-0.558755253619542,-1.7124765918328824,9.825106873615672,0.006653000213945988,-0.09598568310617304,0.02399827721492203,-8.438432673038463,56.36554004019297,-79.75
1773080585.5843515,89.48576912383523,3.384924711818942,-8.321938497335527,-0.5016986163958344,-1.67834349017866,9.810018120514435,-0.040228143812423255,-0.11785506727850172,0.08290313946973066,-8.438432673038463,56.36554004019297,-79.75
1773080585.618187,89.48576912383523,3.384924711818942,-8.321938497335527,-0.5016986163958344,-1.67834349017866,9.810018120514435,-0.040228143812423255,-0.11785506727850172,0.08290313946973066,-8.438432673038463,56.36554004019297,-79.75
1773080585.65007,89.73754185727232,3.204710250222738,-8.303399048025355,-0.4136342303791752,-1.5819794182619935,9.749800048268188,-0.002114147894446316,-0.0599981100443265,0.1439896632895322,-8.438432673038463,56.36554004019297,-79.75
1773080585.6834373,89.73754185727232,3.204710250222738,-8.303399048025355,-0.4136342303791752,-1.5819794182619935,9.749800048268188,-0.002114147894446316,-0.0599981100443265,0.1439896632895322,-8.438432673038463,56.36554004019297,-79.75
1773080585.7449257,90.81082529109717,3.157639595604427,-8.179566765842205,-0.37623878925100696,-1.4752406854174556,9.677485245944892,0.048032121430475555,-0.03158006283236646,0.04363323129985824,-9.252198104913786,57.48962503336954,-79.75
1773080585.7736013,90.81082529109717,3.157639595604427,-8.179566765842205,-0.37623878925100696,-1.4752406854174556,9.677485245944892,0.048032121430475555,-0.03158006283236646,0.04363323129985824,-9.252198104913786,57.48962503336954,-79.75
1773080585.795952,91.01643179507676,3.0255924504673923,-7.882421639345712,-0.40034048359178803,-1.490382243489322,9.658255789024054,0.08187117670516039,-0.052267782196378634,0.050178215994836975,-9.251283810366148,56.67712554779094,-79.375
1773080585.8305378,91.06047145640737,2.882809486858236,-7.6985225416414425,-0.4064085546761887,-1.443580625605728,9.668874582201578,0.07861832636829183,-0.06972474615455358,0.008726646259971648,-9.251283810366148,56.67712554779094,-79.375
1773080585.8585818,91.0376403838084,2.8109104174872095,-7.610196082789366,-0.46728353756992264,-1.4392595399302694,9.675941270441529,0.07751767630709021,-0.060999332915887126,-0.03599741582238305,-9.565119889158309,57.86427314419518,-79.375
1773080585.8822527,90.98962981121431,2.6728798803013927,-7.508174567638846,-0.44429077535304495,-1.3894808515166541,9.687334295939776,0.0688155854956235,-0.08282575472232155,-0.038179077387375956,-9.565119889158309,57.86427314419518,-79.375
1773080585.919354,90.91982646265448,2.399955385254945,-7.432214289955727,-0.4289366500593474,-1.4031852246935919,9.721677120798981,0.02085588633908397,-0.1156046673093622,-0.030543261909900768,-9.565119889158309,57.86427314419518,-79.375
1773080585.9513974,90.91982646265448,2.399955385254945,-7.432214289955727,-0.4289366500593474,-1.4031852246935919,9.721677120798981,0.02085588633908397,-0.1156046673093622,-0.030543261909900768,-9.565119889158309,57.86427314419518,-79.375
1773080585.9978456,90.15683187420625,1.9580634651763886,-7.056367323161642,-0.35850724839641956,-1.3202818394289553,9.788728506915099,0.07859745893342891,-0.051180634593029496,-0.17562375598192942,-11.064204644909614,57.05008573022095,-79.75
1773080586.042784,90.15683187420625,1.9580634651763886,-7.056367323161642,-0.35850724839641956,-1.3202818394289553,9.788728506915099,0.07859745893342891,-0.051180634593029496,-0.17562375598192942,-11.064204644909614,57.05008573022095,-79.75
1773080586.0729566,89.90113784390095,1.8481091051833882,-7.045465286851176,-0.2715480823363873,-1.3101895947202813,9.815914729214063,-0.009753641025932042,-0.05673421224194228,-0.16253378659197193,-11.751704209629963,57.04931209637295,-80.1875
1773080586.1065066,89.77045447688093,1.7955393788174756,-7.052679037790296,-0.1801099424400442,-1.4071340738160445,9.797210627683507,-0.00761126071961236,-0.021825194310266006,-0.08072147790473774,-11.751704209629963,57.04931209637295,-80.1875
1773080586.1442497,89.61304350818749,1.77592510333765,-7.055068455315448,-0.1192588817699776,-1.4716495417134858,9.76803769851683,-0.003277400260236703,0.00435963787891221,-0.0719948316447661,-11.438430773636348,56.362164183401696,-80.5625
1773080586.1816092,89.61304350818749,1.77592510333765,-7.055068455315448,-0.1192588817699776,-1.4716495417134858,9.76803769851683,-0.003277400260236703,0.00435963787891221,-0.0719948316447661,-11.438430773636348,56.362164183401696,-80.5625
1773080586.2119255,89.59043757001879,1.7397533609058173,-7.059901927258816,-0.11216534186076442,-1.5581079316368833,9.748623440039378,0.007649313100832986,-0.011990538537219085,-0.026179938779914945,-11.438430773636348,56.362164183401696,-80.5625
1773080586.2406769,89.48299863425478,1.7234129477695077,-7.021955256192935,-0.13767863960080043,-1.5019451761415106,9.73904857960143,0.018545339057692494,-0.0010699626569914344,-0.014180800172453928,-11.750508593683053,55.986812769077865,-80.1875
1773080586.2919662,89.48299863425478,1.7234129477695077,-7.021955256192935,-0.18137692469363295,-1.5013958088701942,9.75274728718209,0.0032749452678998885,-0.002177977695203494,0.0,-11.750508593683053,55.986812769077865,-80.1875
1773080586.3229234,89.48932300875462,1.7039599783736854,-7.011586352241588,-0.20713512092781816,-1.4809557893454508,9.761863624052431,0.012010178475913602,-0.00980396836883674,0.002181661564992912,-11.750930575781963,56.3618125316526,-81.375
1773080586.338949,89.51057010838021,1.6855417737525222,-6.991433816825831,-0.22427691278376308,-1.4673531846817132,9.767930444403486,0.024017901959490388,-0.017426276553964767,0.018544123302439753,-11.750930575781963,56.3618125316526,-81.375
1773080586.3542023,89.52142232316021,1.6713661209666786,-6.986270037870228,-0.08187353416685225,-1.4012607867318403,9.815454297771442,0.0011067875420436525,-0.014179563697938246,0.013089969389957472,-11.750930575781963,56.3618125316526,-81.375
1773080586.4142308,89.52142232316021,1.6713661209666786,-6.986270037870228,-0.08187353416685225,-1.4012607867318403,9.815454297771442,0.0011067875420436525,-0.014179563697938246,0.013089969389957472,-11.750930575781963,56.3618125316526,-81.375
1773080586.446183,89.60411420624004,1.6811847597562823,-7.049585312198697,0.012894323552732257,-1.3572770341966605,9.84708089131159,-0.04367739353623698,0.03922078346002059,-0.038179077387375956,-11.750930575781963,56.3618125316526,-80.1875
1773080586.462923,89.52576764323946,1.6715175450358697,-7.0260049153838,0.0759612742387808,-1.3280063382152074,9.797880690166654,0.008657900949404057,0.0610963051131913,-0.04799655442984406,-11.750930575781963,56.3618125316526,-80.1875
1773080586.4806454,89.54307821643295,1.6379418186256147,-7.0006127864981105,0.027485683497285782,-1.1948949245372014,9.765138505906956,0.017499926324069204,-0.041431903551771086,0.011999138607461015,-11.750930575781963,56.3618125316526,-80.1875
1773080586.5297854,89.59315619273826,1.6260828082360819,-7.014658655045381,-0.004774280633349417,-1.1063107656864084,9.74334894803629,3.4369892715403576e-05,-0.030543242571922022,0.0272707695624114,-11.437657139788348,55.67466461868135,-81.0
1773080586.5464902,89.57706209851034,1.6399241278740464,-7.039932981220826,-0.029414882507145003,-1.2012378028402269,9.658600894824966,-0.025113642036018378,0.02178836942521379,-0.017453292519943295,-11.437657139788348,55.67466461868135,-81.0
1773080586.561485,89.56315833975756,1.6291756676080853,-7.020034689320637,-0.04915803739001294,-1.2644144498676322,9.602202012110615,0.015283896247645083,-0.010891115972185877,-0.00545415391248228,-11.437657139788348,55.67466461868135,-81.0
1773080586.608628,89.54256760776146,1.6427971186109043,-7.015452722600836,-0.07233597939334155,-1.3031239857636414,9.671712760315234,0.007621080688959618,0.013098553575431146,-0.013089969389957472,-11.438008791537438,55.98716442082696,-81.75
1773080586.6263237,89.54256760776146,1.6427971186109043,-7.015452722600836,-0.07233597939334155,-1.3031239857636414,9.671712760315234,0.007621080688959618,0.013098553575431146,-0.013089969389957472,-11.438008791537438,55.98716442082696,-81.75
1773080586.6546774,89.55193095578811,1.648259203794959,-7.0301531970224005,-0.08776064088197971,-1.3288847494885865,9.717971386759473,-0.015280213759139861,0.007618625696622804,0.006544984694978736,-11.438008791537438,55.98716442082696,-81.75
1773080586.6719193,89.56732522505713,1.6393678088314791,-7.03019610776761,-0.09799170294368552,-1.376134236285689,9.725340203964162,-0.0076407206276541345,0.004354727894238581,0.004363323129985824,-12.938781475684383,56.67297605715167,-82.1875
1773080586.6963406,89.56732522505713,1.6393678088314791,-7.03019610776761,-0.09799170294368552,-1.376134236285689,9.725340203964162,-0.0076407206276541345,0.004354727894238581,0.004363323129985824,-12.938781475684383,56.67297605715167,-82.1875
1773080586.7124825,89.56250973905195,1.6339816200406942,-7.04474851451596,-0.13824769214542712,-1.4109609935874738,9.716863622669525,0.009819925819026035,-0.0021706127181930503,-0.01090830782496456,-12.938781475684383,56.67297605715167,-82.1875
1773080586.7308235,89.54767060466975,1.6331382304823694,-7.045259899122545,-0.16503760327032185,-1.4341378115314414,9.724602999336838,0.005441875497587716,0.010914438399385615,-0.015271630954950384,-12.938781475684383,56.67297605715167,-82.1875
1773080586.752051,89.54767060466975,1.6331382304823694,-7.045259899122545,-0.16503760327032185,-1.4341378115314414,9.724602999336838,0.005441875497587716,0.010914438399385615,-0.015271630954950384,-12.938781475684383,56.67297605715167,-82.1875
1773080586.7769318,89.54767060466975,1.6331382304823694,-7.045259899122545,-0.13951507661552123,-1.3290888450738567,9.759859473420308,-0.001082237618675507,-0.0076370381391489125,0.006544984694978736,-12.125508356257788,55.98639078697896,-80.5625
1773080586.799635,89.567656861591,1.6293933652816273,-7.0498956370550205,-0.12253012023205512,-1.259179931370179,9.783322263082235,-0.004357182886575396,-0.005459060443945419,0.01090830782496456,-12.125508356257788,55.98639078697896,-80.5625
1773080586.8121436,89.567656861591,1.6293933652816273,-7.0498956370550205,-0.12253012023205512,-1.259179931370179,9.783322263082235,-0.004357182886575396,-0.005459060443945419,0.01090830782496456,-12.125508356257788,55.98639078697896,-80.5625
1773080586.8268924,89.567656861591,1.6293933652816273,-7.0498956370550205,-0.14454993438255925,-1.3264276983344858,9.76548537043252,-3.682488505221812e-06,0.003272490275563074,-0.007635815477475192,-12.563008079261646,55.98589847453023,-80.5625
1773080586.8415604,89.567656861591,1.6293933652816273,-7.0498956370550205,-0.14454993438255925,-1.3264276983344858,9.76548537043252,-3.682488505221812e-06,0.003272490275563074,-0.007635815477475192,-12.563008079261646,55.98589847453023,-80.5625
1773080586.8698785,89.5578800646299,1.6237705798585222,-7.0648201751082915,-0.15920387472227857,-1.371180336042454,9.753615117625282,0.0076333556506436905,0.0021902526568875666,-0.01090830782496456,-12.563008079261646,55.98589847453023,-80.5625
1773080586.8991027,89.55910048820179,1.6040280288095832,-7.064715793352754,-0.15565075408595938,-1.3340454679049816,9.78251182576199,0.003276172764068296,-0.003268807787057852,0.004363323129985824,-12.563008079261646,55.98589847453023,-80.5625
1773080586.9319127,89.55944129770249,1.5940527503248734,-7.0844138442458995,-0.15328619199344712,-1.3093326279831512,9.801742262229588,-0.006540070566452519,-0.004370685344427875,0.007635815477475192,-11.750508593683053,55.986812769077865,-81.375
1773080586.9483771,89.55944129770249,1.5940527503248734,-7.0844138442458995,-0.15328619199344712,-1.3093326279831512,9.801742262229588,-0.006540070566452519,-0.004370685344427875,0.007635815477475192,-11.750508593683053,55.986812769077865,-81.375
1773080586.9703455,89.56002562051769,1.579116361341206,-7.109022850823266,-0.15169378130464495,-1.3096120570227598,9.787779009222168,0.002181660183708716,2.454992336814541e-06,-0.004363323129985824,-11.750508593683053,55.986812769077865,-81.375
1773080586.9867885,89.55554368692825,1.5689525654426282,-7.119219226441825,-0.15063404977964,-1.3097980139271925,9.778486620325488,0.0032712627793946665,0.0010945125803595798,-0.006544984694978736,-11.750508593683053,55.986812769077865,-81.375
1773080587.0027275,89.55554368692825,1.5689525654426282,-7.119219226441825,-0.15063404977964,-1.3097980139271925,9.778486620325488,0.0032712627793946665,0.0010945125803595798,-0.006544984694978736,-11.750508593683053,55.986812769077865,-81.375
1773080587.021346,89.55615857387619,1.559081326902983,-7.119167010732074,-0.14995515972990042,-1.2865059990439105,9.795718421268768,3.682488505221812e-06,-0.003272490275563074,0.002181661564992912,-11.750508593683053,55.986812769077865,-80.5625
1773080587.0427585,89.55640040798615,1.5541196505814419,-7.124078377040938,-0.1495033659854975,-1.271005423327941,9.807185992304692,-0.004358410382743803,-0.004368230352091061,0.003272492347489368,-11.750508593683053,55.986812769077865,-80.5625
1773080587.0709178,89.55675500287322,1.5441443937919752,-7.143775737441686,-0.14918388126533957,-1.2774155112888161,9.804782197605979,-0.0010896025956859507,-0.0010920575880227653,0.003272492347489368,-11.750508593683053,55.986812769077865,-80.5625
1773080587.0955734,89.55675500287322,1.5441443937919752,-7.143775737441686,-0.14918388126533957,-1.2774155112888161,9.804782197605979,-0.0010896025956859507,-0.0010920575880227653,0.003272492347489368,-11.750508593683053,55.986812769077865,-80.5625
1773080587.12644,89.55686863209047,1.5391308759231304,-7.158561496801485,-0.15229379210621852,-1.3017557749639208,9.793147163964173,0.004360865375080617,0.002186570168382345,-0.006544984694978736,-12.562656427512556,55.673398672384614,-81.375
1773080587.1510248,89.55773168515297,1.5242986052833825,-7.163420748894691,-0.15436340303084312,-1.3179539485411422,9.785404179047394,-0.0010834651148439144,-0.006546208047294555,0.00545415391248228,-12.562656427512556,55.673398672384614,-81.375
1773080587.1681385,89.55773168515297,1.5242986052833825,-7.163420748894691,-0.15436340303084312,-1.3179539485411422,9.785404179047394,-0.0010834651148439144,-0.006546208047294555,0.00545415391248228,-12.562656427512556,55.673398672384614,-81.375
1773080587.2179344,89.55846864707168,1.509414703775903,-7.178154393919594,-0.15574070598211193,-1.328733652111328,9.780251309080086,-0.004360865375080617,-0.002186570168382345,0.004363323129985824,-12.125508356257788,55.98639078697896,-81.0
1773080587.2408853,89.55858824593462,1.504401776852645,-7.192939628211888,-0.1599948668880647,-1.3426014078049633,9.78685746680013,0.0021792051913719014,0.0021841151760455305,-0.004363323129985824,-12.125508356257788,55.98639078697896,-81.0
1773080587.2703447,89.54970881862238,1.48900110884564,-7.188050726902852,-0.1628259634488852,-1.351830244306096,9.791253790967202,0.001090830091854358,1.2274961684072706e-06,-0.003272492347489368,-11.749664629485235,55.236813243928395,-80.1875
1773080587.2928216,89.5504535856402,1.474116706613587,-7.202783054546632,-0.14798071443158903,-1.3612982204640323,9.810905054126826,-0.006540070566452519,-0.004370685344427875,0.009817477042468103,-11.749664629485235,55.236813243928395,-80.1875
1773080587.3163404,89.5504535856402,1.474116706613587,-7.202783054546632,-0.14798071443158903,-1.3612982204640323,9.810905054126826,-0.006540070566452519,-0.004370685344427875,0.009817477042468103,-11.749664629485235,55.236813243928395,-80.1875
1773080587.3336143,89.56007872817862,1.474635625705356,-7.222406182009433,-0.13804113974647722,-1.4211208062635596,9.823982750240562,-0.008725413238666456,-0.0011006500612016161,0.003272492347489368,-12.563430061360556,56.36089823710497,-81.375
1773080587.3474374,89.56007872817862,1.474635625705356,-7.222406182009433,-0.13804113974647722,-1.4211208062635596,9.823982750240562,-0.008725413238666456,-0.0011006500612016161,0.003272492347489368,-12.563430061360556,56.36089823710497,-81.375
1773080587.3736134,89.56057894552353,1.4647139163058223,-7.232228282758106,-0.1314264638258597,-1.4609320688510754,9.825995587502177,0.0076370381391489125,-0.001082237618675507,-0.004363323129985824,-12.563430061360556,56.36089823710497,-81.375
1773080587.4223416,89.55674374806934,1.4446704593857702,-7.242372654983954,-0.11863659748879182,-1.4047688104913572,9.82153632087118,-0.0010896025956859507,-0.0010920575880227653,0.004363323129985824,-11.750508593683053,55.986812769077865,-80.5625
1773080587.4574413,89.55674374806934,1.4446704593857702,-7.242372654983954,-0.11863659748879182,-1.4047688104913572,9.82153632087118,-0.0010896025956859507,-0.0010920575880227653,0.004363323129985824,-11.750508593683053,55.986812769077865,-80.5625
1773080587.5024793,89.55750121188571,1.4297873308448803,-7.257105783054904,-0.13304670229307808,-1.3765729616443736,9.809537906330126,0.002181660183708716,2.454992336814541e-06,-0.002181661564992912,-11.437657139788348,55.67466461868135,-81.0
1773080587.5534909,89.55750121188571,1.4297873308448803,-7.257105783054904,-0.13304670229307808,-1.3765729616443736,9.809537906330126,0.002181660183708716,2.454992336814541e-06,-0.002181661564992912,-11.437657139788348,55.67466461868135,-81.0
1773080587.5788097,89.55800830630406,1.419865461591247,-7.266927817898367,-0.14491108197176908,-1.3577123859520257,9.806347370117305,-0.0010896025956859507,-0.0010920575880227653,0.003272492347489368,-11.062657377213613,55.675086600780254,-81.75
1773080587.6196983,89.55851709547807,1.4099437661710539,-7.276749812657056,-0.15280669411413292,-1.3451608835152036,9.794188768786338,0.001090830091854358,1.2274961684072706e-06,-0.003272492347489368,-11.062657377213613,55.675086600780254,-81.75
1773080587.646469,89.55877212557783,1.4049829838309518,-7.2816607950969985,-0.15471602620569402,-1.3368042346469424,9.786097355421056,-1.2274961684072706e-06,0.001090830091854358,-0.003272492347489368,-11.750930575781963,56.3618125316526,-81.375
1773080587.664487,89.55877212557783,1.4049829838309518,-7.2816607950969985,-0.15471602620569402,-1.3368042346469424,9.786097355421056,-1.2274961684072706e-06,0.001090830091854358,-0.003272492347489368,-11.750930575781963,56.3618125316526,-81.375
1773080587.689429,89.55406516939414,1.3997666287571446,-7.286945297026706,-0.15933930338545607,-1.3245565232021934,9.787402833628109,-0.0010883750995175434,-0.002182887679877123,0.002181661564992912,-11.750930575781963,56.3618125316526,-81.375
1773080587.72236,89.5545774564877,1.3898444345959395,-7.296767202355072,-0.15907093311378237,-1.3164020438455895,9.788271614791757,-1.2274961684072706e-06,0.001090830091854358,0.001090830782496456,-12.563008079261646,55.98589847453023,-81.0
1773080587.767785,89.5545774564877,1.3898444345959395,-7.296767202355072,-0.15907093311378237,-1.3164020438455895,9.788271614791757,-1.2274961684072706e-06,0.001090830091854358,0.001090830782496456,-12.563008079261646,55.98589847453023,-81.0
1773080587.8370917,89.55509143828093,1.3799224160531811,-7.306589068508647,-0.15889233569587585,-1.3109753289252726,9.788849778951242,1.2274961684072706e-06,-0.001090830091854358,-0.001090830782496456,-12.563008079261646,55.98589847453023,-81.0
1773080587.862566,89.55560711470784,1.3700005737126915,-7.316410895783026,-0.15875842428522333,-1.3207443491238406,9.779199205618905,0.0,0.0,-0.004363323129985824,-11.062657377213613,55.675086600780254,-80.1875
1773080587.886744,89.55586558838833,1.3650397188007308,-7.321321794932881,-0.15534678338405666,-1.307171101196365,9.78615730369948,-0.0021828876798771235,0.0010883750995175434,-0.003272492347489368,-11.062657377213613,55.675086600780254,-80.1875
1773080587.9187992,89.55586558838833,1.3650397188007308,-7.321321794932881,-0.15534678338405666,-1.307171101196365,9.78615730369948,-0.0021828876798771235,0.0010883750995175434,-0.003272492347489368,-11.062657377213613,55.675086600780254,-80.1875
1773080587.9599292,89.5561244857025,1.3600789081582543,-7.326232684473768,-0.15641019144619686,-1.3081773492980147,9.790787840245054,0.001090830091854358,1.2274961684072706e-06,0.003272492347489368,-12.125930338356698,56.3613905495537,-80.1875
1773080587.989552,89.55638380664213,1.3551181418582294,-7.331143564442623,-0.16046298722192004,-1.3088507603751598,9.79386941058965,0.0021804326875403085,0.0010932850841911725,-0.001090830782496456,-12.125930338356698,56.3613905495537,-80.1875
1773080588.041474,89.55664355119896,1.3501574199736217,-7.336054434876387,-0.1631600775379686,-1.3092989079245052,9.795920161230583,0.0010883750995175434,0.002182887679877123,0.001090830782496456,-12.938007841836383,55.98547649243132,-81.375
1773080588.0594232,89.55664355119896,1.3501574199736217,-7.336054434876387,-0.1631600775379686,-1.3092989079245052,9.795920161230583,0.0010883750995175434,0.002182887679877123,0.001090830782496456,-12.938007841836383,55.98547649243132,-81.375
1773080588.0834157,89.55690371936475,1.3451967425773967,-7.340965295811991,-0.15825344921792067,-1.3196249454686546,9.793939801166418,-0.0010932850841911725,0.0021804326875403085,-0.001090830782496456,-12.938007841836383,55.98547649243132,-81.375
1773080588.122777,89.55742532649023,1.3352755215419294,-7.350786989336443,-0.15498814288155846,-1.3264968081048885,9.792621893665789,-0.0010920575880227653,0.0010896025956859507,-0.001090830782496456,-12.126281990105788,56.673890351699306,-80.5625
1773080588.1366284,89.55742532649023,1.3352755215419294,-7.350786989336443,-0.15498814288155846,-1.3264968081048885,9.792621893665789,-0.0010920575880227653,0.0010896025956859507,-0.001090830782496456,-12.126281990105788,56.673890351699306,-80.5625
1773080588.1653583,89.55742532649023,1.3352755215419294,-7.350786989336443,-0.15616022757998646,-1.3310737201315916,9.791744840946112,-0.001090830091854358,-1.2274961684072706e-06,-0.001090830782496456,-12.126281990105788,56.673890351699306,-80.5625
1773080588.1927805,89.55303802108101,1.3249811480926625,-7.360346566351551,-0.15747186279833014,-1.325004120311868,9.79077274710033,-2.454992336814541e-06,0.002181660183708716,-0.00545415391248228,-11.438782425385439,56.674663985547305,-81.0
1773080588.239789,89.55303802108101,1.3249811480926625,-7.360346566351551,-0.15747186279833014,-1.325004120311868,9.79077274710033,-2.454992336814541e-06,0.002181660183708716,-0.00545415391248228,-11.438782425385439,56.674663985547305,-81.0
1773080588.2673018,89.54833836081464,1.3197582336089855,-7.365630360113535,-0.15447553426226315,-1.3233863696948962,9.79385936627044,0.001090830091854358,1.2274961684072706e-06,-0.003272492347489368,-11.750930575781963,56.3618125316526,-80.1875
1773080588.2960687,89.54833836081464,1.3197582336089855,-7.365630360113535,-0.15447553426226315,-1.3233863696948962,9.79385936627044,0.001090830091854358,1.2274961684072706e-06,-0.003272492347489368,-11.750930575781963,56.3618125316526,-80.1875
1773080588.3104706,89.5489743256612,1.3098882940643677,-7.365578628292077,-0.15582662068210873,-1.3223135389367848,9.79925858855567,-0.0021828876798771235,0.0010883750995175434,0.001090830782496456,-11.750930575781963,56.3618125316526,-80.1875
1773080588.329211,89.5489743256612,1.3098882940643677,-7.365578628292077,-0.15672575360189175,-1.321599582051567,9.802851710673226,-0.0021792051913719014,-0.0021841151760455305,-0.003272492347489368,-12.563008079261646,55.98589847453023,-80.5625
1773080588.3437665,89.5489743256612,1.3098882940643677,-7.365578628292077,-0.15672575360189175,-1.321599582051567,9.802851710673226,-0.0021792051913719014,-0.0021841151760455305,-0.003272492347489368,-12.563008079261646,55.98589847453023,-80.5625
1773080588.3670142,89.5489743256612,1.3098882940643677,-7.365578628292077,-0.1606692261054498,-1.3211282159259001,9.795207558182698,0.0,0.0,-0.002181661564992912,-12.563008079261646,55.98589847453023,-80.5625
1773080588.3958502,89.5489743256612,1.3098882940643677,-7.365578628292077,-0.16329732721111842,-1.317469417445358,9.79012046009103,0.0010920575880227653,-0.0010896025956859507,0.001090830782496456,-12.563008079261646,55.98589847453023,-80.5625
1773080588.4223363,89.5489743256612,1.3098882940643677,-7.365578628292077,-0.16504629913912786,-1.3150345279280145,9.786735053137633,-2.454992336814541e-06,0.002181660183708716,0.0,-12.563008079261646,55.98589847453023,-81.375
1773080588.4366295,89.5489743256612,1.3098882940643677,-7.365578628292077,-0.16504629913912786,-1.3150345279280145,9.786735053137633,-2.454992336814541e-06,0.002181660183708716,0.0,-12.563008079261646,55.98589847453023,-81.375
1773080588.4525654,89.5489743256612,1.3098882940643677,-7.365578628292077,-0.16621022041992162,-1.3134141361537204,9.78448210262762,-0.0010920575880227653,0.0010896025956859507,0.001090830782496456,-12.563008079261646,55.98589847453023,-81.375
1773080588.4770267,89.5489743256612,1.3098882940643677,-7.365578628292077,-0.16621022041992162,-1.3134141361537204,9.78448210262762,-0.0010920575880227653,0.0010896025956859507,0.001090830782496456,-12.563008079261646,55.98589847453023,-81.375
1773080588.4994287,89.5489743256612,1.3098882940643677,-7.365578628292077,-0.16698103282441226,-1.3156808931183048,9.782982789230314,-0.002181660183708716,-2.454992336814541e-06,0.002181661564992912,-12.938429823935293,56.360476255006056,-80.5625
1773080588.5457525,89.5489743256612,1.3098882940643677,-7.365578628292077,-0.1641488902796468,-1.3171856303508767,9.781985012912834,0.0010896025956859507,0.0010920575880227653,-0.003272492347489368,-12.938429823935293,56.360476255006056,-80.5625
1773080588.5766919,89.5489743256612,1.3098882940643677,-7.365578628292077,-0.1641488902796468,-1.3171856303508767,9.781985012912834,0.0010896025956859507,0.0010920575880227653,-0.003272492347489368,-12.938429823935293,56.360476255006056,-80.5625
1773080588.6205933,89.5489743256612,1.3098882940643677,-7.365578628292077,-0.15544236639433354,-1.3155020484141413,9.797592851895391,2.454992336814541e-06,-0.002181660183708716,0.0,-11.061743082665977,54.86258711520166,-81.75
1773080588.6460526,89.5489743256612,1.3098882940643677,-7.365578628292077,-0.15544236639433354,-1.3155020484141413,9.797592851895391,2.454992336814541e-06,-0.002181660183708716,0.0,-11.061743082665977,54.86258711520166,-81.75
1773080588.6703618,89.5489743256612,1.3098882940643677,-7.365578628292077,-0.15312492707636371,-1.3170628469920571,9.79839806982599,-0.0021804326875403085,-0.0010932850841911725,0.0,-11.438008791537438,55.98716442082696,-81.75
1773080588.6904886,89.5489743256612,1.3098882940643677,-7.365578628292077,-0.15312492707636371,-1.3170628469920571,9.79839806982599,-0.0021804326875403085,-0.0010932850841911725,0.0,-11.438008791537438,55.98716442082696,-81.75
1773080588.7223644,89.5489743256612,1.3098882940643677,-7.365578628292077,-0.15159775392184782,-1.3047211026527363,9.79224370994929,0.003272490275563074,3.682488505221812e-06,0.0,-11.438008791537438,55.98716442082696,-81.75
1773080588.7513773,89.5489743256612,1.3098882940643677,-7.365578628292077,-0.1539077258064502,-1.3132371218143377,9.78814805220005,-0.002181660183708716,-2.454992336814541e-06,-0.004363323129985824,-11.063782662810704,56.67508596764622,-81.375
1773080588.7806954,89.5489743256612,1.3098882940643677,-7.365578628292077,-0.15544498629157635,-1.318904437436216,9.785422437719426,-0.0010896025956859507,-0.0010920575880227653,0.001090830782496456,-11.063782662810704,56.67508596764622,-81.375
1773080588.8380885,89.5489743256612,1.3098882940643677,-7.365578628292077,-0.15544498629157635,-1.318904437436216,9.785422437719426,-0.0010896025956859507,-0.0010920575880227653,0.001090830782496456,-11.063782662810704,56.67508596764622,-81.375
1773080588.8793204,89.5489743256612,1.3098882940643677,-7.365578628292077,-0.156468015972103,-1.3226759726745123,9.78360857172968,0.001090830091854358,1.2274961684072706e-06,0.004363323129985824,-11.750930575781963,56.3618125316526,-80.5625
1773080588.9030485,89.5489743256612,1.3098882940643677,-7.365578628292077,-0.15714506659047828,-1.328530996834205,9.779056352468395,-0.0021792051913719014,-0.0021841151760455305,0.0,-11.750930575781963,56.3618125316526,-80.5625
1773080588.9325333,89.5489743256612,1.3098882940643677,-7.365578628292077,-0.15425429083046563,-1.3290785762121347,9.78271712481627,-0.001090830091854358,-1.2274961684072706e-06,-0.001090830782496456,-11.438430773636348,56.362164183401696,-81.0
1773080588.9651484,89.5489743256612,1.3098882940643677,-7.365578628292077,-0.15425429083046563,-1.3290785762121347,9.78271712481627,-0.001090830091854358,-1.2274961684072706e-06,-0.001090830782496456,-11.438430773636348,56.362164183401696,-81.0
