timestamp,yaw,pitch,roll,ax,ay,az,gx,gy,gz,mx,my,mz
1773087531.374839,-0.08458561494104663,1.4243333477716684,-6.796874283944519,-0.1879919995096981,-0.9197471032888329,6.610720960570652,-0.001090830782496456,0.003272492347489368,-0.002181661564992912,1.5625,52.875,-36.0
1773087531.4878201,-0.08458561494104663,1.4243333477716684,-6.796874283944519,-0.1879919995096981,-0.9197471032888329,6.610720960570652,-0.001090830782496456,0.003272492347489368,-0.002181661564992912,1.5625,52.875,-36.0
1773087531.5037107,0.0,0.0,0.0,-0.20204414493381684,-0.9934241576247862,7.670880202426356,0.0,0.002181661564992912,0.0,1.1875,52.5625,-36.5
1773087531.514859,0.0,0.0,0.0,-0.20204414493381684,-0.9934241576247862,7.670880202426356,0.0,0.002181661564992912,0.0,1.1875,52.5625,-36.5
1773087531.5278316,0.0,0.0,0.0,-0.20805057903349877,-1.042455414258739,8.34964344146807,0.003272492347489368,0.001090830782496456,0.003272492347489368,1.1875,52.5625,-36.5
1773087531.5419922,0.0,0.0,0.0,-0.20805057903349877,-1.042455414258739,8.34964344146807,0.003272492347489368,0.001090830782496456,0.003272492347489368,1.1875,52.5625,-36.5
1773087531.5581236,0.0,0.0,0.0,-0.20805057903349877,-1.042455414258739,8.34964344146807,0.003272492347489368,0.001090830782496456,0.003272492347489368,1.1875,52.5625,-36.5
1773087531.5751886,-0.08458561494104663,1.4243333477716684,-6.796874283944519,-0.21204779383057187,-1.0717400561262909,8.794662571353498,-0.001090830782496456,0.0,-0.002181661564992912,1.1875,52.5625,-36.5
1773087531.831903,-0.08458561494104663,1.4243333477716684,-6.796874283944519,-0.21204779383057187,-1.0717400561262909,8.794662571353498,-0.001090830782496456,0.0,-0.002181661564992912,1.1875,52.5625,-36.5
1773087531.8676417,0.0,0.0,0.0,-0.22808834245548656,-1.0945737698655817,9.097508054517483,0.001090830782496456,0.004363323129985824,0.002181661564992912,1.875,52.5625,-36.875
1773087531.900586,0.0,0.0,0.0,-0.22808834245548656,-1.0945737698655817,9.097508054517483,0.001090830782496456,0.004363323129985824,0.002181661564992912,1.875,52.5625,-36.875
1773087531.9241555,-0.08458561494104663,1.4243333477716684,-6.796874283944519,-0.2391768890638927,-1.1310243333442132,9.469943738358944,0.0,0.0,-0.002181661564992912,1.5,54.375,-37.25
1773087532.2103484,0.0,0.0,0.0,-0.2394522288667722,-1.1407170175199788,9.566970798018623,-0.002181661564992912,0.002181661564992912,-0.002181661564992912,1.5,54.375,-37.25
1773087532.260213,0.0,0.0,0.0,-0.2394522288667722,-1.1407170175199788,9.566970798018623,-0.002181661564992912,0.002181661564992912,-0.002181661564992912,1.5,54.375,-37.25
1773087532.2990098,0.686429318123847,1.4211059422272563,-6.794576545658015,-0.23963546442984138,-1.1438222788572547,9.634886334066184,0.0,0.0,-0.002181661564992912,1.5625,52.1875,-35.5625
1773087532.493948,0.686429318123847,1.4211059422272563,-6.794576545658015,-0.23963546442984138,-1.1438222788572547,9.634886334066184,0.0,0.0,-0.002181661564992912,1.5625,52.1875,-35.5625
1773087532.520228,0.686429318123847,1.4211059422272563,-6.794576545658015,-0.23963546442984138,-1.1438222788572547,9.634886334066184,0.0,0.0,-0.002181661564992912,1.5625,52.1875,-35.5625
1773087532.5403736,0.0,0.0,0.0,-0.2330671822355498,-1.1492339072964892,9.67004802951763,0.001090830782496456,0.001090830782496456,0.002181661564992912,0.75,52.5625,-35.6875
1773087532.5699058,0.6584931019849272,1.419445696199977,-6.794910672347249,-0.23538628722240723,-1.1494901738636298,9.696792856766013,0.002181661564992912,0.001090830782496456,0.0,0.75,52.5625,-35.6875
1773087532.8066359,0.6584931019849272,1.419445696199977,-6.794910672347249,-0.23538628722240723,-1.1494901738636298,9.696792856766013,0.002181661564992912,0.001090830782496456,0.0,0.75,52.5625,-35.6875
1773087532.8386242,0.0,0.0,0.0,-0.23692962568506068,-1.1530058281086961,9.714591240540516,-0.002181661564992912,0.002181661564992912,-0.003272492347489368,1.1875,52.875,-37.25
1773087532.8573706,0.6724611850008368,1.4202758190645188,-6.7947436090606725,-0.2442114529839492,-1.1569024534527004,9.751032070676045,0.001090830782496456,0.001090830782496456,0.0,1.1875,52.875,-37.25
1773087532.8968756,0.6724611850008368,1.4202758190645188,-6.7947436090606725,-0.2442114529839492,-1.1569024534527004,9.751032070676045,0.001090830782496456,0.001090830782496456,0.0,1.1875,52.875,-37.25
1773087533.0965452,0.6724611850008368,1.4202758190645188,-6.7947436090606725,-0.2442114529839492,-1.1569024534527004,9.751032070676045,0.001090830782496456,0.001090830782496456,0.0,1.1875,52.875,-37.25
1773087533.1152842,0.0,0.0,0.0,-0.24614778662312523,-1.1579386173746342,9.76072216662788,-0.002181661564992912,0.003272492347489368,0.001090830782496456,1.1875,53.25,-36.5
1773087533.1288807,0.0,0.0,0.0,-0.24614778662312523,-1.1579386173746342,9.76072216662788,-0.002181661564992912,0.003272492347489368,0.001090830782496456,1.1875,53.25,-36.5
1773087533.1438959,0.0,0.0,0.0,-0.24614778662312523,-1.1579386173746342,9.76072216662788,-0.002181661564992912,0.003272492347489368,0.001090830782496456,1.1875,53.25,-36.5
1773087533.1867177,0.0,0.0,0.0,-0.24606781505575626,-1.1646583105637833,9.773700276650382,0.0,0.002181661564992912,0.0,0.75,54.75,-36.0625
1773087533.423679,0.6515090790052582,1.419030634879475,-6.794994203947005,-0.24606781505575626,-1.1646583105637833,9.773700276650382,0.0,0.002181661564992912,0.0,0.75,54.75,-36.0625
1773087533.4445837,0.0,0.0,0.0,-0.24403806313767035,-1.1631000536434593,9.762427157654074,0.002181661564992912,0.001090830782496456,0.003272492347489368,0.75,54.75,-36.0625
1773087533.4721968,0.0,0.0,0.0,-0.24268728590999875,-1.1587179393625346,9.761615246305658,0.0,-0.001090830782496456,0.001090830782496456,0.75,54.75,-36.0625
1773087533.4935973,0.6515090790052582,1.419030634879475,-6.794994203947005,-0.23844324704683426,-1.155801691260003,9.761074928372931,-0.002181661564992912,-0.002181661564992912,-0.001090830782496456,1.875,52.875,-36.0625
1773087533.7417684,0.6515090790052582,1.419030634879475,-6.794994203947005,-0.23844324704683426,-1.155801691260003,9.761074928372931,-0.002181661564992912,-0.002181661564992912,-0.001090830782496456,1.875,52.875,-36.0625
1773087533.769331,0.0,0.0,0.0,-0.23896399829973813,-1.1572060724317135,9.764060464531768,-0.001090830782496456,0.002181661564992912,0.0,1.5,52.5625,-36.0625
1773087533.7982554,0.0,0.0,0.0,-0.23596544073405362,-1.1581406724135213,9.766047305494851,0.0,-0.002181661564992912,-0.002181661564992912,1.5,52.5625,-36.0625
1773087533.834228,0.5179878149961933,1.4251113760873146,-6.796548391793001,-0.24066015758481213,-1.162107749968568,9.774059749375953,0.0,0.0,0.001090830782496456,1.5,52.5625,-36.0625
1773087534.0899892,0.5179878149961933,1.4251113760873146,-6.796548391793001,-0.24066015758481213,-1.162107749968568,9.774059749375953,0.0,0.0,0.001090830782496456,1.5,52.5625,-36.0625
1773087534.1329746,0.0,0.0,0.0,-0.24378443920556844,-1.1647477957662915,9.779391941273964,-0.001090830782496456,0.0,0.002181661564992912,0.0625,52.5625,-36.0625
1773087534.159668,0.4411661080632362,1.4205456944633041,-6.797476565355781,-0.24586361372366927,-1.1665047167534326,9.782940455417604,0.001090830782496456,0.002181661564992912,0.0,0.0625,52.5625,-36.0625
1773087534.383168,0.4411661080632362,1.4205456944633041,-6.797476565355781,-0.24586361372366927,-1.1665047167534326,9.782940455417604,0.001090830782496456,0.002181661564992912,0.0,0.0625,52.5625,-36.0625
1773087534.4099996,0.0,0.0,0.0,-0.24724728113956418,-1.1810543748735591,9.81540795730657,-0.002181661564992912,0.001090830782496456,-0.002181661564992912,1.5,53.25,-36.0625
1773087534.4365425,nan,nan,nan,-0.2538552926561654,-1.1720915800177973,9.800218488347404,8.399097102608196e-06,0.0010907984466480007,0.001090830782496456,1.5,53.25,-36.0625
1773087534.8267443,nan,nan,nan,-0.2538552926561654,-1.1720915800177973,9.800218488347404,8.399097102608196e-06,0.0010907984466480007,0.001090830782496456,1.5,53.25,-36.0625
1773087535.1880271,0.006970349486545226,1.4209182895241812,-6.797189496093182,-0.25347145729049736,-1.1820977834059136,9.910272689577576,-8.399097102608196e-06,-0.0010907984466480007,-0.001090830782496456,1.597475157531181,53.239278069589474,-36.875
1773087535.2646968,0.006970349486545226,1.4209182895241812,-6.797189496093182,-0.25347145729049736,-1.1820977834059136,9.910272689577576,-8.399097102608196e-06,-0.0010907984466480007,-0.001090830782496456,1.597475157531181,53.239278069589474,-36.875
1773087535.3414278,nan,nan,nan,-0.26219156074776245,-1.2007590019078218,10.013879934794636,-0.0010991975437506089,-0.0010823993495453926,0.002181661564992912,2.972434397963025,53.228690947644075,-36.875
1773087535.5787365,0.006970349486545226,1.4209182895241812,-6.797189496093182,-0.25777935946446606,-1.1898400158529434,9.938989595703092,0.001107596640853217,0.0021731977961933933,0.001090830782496456,2.972434397963025,53.228690947644075,-36.875
1773087535.6428447,nan,nan,nan,-0.2650069086412945,-1.1992213460207273,10.022955379910348,0.0,0.0,-0.001090830782496456,2.282067380852903,52.85899562486264,-36.875
1773087535.6668463,nan,nan,nan,-0.2650069086412945,-1.1992213460207273,10.022955379910348,0.0,0.0,-0.001090830782496456,2.282067380852903,52.85899562486264,-36.875
1773087535.9391286,0.006882130728970175,1.4209404444355218,-6.804172756905017,-0.25965294203811495,-1.1888167230368238,9.945029203048234,0.0010740002524427844,-0.00218999599039861,0.001090830782496456,2.282067380852903,52.85899562486264,-36.875
1773087535.9540782,0.006882130728970175,1.4209404444355218,-6.804172756905017,-0.25965294203811495,-1.1888167230368238,9.945029203048234,0.0010740002524427844,-0.00218999599039861,0.001090830782496456,2.282067380852903,52.85899562486264,-36.875
1773087535.996559,nan,nan,nan,-0.2594607060589316,-1.1852118187749732,9.933311543326763,0.0010823993495453926,-0.001099197543750609,0.0,2.6546501005285426,52.54361749150665,-37.0
1773087536.0316012,0.006882130728970175,1.4209404444355218,-6.804172756905017,-0.252591237187188,-1.1761742830447648,9.878682007774488,0.0010823993495453926,-0.001099197543750609,0.001090830782496456,2.6546501005285426,52.54361749150665,-37.0
1773087536.3507524,nan,nan,nan,-0.24807119527086177,-1.17684992906639,9.842326662116346,-0.001107596640853217,-0.0021731977961933933,0.001090830782496456,2.2767738198802028,52.17151600464671,-37.0
1773087536.3765712,nan,nan,nan,-0.24807119527086177,-1.17684992906639,9.842326662116346,-0.001107596640853217,-0.0021731977961933933,0.001090830782496456,2.2767738198802028,52.17151600464671,-37.0
1773087536.4219036,0.006378690782927602,1.4279436209050176,-6.811133847124756,-0.24501164498689945,-1.1706095388521311,9.818132585696674,0.0,0.0,0.0,2.2767738198802028,52.17151600464671,-37.0
1773087536.6420994,0.006378690782927602,1.4279436209050176,-6.811133847124756,-0.24501164498689945,-1.1706095388521311,9.818132585696674,0.0,0.0,0.0,2.2767738198802028,52.17151600464671,-37.0
1773087536.6813326,nan,nan,nan,-0.24637207387825735,-1.173120897528046,9.805376809812243,-0.0021815968932960015,1.6798194205216393e-05,-0.001090830782496456,2.2767738198802028,52.17151600464671,-37.0
1773087536.720754,nan,nan,nan,-0.24637207387825735,-1.173120897528046,9.805376809812243,-0.0021815968932960015,1.6798194205216393e-05,-0.001090830782496456,2.2767738198802028,52.17151600464671,-37.0
1773087536.9657168,0.006378690782927602,1.4279436209050176,-6.811133847124756,-0.24727742410846956,-1.174792178673153,9.803578206867147,0.0010991975437506089,0.0010823993495453926,0.0,2.2767738198802028,52.17151600464671,-37.0
1773087537.0028992,nan,nan,nan,-0.24787992457325103,-1.1759043976057881,9.802381256698897,-0.0011243948350584336,-0.004354794689489395,-0.001090830782496456,1.9046723330202637,52.549392285295056,-38.0625
1773087537.0240364,0.006378690782927602,1.4279436209050176,-6.811133847124756,-0.24485860003386128,-1.1666352856802842,9.794894476318097,-8.399097102608196e-06,-0.0010907984466480007,0.002181661564992912,1.9046723330202637,52.549392285295056,-38.0625
1773087537.0395389,0.006378690782927602,1.4279436209050176,-6.811133847124756,-0.24485860003386128,-1.1666352856802842,9.794894476318097,-8.399097102608196e-06,-0.0010907984466480007,0.002181661564992912,1.9046723330202637,52.549392285295056,-38.0625
1773087537.246383,0.006378690782927602,1.4279436209050176,-6.811133847124756,-0.24284794230330392,-1.160466795236626,9.779876772485533,-0.0010823993495453926,0.001099197543750609,0.0,1.9046723330202637,52.549392285295056,-38.0625
1773087537.2699096,0.006378690782927602,1.4279436209050176,-6.811133847124756,-0.24284794230330392,-1.160466795236626,9.779876772485533,-0.0010823993495453926,0.001099197543750609,0.0,1.9046723330202637,52.549392285295056,-38.0625
1773087537.3107677,0.006378690782927602,1.4279436209050176,-6.811133847124756,-0.24735232339186242,-1.1591494293421871,9.773255202152832,-0.001107596640853217,-0.0021731977961933933,0.0,2.9758030276729253,53.66617797869057,-35.75
1773087537.3447132,0.006378690782927602,1.4279436209050176,-6.811133847124756,-0.24735232339186242,-1.1591494293421871,9.773255202152832,-0.001107596640853217,-0.0021731977961933933,0.0,2.9758030276729253,53.66617797869057,-35.75
1773087537.5729175,0.006378690782927602,1.4279436209050176,-6.811133847124756,-0.24735232339186242,-1.1591494293421871,9.773255202152832,-0.001107596640853217,-0.0021731977961933933,0.0,2.9758030276729253,53.66617797869057,-35.75
1773087537.5967581,nan,nan,nan,-0.2511975124355284,-1.155433528585293,9.7688211889624,0.001107596640853217,0.0021731977961933933,0.001090830782496456,1.9046723330202637,52.549392285295056,-37.25
1773087537.622256,nan,nan,nan,-0.25041143024341705,-1.1529863945813232,9.76587040271534,-0.0010907984466480007,8.399097102608196e-06,-0.001090830782496456,1.9046723330202637,52.549392285295056,-37.25
1773087537.6453156,0.006378690782927602,1.4279436209050176,-6.811133847124756,-0.24993981420650427,-1.158047879332149,9.767251799137682,-0.0010991975437506089,-0.0010823993495453926,0.13962634015954636,1.9046723330202637,52.549392285295056,-37.25
1773087537.6635768,0.006378690782927602,1.4279436209050176,-6.811133847124756,-0.24993981420650427,-1.158047879332149,9.767251799137682,-0.0010991975437506089,-0.0010823993495453926,0.13962634015954636,1.9046723330202637,52.549392285295056,-37.25
1773087537.8820927,0.006378690782927602,1.4279436209050176,-6.811133847124756,-0.24962595900223514,-1.1614162408933344,9.771516214732861,0.0,0.0,0.003272492347489368,1.9046723330202637,52.549392285295056,-37.25
1773087537.8986313,nan,nan,nan,-0.2494170918697864,-1.163657847885239,9.77769924738213,0.002164798699090785,-0.002198395087501218,0.0,1.9070784970987638,52.86188302175684,-37.25
1773087537.9125452,nan,nan,nan,-0.2494170918697864,-1.163657847885239,9.77769924738213,0.002164798699090785,-0.002198395087501218,0.0,1.9070784970987638,52.86188302175684,-37.25
1773087537.9266522,nan,nan,nan,-0.24925233668592858,-1.1618045997508657,9.781813986541218,-0.0021983950875012178,-0.002164798699090785,0.003272492347489368,1.9070784970987638,52.86188302175684,-37.25
1773087537.9394326,nan,nan,nan,-0.24925233668592858,-1.1618045997508657,9.781813986541218,-0.0021983950875012178,-0.002164798699090785,0.003272492347489368,1.9070784970987638,52.86188302175684,-37.25
1773087537.96169,0.006378690782927602,1.4279436209050176,-6.811133847124756,-0.24919420683233104,-1.1672613089137684,9.777862076072303,-0.001107596640853217,-0.0021731977961933933,0.0,1.9070784970987638,52.86188302175684,-37.25
1773087538.025451,0.006378690782927602,1.4279436209050176,-6.811133847124756,-0.24919420683233104,-1.1672613089137684,9.777862076072303,-0.001107596640853217,-0.0021731977961933933,0.0,1.9070784970987638,52.86188302175684,-37.25
1773087538.2387176,0.24026487504881858,0.07659318475250165,125.56025177766335,-0.24910400918329104,-1.164202662812055,9.775232123800974,-8.399097102608196e-06,-0.0010907984466480007,-0.001090830782496456,1.606137348213781,54.36424472085189,-35.75
1773087538.2597995,nan,nan,nan,-0.2490954965362525,-1.1688571930928702,9.780172143357534,-0.002131202310680352,0.0065615888740932216,0.003272492347489368,1.606137348213781,54.36424472085189,-35.75
1773087538.2774823,nan,nan,nan,-0.24908983146474084,-1.1719547310002427,9.783459671188792,-0.001107596640853217,-0.0021731977961933933,0.0,1.606137348213781,54.36424472085189,-35.75
1773087538.2900732,nan,nan,nan,-0.24908983146474084,-1.1719547310002427,9.783459671188792,-0.001107596640853217,-0.0021731977961933933,0.0,1.606137348213781,54.36424472085189,-35.75
1773087538.3125641,0.006378690782927602,1.4279436209050176,-6.811133847124756,-0.24908606142293285,-1.1740161078758335,9.782302372529081,0.0010740002524427844,-0.00218999599039861,0.0,2.6546501005285426,52.54361749150665,-37.375
1773087538.333357,0.006378690782927602,1.4279436209050176,-6.811133847124756,-0.24908606142293285,-1.1740161078758335,9.782302372529081,0.0010740002524427844,-0.00218999599039861,0.0,2.6546501005285426,52.54361749150665,-37.375
1773087538.53881,0.006378690782927602,1.4279436209050176,-6.811133847124756,-0.24908606142293285,-1.1740161078758335,9.782302372529081,0.0010740002524427844,-0.00218999599039861,0.0,2.6546501005285426,52.54361749150665,-37.375
1773087538.5574532,nan,nan,nan,-0.24908355250222375,-1.1753879311594506,9.778187091491597,-0.0010823993495453926,0.001099197543750609,-0.00545415391248228,1.4671853019737677,52.55276091500495,-35.25
1773087538.5731213,nan,nan,nan,-0.24908355250222375,-1.1753879311594506,9.778187091491597,-0.0010823993495453926,0.001099197543750609,-0.00545415391248228,1.4671853019737677,52.55276091500495,-35.25
1773087538.6066444,nan,nan,nan,-0.24905612640310645,-1.1729558516833327,9.768758194517215,-0.0010823993495453926,0.001099197543750609,0.002181661564992912,1.4671853019737677,52.55276091500495,-35.25
1773087538.6254237,0.006378690782927602,1.4279436209050176,-6.811133847124756,-0.24903787464051347,-1.1713373299600842,9.762483368908445,-0.0010823993495453926,0.001099197543750609,-0.001090830782496456,1.4671853019737677,52.55276091500495,-35.25
1773087538.8285716,0.006378690782927602,1.4279436209050176,-6.811133847124756,-0.24903787464051347,-1.1713373299600842,9.762483368908445,-0.0010823993495453926,0.001099197543750609,-0.001090830782496456,1.4671853019737677,52.55276091500495,-35.25
1773087538.8470085,nan,nan,nan,-0.24562920286847462,-1.1635959531795568,9.758307542560201,0.0010907984466480007,-8.399097102608196e-06,-0.004363323129985824,2.2767738198802028,52.17151600464671,-36.5625
1773087538.8627722,nan,nan,nan,-0.2433350134411295,-1.1550991408618654,9.742148129943207,-0.0010991975437506089,-0.0010823993495453926,0.002181661564992912,2.2767738198802028,52.17151600464671,-36.5625
1773087538.8833654,nan,nan,nan,-0.2433350134411295,-1.1550991408618654,9.742148129943207,-0.0010991975437506089,-0.0010823993495453926,0.002181661564992912,2.2767738198802028,52.17151600464671,-36.5625
1773087538.9059913,0.006378690782927602,1.4279436209050176,-6.811133847124756,-0.2418082560050064,-1.1494446071800548,9.731394221359063,-0.0021973109108101535,0.13964739846225194,-0.001090830782496456,2.2767738198802028,52.17151600464671,-36.5625
1773087538.925256,0.006378690782927602,1.4279436209050176,-6.811133847124756,-0.2418082560050064,-1.1494446071800548,9.731394221359063,-0.0021973109108101535,0.13964739846225194,-0.001090830782496456,2.2767738198802028,52.17151600464671,-36.5625
1773087539.126464,nan,nan,nan,-0.24079221598626457,-1.1456815781800898,9.724237615325345,1.6798194205216393e-05,0.0021815968932960015,0.003272492347489368,1.4642979050795677,52.17777203125082,-35.75
1773087539.1647124,nan,nan,nan,-0.24079221598626457,-1.1456815781800898,9.724237615325345,1.6798194205216393e-05,0.0021815968932960015,0.003272492347489368,1.4642979050795677,52.17777203125082,-35.75
1773087539.203229,nan,nan,nan,-0.23979476478375955,-1.1582240146038583,9.749732966411447,0.0010740002524427844,-0.00218999599039861,0.0,1.4642979050795677,52.17777203125082,-35.75
1773087539.432529,0.006378690782927602,1.4279436209050176,-6.811133847124756,-0.23979476478375955,-1.1582240146038583,9.749732966411447,0.0010740002524427844,-0.00218999599039861,0.0,1.4642979050795677,52.17777203125082,-35.75
1773087539.45474,nan,nan,nan,-0.2395295293919312,-1.1615592133895087,9.756512515544417,-0.004354794689489395,0.0011243948350584336,-0.001090830782496456,1.4642979050795677,52.17777203125082,-35.75
1773087539.4775224,nan,nan,nan,-0.2395295293919312,-1.1615592133895087,9.756512515544417,-0.004354794689489395,0.0011243948350584336,-0.001090830782496456,1.4642979050795677,52.17777203125082,-35.75
1773087539.5042105,nan,nan,nan,-0.23935301820154292,-1.1637787509247477,9.764369341467201,-8.399097102608196e-06,-0.0010907984466480007,0.001090830782496456,1.9017849361260637,52.174403401540914,-37.0
1773087539.5206277,0.006378690782927602,1.4279436209050176,-6.811133847124756,-0.23918403909527486,-1.1585658032664004,9.772943083059639,-2.5197291307824593e-05,-0.0032723953399440026,-0.001090830782496456,1.9017849361260637,52.174403401540914,-37.0
1773087539.721456,0.006378690782927602,1.4279436209050176,-6.811133847124756,-0.23918403909527486,-1.1585658032664004,9.772943083059639,-2.5197291307824593e-05,-0.0032723953399440026,-0.001090830782496456,1.9017849361260637,52.174403401540914,-37.0
1773087539.7389383,nan,nan,nan,-0.23572657284057888,-1.1551224012726231,9.775303700607116,-0.0010740002524427844,0.00218999599039861,0.0,1.9070784970987638,52.86188302175684,-37.0
1773087539.7519126,nan,nan,nan,-0.24011569276469724,-1.1527793428302613,9.766839330093179,0.001107596640853217,0.0021731977961933933,0.001090830782496456,1.9070784970987638,52.86188302175684,-37.0
1773087539.7679634,nan,nan,nan,-0.24011569276469724,-1.1527793428302613,9.766839330093179,0.001107596640853217,0.0021731977961933933,0.001090830782496456,1.9070784970987638,52.86188302175684,-37.0
1773087539.7811675,0.006378690782927602,1.4279436209050176,-6.811133847124756,-0.23969159049742098,-1.151245820050959,9.761206386069368,-8.399097102608196e-06,-0.0010907984466480007,-0.001090830782496456,1.9070784970987638,52.86188302175684,-37.0
1773087539.8012967,0.006378690782927602,1.4279436209050176,-6.811133847124756,-0.23969159049742098,-1.151245820050959,9.761206386069368,-8.399097102608196e-06,-0.0010907984466480007,-0.001090830782496456,1.9070784970987638,52.86188302175684,-37.0
1773087540.0235837,0.006378690782927602,1.4279436209050176,-6.811133847124756,-0.23943511161649328,-1.1535702903190002,9.764147948160268,-0.0011159957379558254,-0.0032639962428413945,0.0,1.9070784970987638,52.86188302175684,-37.0
1773087540.0685258,nan,nan,nan,-0.23929018422670462,-1.1584622118634422,9.76610552487236,3.3596388410432786e-05,0.004363193786592003,-0.003272492347489368,1.9070784970987638,52.86188302175684,-37.0
1773087540.1108391,0.006378690782927602,1.4279436209050176,-6.811133847124756,-0.2391937366677453,-1.1617177310049243,9.774098493721333,-2.5197291307824593e-05,-0.0032723953399440026,0.0,2.6517627036343425,52.16862860775252,-37.25
1773087540.3176813,0.006378690782927602,1.4279436209050176,-6.811133847124756,-0.2391937366677453,-1.1617177310049243,9.774098493721333,-2.5197291307824593e-05,-0.0032723953399440026,0.0,2.6517627036343425,52.16862860775252,-37.25
1773087540.3476825,nan,nan,nan,-0.23573302646672895,-1.157219973973271,9.779417725203011,0.0,0.0,0.0,1.9017849361260637,52.174403401540914,-36.5625
1773087540.3672948,nan,nan,nan,-0.23342996248661854,-1.154226766911944,9.759541832383123,-1.6798194205216393e-05,-0.0021815968932960015,-0.001090830782496456,1.9017849361260637,52.174403401540914,-36.5625
1773087540.3942575,0.006378690782927602,1.4279436209050176,-6.811133847124756,-0.2352165552414484,-1.1488640520614375,9.746314647739759,-1.6798194205216393e-05,-0.0021815968932960015,-0.002181661564992912,1.9017849361260637,52.174403401540914,-36.5625
1773087540.4082177,0.006378690782927602,1.4279436209050176,-6.811133847124756,-0.2364312692026509,-1.1486402377809704,9.75423766265353,-0.0010907984466480007,8.399097102608196e-06,0.002181661564992912,1.9017849361260637,52.174403401540914,-36.5625
1773087540.642734,0.006378690782927602,1.4279436209050176,-6.811133847124756,-0.2364312692026509,-1.1486402377809704,9.75423766265353,-0.0010907984466480007,8.399097102608196e-06,0.002181661564992912,1.9017849361260637,52.174403401540914,-36.5625
1773087540.6616771,nan,nan,nan,-0.240584660321682,-1.148465535437077,9.769545675694728,0.00656998797119583,0.0032220007573283537,-0.001090830782496456,1.9017849361260637,52.174403401540914,-36.5625
1773087540.7001188,0.006378690782927602,1.4279436209050176,-6.811133847124756,-0.24334869571497839,-1.148349272978769,9.769697652249976,-0.0010907984466480007,8.399097102608196e-06,0.0,2.967140836990325,52.54121132742816,-36.5625
1773087540.7192204,0.006378690782927602,1.4279436209050176,-6.811133847124756,-0.24334869571497839,-1.148349272978769,9.769697652249976,-0.0010907984466480007,8.399097102608196e-06,0.0,2.967140836990325,52.54121132742816,-36.5625
1773087540.9439201,0.006378690782927602,1.4279436209050176,-6.811133847124756,-0.2485331429400136,-1.14824614517109,9.766453679242485,0.0,0.0,0.001090830782496456,2.967140836990325,52.54121132742816,-36.5625
1773087540.9616983,nan,nan,nan,-0.25198333465420436,-1.1481775147670925,9.764294851443553,0.0021899959903986096,0.0010740002524427844,-0.001090830782496456,2.282067380852903,52.85899562486264,-37.0
1773087541.018761,0.006378690782927602,1.4279436209050176,-6.811133847124756,-0.25427939869883154,-1.1481318419998843,9.762858175659051,-0.0011159957379558254,-0.0032639962428413945,0.001090830782496456,2.282067380852903,52.85899562486264,-37.0
1773087541.2821832,0.006378690782927602,1.4279436209050176,-6.811133847124756,-0.25253966044595577,-1.158162241365202,9.765247195680503,0.0,0.0,0.002181661564992912,2.6633122912111427,53.66858414276907,-35.0
1773087541.3141038,nan,nan,nan,-0.25135612763240467,-1.1614923475488232,9.763491950110359,0.0,0.0,-0.003272492347489368,2.6633122912111427,53.66858414276907,-35.0
1773087541.3350356,0.006378690782927602,1.4279436209050176,-6.811133847124756,-0.24722348721881932,-1.1637342524547118,9.762323853790805,0.0,0.0,-0.002181661564992912,2.964253440096125,52.166222443674016,-36.0625
1773087541.348336,0.006378690782927602,1.4279436209050176,-6.811133847124756,-0.24722348721881932,-1.1637342524547118,9.762323853790805,0.0,0.0,-0.002181661564992912,2.964253440096125,52.166222443674016,-36.0625
1773087541.3700159,0.006378690782927602,1.4279436209050176,-6.811133847124756,-0.24444750474778462,-1.161881202578767,9.754856275323995,-0.0010823993495453926,0.001099197543750609,0.0,2.964253440096125,52.166222443674016,-36.0625
1773087541.5661716,0.006378690782927602,1.4279436209050176,-6.811133847124756,-0.24444750474778462,-1.161881202578767,9.754856275323995,-0.0010823993495453926,0.001099197543750609,0.0,2.964253440096125,52.166222443674016,-36.0625
1773087541.5903785,nan,nan,nan,-0.24260011942306706,-1.160648018586249,9.756576908687288,4.1995485513040985e-05,0.005453992233240004,0.001090830782496456,1.9046723330202637,52.549392285295056,-36.0625
1773087541.611683,nan,nan,nan,-0.24134494868570183,-1.1564823358677017,9.761067082677146,-0.0010907984466480007,8.399097102608196e-06,0.001090830782496456,1.9046723330202637,52.549392285295056,-36.0625
1773087541.6255503,nan,nan,nan,-0.24134494868570183,-1.1564823358677017,9.761067082677146,-0.0010907984466480007,8.399097102608196e-06,0.001090830782496456,1.9046723330202637,52.549392285295056,-36.0625
1773087541.6429179,0.006378690782927602,1.4279436209050176,-6.811133847124756,-0.24053540302157306,-1.157055133099328,9.764055243308865,-0.0021731977961933933,0.0011075966408532173,0.001090830782496456,1.9046723330202637,52.549392285295056,-36.0625
1773087541.6645637,0.006378690782927602,1.4279436209050176,-6.811133847124756,-0.24053540302157306,-1.157055133099328,9.764055243308865,-0.0021731977961933933,0.0011075966408532173,0.001090830782496456,1.9046723330202637,52.549392285295056,-36.0625
1773087541.8562136,0.006378690782927602,1.4279436209050176,-6.811133847124756,-0.23665164687821805,-1.1574620796988226,9.766043830829334,-0.0010907984466480007,8.399097102608196e-06,-0.001090830782496456,1.9046723330202637,52.549392285295056,-36.0625
1773087541.9018369,nan,nan,nan,-0.23409280698962598,-1.1610779106619902,9.770712325317547,0.0011243948350584336,0.004354794689489395,0.002181661564992912,1.9046723330202637,52.549392285295056,-36.0625
1773087541.9268506,0.006378690782927602,1.4279436209050176,-6.811133847124756,-0.2323899276278824,-1.1634842057764996,9.773819156248951,-0.0010823993495453926,0.001099197543750609,0.001090830782496456,2.6517627036343425,52.16862860775252,-37.375
1773087541.9491,0.006378690782927602,1.4279436209050176,-6.811133847124756,-0.2323899276278824,-1.1634842057764996,9.773819156248951,-0.0010823993495453926,0.001099197543750609,0.001090830782496456,2.6517627036343425,52.16862860775252,-37.375
1773087542.1500413,0.006378690782927602,1.4279436209050176,-6.811133847124756,-0.2323899276278824,-1.1634842057764996,9.773819156248951,-0.0010823993495453926,0.001099197543750609,0.001090830782496456,2.6517627036343425,52.16862860775252,-37.375
1773087542.1872013,nan,nan,nan,-0.24476551282549022,-1.181707605268955,9.933106967772236,0.0021899959903986096,0.0010740002524427844,0.00545415391248228,2.282067380852903,52.85899562486264,-37.375
1773087542.2249024,0.006378690782927602,1.4279436209050176,-6.811133847124756,-0.23954400702053794,-1.1839030621828361,9.878545865028208,-0.0021815968932960015,1.6798194205216393e-05,-0.003272492347489368,2.282067380852903,52.85899562486264,-37.375
1773087542.2526872,0.006378690782927602,1.4279436209050176,-6.811133847124756,-0.23954400702053794,-1.1839030621828361,9.878545865028208,-0.0021815968932960015,1.6798194205216393e-05,-0.003272492347489368,2.282067380852903,52.85899562486264,-37.375
1773087542.526023,0.006378690782927602,1.4279436209050176,-6.811133847124756,-0.24944920342376362,-1.1852610884725159,9.842236060639511,1.6798194205216393e-05,0.0021815968932960015,-0.001090830782496456,1.4787348895505679,54.052716450021514,-35.75
1773087542.5528498,nan,nan,nan,-0.24929946300680278,-1.179526327584784,9.814727179718606,-0.0010823993495453926,0.001099197543750609,0.002181661564992912,1.4787348895505679,54.052716450021514,-35.75
1773087542.576314,0.006378690782927602,1.4279436209050176,-6.811133847124756,-0.25254482497912034,-1.175684151835063,9.796420326760078,-0.0010823993495453926,0.001099197543750609,-0.001090830782496456,1.4590043441068676,51.49029241103489,-36.5625
1773087542.801226,0.006378690782927602,1.4279436209050176,-6.811133847124756,-0.25254482497912034,-1.175684151835063,9.796420326760078,-0.0010823993495453926,0.001099197543750609,-0.001090830782496456,1.4590043441068676,51.49029241103489,-36.5625
1773087542.8266916,nan,nan,nan,-0.254704577118629,-1.173127226793539,9.784237320617125,-0.0010740002524427844,0.00218999599039861,0.0,0.4672149452960631,52.56046064005616,-36.0625
1773087542.8453474,nan,nan,nan,-0.25611611160104797,-1.1680806091940341,9.779474777829405,2.5197291307824593e-05,0.0032723953399440026,0.001090830782496456,0.4672149452960631,52.56046064005616,-36.0625
1773087542.8665953,0.006378690782927602,1.4279436209050176,-6.811133847124756,-0.25039120337744647,-1.168118666983895,9.776305358805265,-0.0010991975437506089,-0.0010823993495453926,-0.001090830782496456,0.4672149452960631,52.56046064005616,-36.0625
1773087543.1222334,nan,nan,nan,-0.2465813409060548,-1.168143994017914,9.77419614584943,-0.0032555971457387863,0.0022067941846038264,-0.001090830782496456,1.4695914660522678,52.865251651466735,-36.0625
1773087543.1456542,nan,nan,nan,-0.2465813409060548,-1.168143994017914,9.77419614584943,-0.0032555971457387863,0.0022067941846038264,-0.001090830782496456,1.4695914660522678,52.865251651466735,-36.0625
1773087543.1638567,nan,nan,nan,-0.25073594508448593,-1.168109335995308,9.776137599896094,0.0,0.0,0.0,1.4695914660522678,52.865251651466735,-36.0625
1773087543.200614,nan,nan,nan,-0.25684580030235715,-1.1680605150280075,9.777429615876686,-8.399097102608196e-06,-0.0010907984466480007,0.0,1.4695914660522678,52.865251651466735,-36.0625
1773087543.429436,0.006378690782927602,1.4279436209050176,-6.811133847124756,-0.25684580030235715,-1.1680605150280075,9.777429615876686,-8.399097102608196e-06,-0.0010907984466480007,0.0,1.4695914660522678,52.865251651466735,-36.0625
1773087543.4456384,nan,nan,nan,-0.26091184069829565,-1.168028025219635,9.778289438079007,0.0010991975437506089,0.0010823993495453926,-0.002181661564992912,1.4695914660522678,52.865251651466735,-36.0625
1773087543.472459,nan,nan,nan,-0.26091184069829565,-1.168028025219635,9.778289438079007,0.0010991975437506089,0.0010823993495453926,-0.002181661564992912,1.4695914660522678,52.865251651466735,-36.0625
1773087543.5279958,0.006378690782927602,1.4279436209050176,-6.811133847124756,-0.2636177451611454,-1.1680064036150977,9.775516528442488,-1.6798194205216393e-05,-0.0021815968932960015,0.0,2.6517627036343425,52.16862860775252,-36.5625
1773087543.8272219,0.006378690782927602,1.4279436209050176,-6.811133847124756,-0.25872846926004867,-1.1680435275596313,9.777016299762135,-8.399097102608196e-06,-0.0010907984466480007,-0.002181661564992912,2.6517627036343425,52.16862860775252,-36.5625
1773087543.879247,0.006378690782927602,1.4279436209050176,-6.811133847124756,-0.24875892923005746,-1.1647747334637457,9.774669269114497,-1.6798194205216393e-05,-0.0021815968932960015,0.002181661564992912,1.9099658939929638,53.236871905510974,-35.75
1773087544.1629865,0.006378690782927602,1.4279436209050176,-6.811133847124756,-0.24875892923005746,-1.1647747334637457,9.774669269114497,-1.6798194205216393e-05,-0.0021815968932960015,0.002181661564992912,1.9099658939929638,53.236871905510974,-35.75
1773087544.1975675,nan,nan,nan,-0.2488143368013474,-1.1625478746269327,9.776452458143863,0.0010907984466480007,-8.399097102608196e-06,0.001090830782496456,1.4724788629464678,53.24024053522088,-37.0
1773087544.218718,nan,nan,nan,-0.2488143368013474,-1.1625478746269327,9.776452458143863,0.0010907984466480007,-8.399097102608196e-06,0.001090830782496456,1.4724788629464678,53.24024053522088,-37.0
1773087544.4801528,0.006378690782927602,1.4279436209050176,-6.811133847124756,-0.2512338030818988,-1.1756685910270899,9.886603252906404,0.003297592631251827,0.003247198048636178,0.0,1.4642979050795677,52.17777203125082,-38.1875
1773087544.5388265,0.006378690782927602,1.4279436209050176,-6.811133847124756,-0.24714208159691242,-1.1731683841304825,9.844253050558212,0.0,0.0,0.001090830782496456,1.4642979050795677,52.17777203125082,-38.1875
1773087544.7646792,0.006378690782927602,1.4279436209050176,-6.811133847124756,-0.24714208159691242,-1.1731683841304825,9.844253050558212,0.0,0.0,0.001090830782496456,1.4642979050795677,52.17777203125082,-38.1875
1773087544.7977731,nan,nan,nan,-0.24441908665617784,-1.1715045243699311,9.816069463978247,-0.0010907984466480007,8.399097102608196e-06,0.004363323129985824,2.279661216774403,52.546504888400854,-36.5625
1773087544.8291125,0.006378690782927602,1.4279436209050176,-6.811133847124756,-0.24255545106014173,-1.1637072191916258,9.797313601940571,-0.001107596640853217,-0.0021731977961933933,0.0,2.279661216774403,52.546504888400854,-36.5625
1773087544.8541868,0.006378690782927602,1.4279436209050176,-6.811133847124756,-0.24255545106014173,-1.1637072191916258,9.797313601940571,-0.001107596640853217,-0.0021731977961933933,0.0,2.279661216774403,52.546504888400854,-36.5625
1773087545.0921762,0.006378690782927602,1.4279436209050176,-6.811133847124756,-0.2446602349362483,-1.1584924432566577,9.788176896978525,0.0021731977961933933,-0.0011075966408532173,0.003272492347489368,1.4787348895505679,54.052716450021514,-35.375
1773087545.1388013,nan,nan,nan,-0.24611245797464457,-1.1617120932189904,9.782096521889965,-0.0010823993495453926,0.001099197543750609,0.001090830782496456,1.4787348895505679,54.052716450021514,-35.375
1773087545.1830275,0.006378690782927602,1.4279436209050176,-6.811133847124756,-0.24707889618430298,-1.1638547343030763,9.778050100190768,0.0010740002524427844,-0.00218999599039861,0.0,1.9017849361260637,52.174403401540914,-36.5625
1773087545.4059896,0.006378690782927602,1.4279436209050176,-6.811133847124756,-0.24774780645742045,-1.168625650556761,9.785392586873403,0.0021815968932960015,-1.6798194205216393e-05,0.001090830782496456,1.9017849361260637,52.174403401540914,-36.5625
1773087545.4238744,nan,nan,nan,-0.24819295877196274,-1.1718006420289615,9.790278929739745,0.004379991980797219,0.002148000504885569,0.003272492347489368,1.9070784970987638,52.86188302175684,-37.0
1773087545.4513109,nan,nan,nan,-0.25183421521170835,-1.1738878069463206,9.79353073633327,-0.0010991975437506089,-0.0010823993495453926,-0.001090830782496456,1.9070784970987638,52.86188302175684,-37.0
1773087545.4695268,nan,nan,nan,-0.25183421521170835,-1.1738878069463206,9.79353073633327,-0.0010991975437506089,-0.0010823993495453926,-0.001090830782496456,1.9070784970987638,52.86188302175684,-37.0
1773087545.5125473,nan,nan,nan,-0.25183421521170835,-1.1738878069463206,9.79353073633327,-0.0010991975437506089,-0.0010823993495453926,-0.001090830782496456,1.9070784970987638,52.86188302175684,-37.0
1773087545.7559316,0.006378690782927602,1.4279436209050176,-6.811133847124756,-0.2542316742564476,-1.1719317793365682,9.785659442174243,0.0010907984466480007,-8.399097102608196e-06,0.001090830782496456,1.9070784970987638,52.86188302175684,-37.0
1773087545.788372,nan,nan,nan,-0.2558271564693492,-1.170630064812538,9.780421183839527,-0.0010907984466480007,8.399097102608196e-06,0.0,1.9070784970987638,52.86188302175684,-37.0
1773087545.827908,0.006378690782927602,1.4279436209050176,-6.811133847124756,-0.2501731505247294,-1.1664702886716292,9.783625404847593,0.0021899959903986096,0.0010740002524427844,0.0,2.284954777747103,53.23398450861678,-37.75
1773087546.0682948,0.006378690782927602,1.4279436209050176,-6.811133847124756,-0.2501731505247294,-1.1664702886716292,9.783625404847593,0.0021899959903986096,0.0010740002524427844,0.0,2.284954777747103,53.23398450861678,-37.75
1773087546.124035,nan,nan,nan,-0.2439064526860911,-1.1618597416706555,9.853960882953789,-0.0010907984466480007,8.399097102608196e-06,0.0,1.4671853019737677,52.55276091500495,-36.1875
1773087546.4328809,0.006378690782927602,1.4279436209050176,-6.811133847124756,-0.2489043239737355,-1.1572372111637161,9.829220141408548,0.0010907984466480007,-8.399097102608196e-06,0.0,1.4671853019737677,52.55276091500495,-36.1875
1773087546.474146,nan,nan,nan,-0.25225610792619435,-1.1575059812954922,9.809410342575063,-1.6798194205216393e-05,-0.0021815968932960015,0.001090830782496456,1.4671853019737677,52.55276091500495,-36.1875
1773087546.497534,nan,nan,nan,-0.24777090117007392,-1.1543913451495589,9.799572254448652,0.001107596640853217,0.0021731977961933933,0.0,1.4695914660522678,52.865251651466735,-36.1875
1773087546.7392113,0.006378690782927602,1.4279436209050176,-6.811133847124756,-0.24777090117007392,-1.1543913451495589,9.799572254448652,0.001107596640853217,0.0021731977961933933,0.0,1.4695914660522678,52.865251651466735,-36.1875
1773087546.7648551,nan,nan,nan,-0.24481180261733002,-1.1556636021343007,9.79302511669917,-8.399097102608196e-06,-0.0010907984466480007,-0.001090830782496456,1.4695914660522678,52.865251651466735,-36.1875
1773087546.8337545,nan,nan,nan,-0.24286831202618758,-1.1598552874926997,9.795358293077848,-0.0010991975437506089,-0.0010823993495453926,0.0,1.4618917410010677,51.865281294789035,-37.0
1773087547.0587854,0.006378690782927602,1.4279436209050176,-6.811133847124756,-0.24286831202618758,-1.1598552874926997,9.795358293077848,-0.0010991975437506089,-0.0010823993495453926,0.0,1.4618917410010677,51.865281294789035,-37.0
1773087547.1070693,nan,nan,nan,-0.24491995329508967,-1.1626190508341088,9.796910995894573,-8.399097102608196e-06,-0.0010907984466480007,0.0,1.4618917410010677,51.865281294789035,-37.0
1773087547.1360915,0.006378690782927602,1.4279436209050176,-6.811133847124756,-0.24628529764120932,-1.164458304464557,9.794599190566956,-0.0010991975437506089,-0.0010823993495453926,0.0,1.1546945655119851,52.55516707908345,-36.1875
1773087547.1643205,0.006378690782927602,1.4279436209050176,-6.811133847124756,-0.24628529764120932,-1.164458304464557,9.794599190566956,-0.0010991975437506089,-0.0010823993495453926,0.0,1.1546945655119851,52.55516707908345,-36.1875
1773087547.3655488,0.006378690782927602,1.4279436209050176,-6.811133847124756,-0.24628529764120932,-1.164458304464557,9.794599190566956,-0.0010991975437506089,-0.0010823993495453926,0.0,1.1546945655119851,52.55516707908345,-36.1875
1773087547.3978443,nan,nan,nan,-0.2505389315987512,-1.1656565507693992,9.793060709945985,-0.0021815968932960015,1.6798194205216393e-05,0.001090830782496456,1.4695914660522678,52.865251651466735,-37.0
1773087547.4522872,0.006378690782927602,1.4279436209050176,-6.811133847124756,-0.2533439210408787,-1.1631089577528886,9.792036868278682,-0.0021983950875012178,-0.002164798699090785,0.0,1.4695914660522678,52.865251651466735,-37.0
1773087547.6851833,0.006378690782927602,1.4279436209050176,-6.811133847124756,-0.2533439210408787,-1.1631089577528886,9.792036868278682,-0.0021983950875012178,-0.002164798699090785,0.0,1.4695914660522678,52.865251651466735,-37.0
1773087547.732152,nan,nan,nan,-0.2621581996791384,-1.1948121756490049,10.042238891135108,-0.0010907984466480007,8.399097102608196e-06,-0.002181661564992912,2.284954777747103,53.23398450861678,-37.375
1773087547.7551396,0.006378690782927602,1.4279436209050176,-6.811133847124756,-0.25438638905845745,-1.1825632133014197,9.954517052650058,-0.0010991975437506089,-0.0010823993495453926,0.001090830782496456,2.284954777747103,53.23398450861678,-37.375
1773087547.9668765,0.006378690782927602,1.4279436209050176,-6.811133847124756,-0.25438638905845745,-1.1825632133014197,9.954517052650058,-0.0010991975437506089,-0.0010823993495453926,0.001090830782496456,2.284954777747103,53.23398450861678,-37.375
1773087547.9943671,nan,nan,nan,-0.24921433590720746,-1.1744116656889767,9.89279403734808,-0.0010823993495453926,0.001099197543750609,-0.006544984694978736,1.1571007295904852,52.867657815545236,-35.75
1773087548.0151951,nan,nan,nan,-0.24242737976357495,-1.1690126582520612,9.838337613326596,0.0,0.0,0.001090830782496456,1.1571007295904852,52.867657815545236,-35.75
1773087548.0477307,nan,nan,nan,-0.24242737976357495,-1.1690126582520612,9.838337613326596,0.0,0.0,0.001090830782496456,1.1571007295904852,52.867657815545236,-35.75
1773087548.3304682,nan,nan,nan,-0.23824997301843223,-1.1630028351928465,9.788015396996004,0.001107596640853217,0.0021731977961933933,-0.001090830782496456,1.1571007295904852,52.867657815545236,-35.75
1773087548.34698,nan,nan,nan,-0.23824997301843223,-1.1630028351928465,9.788015396996004,0.001107596640853217,0.0021731977961933933,-0.001090830782496456,1.1571007295904852,52.867657815545236,-35.75
1773087548.3792486,0.006378690782927602,1.4279436209050176,-6.811133847124756,-0.23847573128814867,-1.161394452561462,9.78198904545567,0.0,0.0,-0.002181661564992912,1.9099658939929638,53.236871905510974,-36.1875
1773087548.575684,0.006378690782927602,1.4279436209050176,-6.811133847124756,-0.23847573128814867,-1.161394452561462,9.78198904545567,0.0,0.0,-0.002181661564992912,1.9099658939929638,53.236871905510974,-36.1875
1773087548.6037626,nan,nan,nan,-0.23865172733517176,-1.1636691044341814,9.781323687531655,1.6798194205216393e-05,0.0021815968932960015,0.003272492347489368,2.969547001068825,52.85370206388994,-37.0
1773087548.6361878,0.006378690782927602,1.4279436209050176,-6.811133847124756,-0.24540736295182702,-1.1584413218709362,9.784226010973077,-0.0010991975437506089,-0.0010823993495453926,0.001090830782496456,2.969547001068825,52.85370206388994,-37.0
1773087548.652844,0.006378690782927602,1.4279436209050176,-6.811133847124756,-0.24995467587014034,-1.1616523160674441,9.786157474802266,-0.0010907984466480007,8.399097102608196e-06,0.0,2.969547001068825,52.85370206388994,-37.0
1773087548.907451,0.006378690782927602,1.4279436209050176,-6.811133847124756,-0.24995467587014034,-1.1616523160674441,9.786157474802266,-0.0010907984466480007,8.399097102608196e-06,0.0,2.969547001068825,52.85370206388994,-37.0
1773087548.924525,nan,nan,nan,-0.24289431129835562,-1.1571764410631107,9.780752618990087,8.399097102608196e-06,0.0010907984466480007,0.001090830782496456,1.9046723330202637,52.549392285295056,-35.75
1773087548.9377415,nan,nan,nan,-0.23824723042609672,-1.1608878213407163,9.76712041270132,-8.399097102608196e-06,-0.0010907984466480007,0.0,1.9046723330202637,52.549392285295056,-35.75
1773087548.9595942,nan,nan,nan,-0.23824723042609672,-1.1608878213407163,9.76712041270132,-8.399097102608196e-06,-0.0010907984466480007,0.0,1.9046723330202637,52.549392285295056,-35.75
1773087548.9910152,0.006378690782927602,1.4279436209050176,-6.811133847124756,-0.23515465001690314,-1.163357703456629,9.758048331697868,0.0010823993495453926,-0.001099197543750609,0.0,1.9046723330202637,52.549392285295056,-35.75
1773087549.2250695,0.006378690782927602,1.4279436209050176,-6.811133847124756,-0.23515465001690314,-1.163357703456629,9.758048331697868,0.0010823993495453926,-0.001099197543750609,0.0,1.9046723330202637,52.549392285295056,-35.75
1773087549.2487376,nan,nan,nan,-0.23309657230097156,-1.1650013824143775,9.765391409961133,-0.0043379964952841785,0.0033059917283544357,0.0,2.6570562646070424,52.856108227968434,-35.375
1773087549.278925,nan,nan,nan,-0.2384169696654434,-1.1660437195188382,9.770278146517777,-0.001057202058237568,0.004371592883694611,-0.001090830782496456,2.6570562646070424,52.856108227968434,-35.375
1773087549.312288,nan,nan,nan,-0.2384169696654434,-1.1660437195188382,9.770278146517777,-0.001057202058237568,0.004371592883694611,-0.001090830782496456,2.6570562646070424,52.856108227968434,-35.375
1773087549.5387692,0.006378690782927602,1.4279436209050176,-6.811133847124756,-0.2453026472258616,-1.1667116267777768,9.77018510340048,2.5197291307824593e-05,0.0032723953399440026,0.0,2.6570562646070424,52.856108227968434,-35.375
1773087549.560942,nan,nan,nan,-0.24988498872426165,-1.1671561115975875,9.770123184245278,0.0021899959903986096,0.0010740002524427844,-0.00545415391248228,2.6570562646070424,52.856108227968434,-35.375
1773087549.592686,0.006378690782927602,1.4279436209050176,-6.811133847124756,-0.2529602422437503,-1.1707969238270455,9.773427089446495,-0.0011159957379558254,-0.0032639962428413945,0.001090830782496456,1.9070784970987638,52.86188302175684,-36.5625
1773087549.6340632,0.006378690782927602,1.4279436209050176,-6.811133847124756,-0.2529602422437503,-1.1707969238270455,9.773427089446495,-0.0011159957379558254,-0.0032639962428413945,0.001090830782496456,1.9070784970987638,52.86188302175684,-36.5625
1773087549.8546154,0.006378690782927602,1.4279436209050176,-6.811133847124756,-0.2529602422437503,-1.1707969238270455,9.773427089446495,-0.0011159957379558254,-0.0032639962428413945,0.001090830782496456,1.9070784970987638,52.86188302175684,-36.5625
1773087549.9152906,nan,nan,nan,-0.25845482741687986,-1.1865741374431804,9.809076918524058,0.0010823993495453926,-0.001099197543750609,0.001090830782496456,1.4671853019737677,52.55276091500495,-36.5625
1773087550.1718745,nan,nan,nan,-0.25845482741687986,-1.1865741374431804,9.809076918524058,0.0010823993495453926,-0.001099197543750609,0.001090830782496456,1.4671853019737677,52.55276091500495,-36.5625
1773087550.2068238,nan,nan,nan,-0.2688787068864851,-1.207057221622155,9.876287933735643,-8.399097102608196e-06,-0.0010907984466480007,0.0,2.284954777747103,53.23398450861678,-36.5625
1773087550.235122,0.006378690782927602,1.4279436209050176,-6.811133847124756,-0.27581568223114405,-1.2206884853322197,9.92101611356272,-8.399097102608196e-06,-0.0010907984466480007,0.001090830782496456,2.284954777747103,53.23398450861678,-36.5625
1773087550.259624,0.006378690782927602,1.4279436209050176,-6.811133847124756,-0.27581568223114405,-1.2206884853322197,9.92101611356272,-8.399097102608196e-06,-0.0010907984466480007,0.001090830782496456,2.284954777747103,53.23398450861678,-36.5625
1773087550.5151865,0.006378690782927602,1.4279436209050176,-6.811133847124756,-0.26684606012024753,-1.2031028644449633,9.873844648322786,0.0010907984466480007,-8.399097102608196e-06,-0.001090830782496456,2.284954777747103,53.23398450861678,-36.5625
1773087550.5600097,nan,nan,nan,-0.25750610781518324,-1.1880805740820681,9.839107453438084,0.0010823993495453926,-0.001099197543750609,-0.002181661564992912,2.284954777747103,53.23398450861678,-36.5625
1773087550.5906308,nan,nan,nan,-0.25750610781518324,-1.1880805740820681,9.839107453438084,0.0010823993495453926,-0.001099197543750609,-0.002181661564992912,2.284954777747103,53.23398450861678,-36.5625
1773087550.8866084,0.006378690782927602,1.4279436209050176,-6.811133847124756,-0.25126471744985457,-1.1747383951084451,9.815990238282208,0.0021815968932960015,-1.6798194205216393e-05,0.0,1.9133345237028638,53.674358936557475,-37.375
1773087550.9458144,0.006378690782927602,1.4279436209050176,-6.811133847124756,-0.24434698374111635,-1.1599504014353414,9.780344429213068,0.0021815968932960015,-1.6798194205216393e-05,0.002181661564992912,2.972434397963025,53.228690947644075,-36.1875
1773087551.3083565,nan,nan,nan,-0.24255898025643446,-1.1627081045408563,9.766848766964493,0.0010823993495453926,-0.001099197543750609,0.002181661564992912,2.972434397963025,53.228690947644075,-36.1875
1773087551.355012,0.006378690782927602,1.4279436209050176,-6.811133847124756,-0.24471409645778122,-1.1645175687116023,9.76455777790913,0.0021731977961933933,-0.0011075966408532173,-0.001090830782496456,2.2767738198802028,52.17151600464671,-36.5625
1773087551.570179,0.006378690782927602,1.4279436209050176,-6.811133847124756,-0.24471409645778122,-1.1645175687116023,9.76455777790913,0.0021731977961933933,-0.0011075966408532173,-0.001090830782496456,2.2767738198802028,52.17151600464671,-36.5625
1773087551.5942702,nan,nan,nan,-0.24625132797719976,-1.1791017970925743,9.77306848540677,0.0011159957379558254,0.0032639962428413945,-0.001090830782496456,1.4695914660522678,52.865251651466735,-37.0
1773087551.6222668,nan,nan,nan,-0.24625132797719976,-1.1791017970925743,9.77306848540677,0.0011159957379558254,0.0032639962428413945,-0.001090830782496456,1.4695914660522678,52.865251651466735,-37.0
1773087551.651705,0.006378690782927602,1.4279436209050176,-6.811133847124756,-0.24717131261972392,-1.1754273879752257,9.778732266175616,0.0010991975437506089,0.0010823993495453926,0.0,1.4695914660522678,52.865251651466735,-37.0
1773087551.8696275,0.006378690782927602,1.4279436209050176,-6.811133847124756,-0.25112856466951683,-1.1729563533130576,9.779156337301387,8.399097102608196e-06,0.0010907984466480007,-0.001090830782496456,2.291210804351203,54.046460423417415,-36.5625
1773087551.9021838,nan,nan,nan,-0.2503655462753334,-1.1646476386948728,9.776093440191083,-0.0010907984466480007,8.399097102608196e-06,0.001090830782496456,2.291210804351203,54.046460423417415,-36.5625
1773087551.9198353,nan,nan,nan,-0.2503655462753334,-1.1646476386948728,9.776093440191083,-0.0010907984466480007,8.399097102608196e-06,0.001090830782496456,2.291210804351203,54.046460423417415,-36.5625
1773087551.9359527,0.006378690782927602,1.4279436209050176,-6.811133847124756,-0.24656426639120718,-1.1658340634654962,9.774055116378978,-0.0010991975437506089,-0.0010823993495453926,-0.002181661564992912,1.4724788629464678,53.24024053522088,-36.1875
1773087551.9642105,0.006378690782927602,1.4279436209050176,-6.811133847124756,-0.24656426639120718,-1.1658340634654962,9.774055116378978,-0.0010991975437506089,-0.0010823993495453926,-0.002181661564992912,1.4724788629464678,53.24024053522088,-36.1875
1773087552.2028575,0.006378690782927602,1.4279436209050176,-6.811133847124756,-0.24400880065098787,-1.163278603350018,9.772698634651592,-0.0010907984466480007,8.399097102608196e-06,0.002181661564992912,1.4724788629464678,53.24024053522088,-36.1875
1773087552.2277484,nan,nan,nan,-0.24230816674729472,-1.1615779731895273,9.77179591121491,-8.399097102608196e-06,-0.0010907984466480007,0.002181661564992912,1.9046723330202637,52.549392285295056,-37.375
1773087552.249209,0.006378690782927602,1.4279436209050176,-6.811133847124756,-0.24117641388171238,-1.1604462228150043,9.77119515885188,-1.6798194205216393e-05,-0.0021815968932960015,-0.001090830782496456,1.9046723330202637,52.549392285295056,-37.375
1773087552.2657948,0.006378690782927602,1.4279436209050176,-6.811133847124756,-0.24117641388171238,-1.1604462228150043,9.77119515885188,-1.6798194205216393e-05,-0.0021815968932960015,-0.001090830782496456,1.9046723330202637,52.549392285295056,-37.375
1773087552.5010324,0.006378690782927602,1.4279436209050176,-6.811133847124756,-0.24376825753927012,-1.1596672991428274,9.774140476572446,0.0,0.0,0.0,1.9133345237028638,53.674358936557475,-37.0
1773087552.5180287,nan,nan,nan,-0.24549310054058407,-1.159148934140141,9.776100552614128,0.0,0.0,0.0,1.9133345237028638,53.674358936557475,-37.0
1773087552.5352683,nan,nan,nan,-0.24658945140937585,-1.1521139429271803,9.777404961324384,-8.399097102608196e-06,-0.0010907984466480007,0.0,1.9133345237028638,53.674358936557475,-37.0
1773087552.56825,nan,nan,nan,-0.24658945140937585,-1.1521139429271803,9.777404961324384,-8.399097102608196e-06,-0.0010907984466480007,0.0,1.9133345237028638,53.674358936557475,-37.0
1773087552.804968,0.006378690782927602,1.4279436209050176,-6.811133847124756,-0.24062903557132528,-1.1474837477417794,9.77492791904254,-1.6798194205216393e-05,-0.0021815968932960015,0.001090830782496456,1.4724788629464678,53.24024053522088,-36.1875
1773087552.8332083,nan,nan,nan,-0.2366882018537221,-1.1477474171156596,9.773279475074347,-0.0010991975437506089,-0.0010823993495453926,0.001090830782496456,1.4724788629464678,53.24024053522088,-36.1875
1773087552.8500082,0.006378690782927602,1.4279436209050176,-6.811133847124756,-0.2340656210366543,-1.1479228861385968,9.768837342320522,-1.6798194205216393e-05,-0.0021815968932960015,0.0,1.4724788629464678,53.24024053522088,-36.1875
1773087552.8647792,0.006378690782927602,1.4279436209050176,-6.811133847124756,-0.2340656210366543,-1.1479228861385968,9.768837342320522,-1.6798194205216393e-05,-0.0021815968932960015,0.0,1.4724788629464678,53.24024053522088,-36.1875
1773087552.879912,0.006378690782927602,1.4279436209050176,-6.811133847124756,-0.23234607923945486,-1.151384671360339,9.765881152594725,-1.6798194205216393e-05,-0.0021815968932960015,0.002181661564992912,1.9017849361260637,52.174403401540914,-37.75
1773087553.0908399,nan,nan,nan,-0.23122749982237104,-1.1570334633018284,9.770604064769648,0.0,0.0,0.0,2.279661216774403,52.546504888400854,-36.5625
1773087553.142475,0.006378690782927602,1.4279436209050176,-6.811133847124756,-0.23717312280984237,-1.1607411583569256,9.773747110063674,0.0010823993495453926,-0.001099197543750609,0.0,2.279661216774403,52.546504888400854,-36.5625
1773087553.167881,0.006378690782927602,1.4279436209050176,-6.811133847124756,-0.23717312280984237,-1.1607411583569256,9.773747110063674,0.0010823993495453926,-0.001099197543750609,0.0,2.279661216774403,52.546504888400854,-36.5625
1773087553.3829765,0.006378690782927602,1.4279436209050176,-6.811133847124756,-0.23717312280984237,-1.1607411583569256,9.773747110063674,0.0010823993495453926,-0.001099197543750609,0.0,2.279661216774403,52.546504888400854,-36.5625
1773087553.421171,nan,nan,nan,-0.2479744322277053,-1.1832271504001708,9.939749245255381,-0.002156399601988177,0.003289193534149219,-0.003272492347489368,2.6546501005285426,52.54361749150665,-36.5625
1773087553.4570162,0.006378690782927602,1.4279436209050176,-6.811133847124756,-0.24834377569051158,-1.1815177770653102,9.88296622649414,-2.5197291307824593e-05,-0.0032723953399440026,0.001090830782496456,2.6546501005285426,52.54361749150665,-36.5625
1773087553.7076085,0.006378690782927602,1.4279436209050176,-6.811133847124756,-0.24834377569051158,-1.1815177770653102,9.88296622649414,-2.5197291307824593e-05,-0.0032723953399440026,0.001090830782496456,2.6546501005285426,52.54361749150665,-36.5625
1773087553.7545586,nan,nan,nan,-0.25877914592292856,-1.2003730141672457,10.055919799377538,8.399097102608196e-06,0.0010907984466480007,-0.001090830782496456,1.9070784970987638,52.86188302175684,-36.5625
1773087553.7989693,nan,nan,nan,-0.25877914592292856,-1.2003730141672457,10.055919799377538,8.399097102608196e-06,0.0010907984466480007,-0.001090830782496456,1.9070784970987638,52.86188302175684,-36.5625
1773087554.0505402,nan,nan,nan,-0.25666821100932574,-1.1812579076348255,9.893281728629225,-0.001107596640853217,-0.0021731977961933933,0.0,1.152288401433485,52.24267634262167,-36.1875
1773087554.0775683,0.006378690782927602,1.4279436209050176,-6.811133847124756,-0.2540778754729839,-1.1735172429086662,9.848697501548285,-1.6798194205216393e-05,-0.0021815968932960015,-0.001090830782496456,1.152288401433485,52.24267634262167,-36.1875
1773087554.1300645,0.006378690782927602,1.4279436209050176,-6.811133847124756,-0.2540778754729839,-1.1735172429086662,9.848697501548285,-1.6798194205216393e-05,-0.0021815968932960015,-0.001090830782496456,1.152288401433485,52.24267634262167,-36.1875
1773087554.3562014,0.006378690782927602,1.4279436209050176,-6.811133847124756,-0.25235403610949225,-1.1683659170022977,9.825717419879009,0.0010907984466480007,-8.399097102608196e-06,0.001090830782496456,1.9099658939929638,53.236871905510974,-36.1875
1773087554.4002702,nan,nan,nan,-0.24781031484171726,-1.1582734985019125,9.810424432232438,-0.0021815968932960015,1.6798194205216393e-05,-0.001090830782496456,1.9099658939929638,53.236871905510974,-36.1875
1773087554.4358866,0.006378690782927602,1.4279436209050176,-6.811133847124756,-0.24478651909470528,-1.1515571067296078,9.790211784665551,-0.0010991975437506089,-0.0010823993495453926,-0.001090830782496456,1.4695914660522678,52.865251651466735,-37.0
1773087554.670028,0.006378690782927602,1.4279436209050176,-6.811133847124756,-0.24478651909470528,-1.1515571067296078,9.790211784665551,-0.0010991975437506089,-0.0010823993495453926,-0.001090830782496456,1.4695914660522678,52.865251651466735,-37.0
1773087554.699137,nan,nan,nan,-0.24277421680308056,-1.147087423032151,9.776760493499857,-0.0010823993495453926,0.001099197543750609,-0.001090830782496456,1.151807168617785,52.18017819532932,-37.0
1773087554.7278883,nan,nan,nan,-0.24153807786854142,-1.1574929486495118,9.774499032904494,-1.6798194205216393e-05,-0.0021815968932960015,0.0,1.151807168617785,52.18017819532932,-37.0
1773087554.7482843,nan,nan,nan,-0.24153807786854142,-1.1574929486495118,9.774499032904494,-1.6798194205216393e-05,-0.0021815968932960015,0.0,1.151807168617785,52.18017819532932,-37.0
1773087555.0101871,nan,nan,nan,-0.24459436624078526,-1.165646767048138,9.768647399208351,0.0,0.0,0.001090830782496456,2.284954777747103,53.23398450861678,-37.0
1773087555.0489311,0.006378690782927602,1.4279436209050176,-6.811133847124756,-0.24269785410610864,-1.1631539596765041,9.765754747575379,0.0010823993495453926,-0.001099197543750609,0.0,2.967140836990325,52.54121132742816,-37.0
1773087555.2702732,0.006378690782927602,1.4279436209050176,-6.811133847124756,-0.24269785410610864,-1.1631539596765041,9.765754747575379,0.0010823993495453926,-0.001099197543750609,0.0,2.967140836990325,52.54121132742816,-37.0
1773087555.328334,nan,nan,nan,-0.24143574646590998,-1.1614950242171649,9.763829720226672,0.0021731977961933933,-0.0011075966408532173,-0.001090830782496456,2.6546501005285426,52.54361749150665,-37.0
1773087555.3566475,0.006378690782927602,1.4279436209050176,-6.811133847124756,-0.24394084047711884,-1.160365264760086,9.762548636030072,-2.5197291307824593e-05,-0.0032723953399440026,0.001090830782496456,2.6546501005285426,52.54361749150665,-37.0
1773087555.561416,0.006378690782927602,1.4279436209050176,-6.811133847124756,-0.24394084047711884,-1.160365264760086,9.762548636030072,-2.5197291307824593e-05,-0.0032723953399440026,0.001090830782496456,2.6546501005285426,52.54361749150665,-37.0
1773087555.6359158,0.006378690782927602,1.4279436209050176,-6.811133847124756,-0.25587479816283665,-1.1896412660642588,9.962402791247046,0.0,0.0,0.001090830782496456,1.4671853019737677,52.55276091500495,-37.0
1773087555.6519668,0.006378690782927602,1.4279436209050176,-6.811133847124756,-0.25587479816283665,-1.1896412660642588,9.962402791247046,0.0,0.0,0.001090830782496456,1.4671853019737677,52.55276091500495,-37.0
1773087555.885439,0.006378690782927602,1.4279436209050176,-6.811133847124756,-0.2535498680866476,-1.1790962742952042,9.898041908294903,-0.0010991975437506089,-0.0010823993495453926,0.001090830782496456,1.4671853019737677,52.55276091500495,-37.0
1773087555.9396563,nan,nan,nan,-0.25200265309211445,-1.1720787000681747,9.855210459648424,0.0,0.0,0.0,2.282067380852903,52.85899562486264,-36.1875
1773087555.9564068,0.006378690782927602,1.4279436209050176,-6.811133847124756,-0.24762798624968163,-1.167434339251939,9.826706609032822,-0.0011243948350584336,-0.004354794689489395,0.0,2.282067380852903,52.85899562486264,-36.1875
1773087556.1826267,0.006378690782927602,1.4279436209050176,-6.811133847124756,-0.24762798624968163,-1.167434339251939,9.826706609032822,-0.0011243948350584336,-0.004354794689489395,0.0,2.282067380852903,52.85899562486264,-36.1875
1773087556.1968148,nan,nan,nan,-0.24471669433427323,-1.164343569009644,9.811082726564333,0.0021731977961933933,-0.0011075966408532173,-0.001090830782496456,1.9046723330202637,52.549392285295056,-37.0
1773087556.219107,nan,nan,nan,-0.24617578751374927,-1.1689509645933402,9.800685207311757,-8.399097102608196e-06,-0.0010907984466480007,0.0,1.9046723330202637,52.549392285295056,-37.0
1773087556.2322826,nan,nan,nan,-0.24617578751374927,-1.1689509645933402,9.800685207311757,-8.399097102608196e-06,-0.0010907984466480007,0.0,1.9046723330202637,52.549392285295056,-37.0
1773087556.2455065,0.006378690782927602,1.4279436209050176,-6.811133847124756,-0.24714679772555181,-1.1720171348863093,9.79042066268975,-0.0010907984466480007,8.399097102608196e-06,0.0,1.9046723330202637,52.549392285295056,-37.0
1773087556.2828634,0.006378690782927602,1.4279436209050176,-6.811133847124756,-0.24714679772555181,-1.1720171348863093,9.79042066268975,-0.0010907984466480007,8.399097102608196e-06,0.0,1.9046723330202637,52.549392285295056,-37.0
1773087556.5013237,0.006378690782927602,1.4279436209050176,-6.811133847124756,-0.24774148129378776,-1.167367611870724,9.78358972290628,0.0,0.0,0.0,1.9162219205970639,54.04934782031161,-35.75
1773087556.5212677,nan,nan,nan,-0.24479222401830314,-1.164299162682839,9.775698697079658,0.0010740002524427844,-0.00218999599039861,0.0,1.9162219205970639,54.04934782031161,-35.75
1773087556.5472403,nan,nan,nan,-0.24479222401830314,-1.164299162682839,9.775698697079658,0.0010740002524427844,-0.00218999599039861,0.0,1.9162219205970639,54.04934782031161,-35.75
1773087556.5739074,0.006378690782927602,1.4279436209050176,-6.811133847124756,-0.24282952624683055,-1.1622571440251248,9.770447307540575,-0.001107596640853217,-0.0021731977961933933,0.001090830782496456,1.9046723330202637,52.549392285295056,-37.75
1773087556.794644,0.006378690782927602,1.4279436209050176,-6.811133847124756,-0.24282952624683055,-1.1622571440251248,9.770447307540575,-0.001107596640853217,-0.0021731977961933933,0.001090830782496456,1.9046723330202637,52.549392285295056,-37.75
1773087556.823126,nan,nan,nan,-0.24152337280468625,-1.1608982034192592,9.756917231342223,8.399097102608196e-06,0.0010907984466480007,0.001090830782496456,1.4671853019737677,52.55276091500495,-36.5625
1773087556.8410416,0.006378690782927602,1.4279436209050176,-6.811133847124756,-0.2406798987200411,-1.1633388561735116,9.764638675309671,-0.0010907984466480007,8.399097102608196e-06,-0.003272492347489368,1.4671853019737677,52.55276091500495,-36.5625
1773087556.8633897,0.006378690782927602,1.4279436209050176,-6.811133847124756,-0.2406798987200411,-1.1633388561735116,9.764638675309671,-0.0010907984466480007,8.399097102608196e-06,-0.003272492347489368,1.4671853019737677,52.55276091500495,-36.5625
1773087556.9025748,0.006378690782927602,1.4279436209050176,-6.811133847124756,-0.2406798987200411,-1.1633388561735116,9.764638675309671,-0.0010907984466480007,8.399097102608196e-06,-0.003272492347489368,1.4671853019737677,52.55276091500495,-36.5625
1773087557.1003933,0.006378690782927602,1.4279436209050176,-6.811133847124756,-0.24009281969852073,-1.1616180707704942,9.766432098308506,-0.0010907984466480007,8.399097102608196e-06,0.0,2.6546501005285426,52.54361749150665,-37.375
1773087557.1291475,nan,nan,nan,-0.23972788160821323,-1.1638179198543135,9.770970712987703,-0.002164798699090785,0.002198395087501218,0.001090830782496456,2.6546501005285426,52.54361749150665,-37.375
1773087557.143186,nan,nan,nan,-0.23972788160821323,-1.1638179198543135,9.770970712987703,-0.002164798699090785,0.002198395087501218,0.001090830782496456,2.6546501005285426,52.54361749150665,-37.375
1773087557.1749592,0.006378690782927602,1.4279436209050176,-6.811133847124756,-0.24949430058661204,-1.1618596129773402,9.77064599864974,-8.399097102608196e-06,-0.0010907984466480007,0.0,1.4695914660522678,52.865251651466735,-37.75
1773087557.432337,0.006378690782927602,1.4279436209050176,-6.811133847124756,-0.25601949975909993,-1.1639013941735303,9.770429904885125,-0.0010740002524427844,0.00218999599039861,0.0,1.4695914660522678,52.865251651466735,-37.75
1773087557.4499562,0.006378690782927602,1.4279436209050176,-6.811133847124756,-0.25601949975909993,-1.1639013941735303,9.770429904885125,-0.0010740002524427844,0.00218999599039861,0.0,1.4695914660522678,52.865251651466735,-37.75
1773087557.5090196,0.006378690782927602,1.4279436209050176,-6.811133847124756,-0.25699117792963305,-1.1619409206447215,9.770286096898698,-0.0021815968932960015,1.6798194205216393e-05,0.0,2.9758030276729253,53.66617797869057,-36.5625
1773087557.7532656,0.006378690782927602,1.4279436209050176,-6.811133847124756,-0.2576635753381783,-1.1639812599583186,9.770190394290172,-0.0010991975437506089,-0.0010823993495453926,0.0,2.9758030276729253,53.66617797869057,-36.5625
1773087557.8107324,nan,nan,nan,-0.25813680474280587,-1.1686840955265285,9.773471816980585,-1.6798194205216393e-05,-0.0021815968932960015,0.003272492347489368,1.9046723330202637,52.549392285295056,-36.5625
1773087557.8577592,nan,nan,nan,-0.25813680474280587,-1.1686840955265285,9.773471816980585,-1.6798194205216393e-05,-0.0021815968932960015,0.003272492347489368,1.9046723330202637,52.549392285295056,-36.5625
1773087558.1356976,-0.008091914089403171,1.4341156331154854,-6.818273002262358,-0.2585805158273263,-1.1885388427985315,9.775655567125161,0.0012167849031871237,0.0163535776026174,-0.025089107997418487,1.9046723330202637,52.549392285295056,-36.5625
1773087558.1556182,nan,nan,nan,-0.23880572531492741,-1.2019064939584616,9.83397572747672,0.010949979951993049,0.005370001262213922,-0.09817477042468103,1.9046723330202637,52.549392285295056,-36.5625
1773087558.1862037,-0.3334606262181887,1.37965414046297,-6.759555243055991,-0.221734168891653,-1.1372379968832709,9.83599091393129,0.011906392844999319,-0.012091172981256698,-0.009817477042468103,1.9046723330202637,52.549392285295056,-36.5625
1773087558.4006753,-0.3334606262181887,1.37965414046297,-6.759555243055991,-0.221734168891653,-1.1372379968832709,9.83599091393129,0.011906392844999319,-0.012091172981256698,-0.009817477042468103,1.9046723330202637,52.549392285295056,-36.5625
1773087558.429872,nan,nan,nan,-0.1360360259857106,-0.997763112297486,9.874128226786214,0.10032825980030825,-0.004045112273383957,0.055632369907319255,1.143144977935185,51.0552115440669,-38.5625
1773087558.448534,nan,nan,nan,-0.01164100232347496,-0.8452490376027235,9.862711953688953,0.3856229902697217,0.07120941309484337,0.40033489717619936,1.143144977935185,51.0552115440669,-38.5625
1773087558.4877903,nan,nan,nan,-0.01164100232347496,-0.8452490376027235,9.862711953688953,0.3856229902697217,0.07120941309484337,0.40033489717619936,1.143144977935185,51.0552115440669,-38.5625
1773087558.737831,nan,nan,nan,0.15968411541968416,-0.676465459918718,9.950340996424746,0.46985804447759333,0.10219583757073455,1.9547687622336491,1.4724788629464678,53.24024053522088,-37.0
1773087558.7575881,nan,nan,nan,0.15968411541968416,-0.676465459918718,9.950340996424746,0.46985804447759333,0.10219583757073455,1.9547687622336491,1.4724788629464678,53.24024053522088,-37.0
1773087558.7988493,10.952040155764834,2.9476611225557696,-2.0615345258783884,0.657193888824404,-0.15000812140350303,9.980332934677364,0.47272728315661217,0.04981231484032269,2.093304271610699,10.774115687562194,51.79357760524973,-41.75
1773087559.0155272,10.952040155764834,2.9476611225557696,-2.0615345258783884,0.657193888824404,-0.15000812140350303,9.980332934677364,0.47272728315661217,0.04981231484032269,2.093304271610699,10.774115687562194,51.79357760524973,-41.75
1773087559.030367,nan,nan,nan,0.9882810854769295,0.20034335646456694,10.000292234552578,-0.1309388932599642,-0.14625829774226973,0.4723297288209654,20.3872807830083,50.21951221661537,-48.1875
1773087559.0441341,nan,nan,nan,0.9882810854769295,0.20034335646456694,10.000292234552578,-0.1309388932599642,-0.14625829774226973,0.4723297288209654,20.3872807830083,50.21951221661537,-48.1875
1773087559.0685065,nan,nan,nan,0.9998858035415583,0.2611545981599261,10.013574925659546,-0.23089976114113983,-0.37784244813905915,1.0035643198967394,20.3872807830083,50.21951221661537,-48.1875
1773087559.0920336,18.846294077331525,1.5877349590630607,-2.036187691301836,0.9639173991448448,0.2751985335507031,9.79829192382345,-0.1799346016443777,-0.41750594978220984,0.954476934684399,20.3872807830083,50.21951221661537,-48.1875
1773087559.1064684,18.846294077331525,1.5877349590630607,-2.036187691301836,0.9639173991448448,0.2751985335507031,9.79829192382345,-0.1799346016443777,-0.41750594978220984,0.954476934684399,20.3872807830083,50.21951221661537,-48.1875
1773087559.3046055,18.846294077331525,1.5877349590630607,-2.036187691301836,0.9639173991448448,0.2751985335507031,9.79829192382345,-0.1799346016443777,-0.41750594978220984,0.954476934684399,20.3872807830083,50.21951221661537,-48.1875
1773087559.326261,nan,nan,nan,0.9132207274354761,0.28475066719552294,9.641643044140956,0.019164022601917956,-0.061235896760134995,0.3043417883165112,13.399037873841168,51.77336582699033,-56.1875
1773087559.3510025,nan,nan,nan,0.799743242850193,0.36197092349070553,9.537394964594899,-0.07245573199610257,-0.20125177131821062,1.0068368122442288,13.399037873841168,51.77336582699033,-56.1875
1773087559.3711982,nan,nan,nan,0.799743242850193,0.36197092349070553,9.537394964594899,-0.07245573199610257,-0.20125177131821062,1.0068368122442288,13.399037873841168,51.77336582699033,-56.1875
1773087559.406495,24.608673377571794,0.20167611556875273,-2.2623386770218223,0.7208802319381534,0.41338589788877816,9.501470149257544,-0.16677565915439868,-0.12525595705157166,0.9817477042468103,13.399037873841168,51.77336582699033,-56.1875
1773087559.5928583,24.608673377571794,0.20167611556875273,-2.2623386770218223,0.7208802319381534,0.41338589788877816,9.501470149257544,-0.16677565915439868,-0.12525595705157166,0.9817477042468103,13.399037873841168,51.77336582699033,-56.1875
1773087559.6107118,nan,nan,nan,0.6247323209386284,0.42452173490348916,9.604676830835153,0.28021138268537926,0.26510384966759515,0.8312130562622995,14.906693133908925,52.761786596091234,-61.0
1773087559.6267693,nan,nan,nan,0.5589182529417391,0.19443661919758912,9.619837937213768,0.27342301818951553,0.23352108929741874,0.7886706557449377,14.906693133908925,52.761786596091234,-61.0
1773087559.6414323,nan,nan,nan,0.5589182529417391,0.19443661919758912,9.619837937213768,0.27342301818951553,0.23352108929741874,0.7886706557449377,14.906693133908925,52.761786596091234,-61.0
1773087559.6570432,28.727577750210276,1.1979846473350206,-1.4374195751433254,0.5251290070819935,0.03789526304613251,9.700174830001787,0.2293375290800547,0.174953937062531,0.7494007475750653,14.906693133908925,52.761786596091234,-61.0
1773087559.6864226,28.727577750210276,1.1979846473350206,-1.4374195751433254,0.5251290070819935,0.03789526304613251,9.700174830001787,0.2293375290800547,0.174953937062531,0.7494007475750653,14.906693133908925,52.761786596091234,-61.0
1773087559.9307566,30.758282011355792,1.0983407817294086,-1.2547278944861084,0.5595336111539665,-0.06337410773104254,9.797124586925472,0.01905483433958405,-0.075416276566559,0.6021385919380436,15.159573119972553,53.13485054858258,-59.375
1773087559.9515543,nan,nan,nan,0.582403734398843,-0.13411275527735297,9.861643567158438,0.0159767024096911,0.09150948215899556,0.04908738521234052,15.159573119972553,53.13485054858258,-59.375
1773087559.9685755,nan,nan,nan,0.582403734398843,-0.13411275527735297,9.861643567158438,0.0159767024096911,0.09150948215899556,0.04908738521234052,15.159573119972553,53.13485054858258,-59.375
1773087560.0148513,31.440547568126284,1.5352063696027667,-0.8926929014520458,0.6412374912565859,-0.1647983060068333,9.894544892657287,0.11117121984334953,0.27076890350509136,0.07963064712224129,11.487100647010214,55.10068585077193,-63.25
1773087560.2366896,31.440547568126284,1.5352063696027667,-0.8926929014520458,0.6412374912565859,-0.1647983060068333,9.894544892657287,0.11117121984334953,0.27076890350509136,0.07963064712224129,11.487100647010214,55.10068585077193,-63.25
1773087560.2567945,nan,nan,nan,0.6799528397422844,-0.24208441053785468,9.916440357244882,0.028629530720131482,0.034687173768068215,-0.006544984694978736,17.781607909357326,52.73964988656903,-65.75
1773087560.3030164,31.521612335433616,2.473115083628287,-0.04841520494372591,0.7555063132809823,-0.3440789845734958,9.917631097510284,0.11395538337465119,0.0656651991468568,0.037088246604879506,17.781607909357326,52.73964988656903,-65.75
1773087560.336505,31.521612335433616,2.473115083628287,-0.04841520494372591,0.7555063132809823,-0.3440789845734958,9.917631097510284,0.11395538337465119,0.0656651991468568,0.037088246604879506,17.781607909357326,52.73964988656903,-65.75
1773087560.5570738,31.53496827618317,2.4949433286110594,0.2565037687385425,0.8158213435746706,-0.41203250356140486,10.08233399551412,0.1352674064814547,4.9310405924584514e-05,-0.00545415391248228,17.781607909357326,52.73964988656903,-65.75
1773087560.5938241,nan,nan,nan,0.8466464651623337,-0.3635171907174197,10.031376572332418,0.0026866268961435583,0.20724330576601757,0.15817046346198613,17.781607909357326,52.73964988656903,-65.75
1773087560.6203997,32.92792859807008,4.233145889997547,0.6920952818157715,0.6432762065480999,-0.29939999753984997,9.99746497643671,0.14687576853752438,0.5159381819907107,0.4308781590861001,21.458411477660963,51.33629791001089,-62.5625
1773087560.6384916,32.92792859807008,4.233145889997547,0.6920952818157715,0.6432762065480999,-0.29939999753984997,9.99746497643671,0.14687576853752438,0.5159381819907107,0.4308781590861001,21.458411477660963,51.33629791001089,-62.5625
1773087560.8186464,32.92792859807008,4.233145889997547,0.6920952818157715,0.6432762065480999,-0.29939999753984997,9.99746497643671,0.14687576853752438,0.5159381819907107,0.4308781590861001,21.458411477660963,51.33629791001089,-62.5625
1773087560.8324897,nan,nan,nan,0.4445348714826385,-0.23617127406575905,9.93810095940495,-0.17850567096024325,-0.09025801669070693,-0.136353847812057,23.966518327222126,52.37951710135295,-59.0
1773087560.8469565,nan,nan,nan,0.4445348714826385,-0.23617127406575905,9.93810095940495,-0.17850567096024325,-0.09025801669070693,-0.136353847812057,23.966518327222126,52.37951710135295,-59.0
1773087560.8600013,nan,nan,nan,0.2955496703472783,-0.19396448270281275,9.630985932624284,-0.3422934198994955,-0.11081412105827572,-0.24434609527920614,23.966518327222126,52.37951710135295,-59.0
1773087560.8727632,nan,nan,nan,0.19537142564896443,-0.2996768364153215,9.389808084220876,-0.2828947570514496,-0.04691056394958451,-0.11126473981463851,23.966518327222126,52.37951710135295,-59.0
1773087560.8971927,nan,nan,nan,0.19537142564896443,-0.2996768364153215,9.389808084220876,-0.2828947570514496,-0.04691056394958451,-0.11126473981463851,23.966518327222126,52.37951710135295,-59.0
1773087561.106099,33.184759397786124,4.809975243294397,-0.22043784051521176,0.16215404833750338,-0.37028479133074926,9.266103149022015,-0.1928949440175414,0.02439340756676967,-0.008726646259971648,23.966518327222126,52.37951710135295,-59.0
1773087561.1191158,nan,nan,nan,0.14071792224985336,-0.33030327035996115,9.146982667741332,-0.05901230438132595,-0.013726828562883169,-0.05890486225480862,23.966518327222126,52.37951710135295,-59.0
1773087561.1364381,nan,nan,nan,0.15321252017250003,-0.30390206630005023,9.194823562990138,-0.17486371534778447,-0.04228808232950272,-0.1712604328519436,23.966518327222126,52.37951710135295,-59.0
1773087561.171718,32.791013345549594,4.722893994005445,-1.0736157035852723,0.15028194517557275,-0.4434706803111789,9.273492708262873,-0.2152400560679657,-0.04415891263000222,-0.10471975511965978,22.62572661670498,56.82747268105567,-56.1875
1773087561.2092779,32.791013345549594,4.722893994005445,-1.0736157035852723,0.15028194517557275,-0.4434706803111789,9.273492708262873,-0.2152400560679657,-0.04415891263000222,-0.10471975511965978,22.62572661670498,56.82747268105567,-56.1875
1773087561.4354491,nan,nan,nan,0.18178180572273467,-0.53660959825613,9.372677709552416,0.07443466638224491,0.03324361324311067,0.09490227807719166,24.000685857136826,56.81688555911027,-55.75
1773087561.4530673,nan,nan,nan,0.18178180572273467,-0.53660959825613,9.372677709552416,0.07443466638224491,0.03324361324311067,0.09490227807719166,24.000685857136826,56.81688555911027,-55.75
1773087561.4677012,nan,nan,nan,0.16883086964200897,-0.6585451691621991,9.52231201262453,0.03976429080838192,0.06405474085653816,-0.06326818538479445,24.000685857136826,56.81688555911027,-55.75
1773087561.4992604,32.99184152316013,4.583419180629426,-1.348916496122905,0.08271023607947593,-0.8126898073972264,9.621891969794333,-0.011882279730382559,-0.12644862884014202,-0.04145156973486533,24.000685857136826,56.81688555911027,-55.75
1773087561.7212949,32.99184152316013,4.583419180629426,-1.348916496122905,0.08271023607947593,-0.8126898073972264,9.621891969794333,-0.011882279730382559,-0.12644862884014202,-0.04145156973486533,24.000685857136826,56.81688555911027,-55.75
1773087561.748205,nan,nan,nan,0.025397916474122085,-0.9152713422342035,9.581117744275609,-0.13405793649867911,0.15702566591138753,0.16253378659197193,23.684826490965143,56.38180469214227,-55.375
1773087561.7732747,nan,nan,nan,0.025397916474122085,-0.9152713422342035,9.581117744275609,-0.13405793649867911,0.15702566591138753,0.16253378659197193,23.684826490965143,56.38180469214227,-55.375
1773087561.829685,33.402791876980466,4.721594030348896,-1.91405438395696,-0.006001254027668146,-0.9768996955440183,9.553982952670841,-0.10141905824695625,0.004053511370486565,-0.030543261909900768,23.684826490965143,56.38180469214227,-55.375
1773087562.0516822,33.402791876980466,4.721594030348896,-1.91405438395696,-0.006001254027668146,-0.9768996955440183,9.553982952670841,-0.10141905824695625,0.004053511370486565,-0.030543261909900768,23.684826490965143,56.38180469214227,-55.375
1773087562.0998669,nan,nan,nan,-0.026897051244892778,-1.0179126762378854,9.76004753636375,-0.02262119807811934,0.037263528225186804,0.0545415391248228,26.33044168831922,59.049013247454205,-54.5625
1773087562.1230874,nan,nan,nan,-0.026897051244892778,-1.0179126762378854,9.76004753636375,-0.02262119807811934,0.037263528225186804,0.0545415391248228,26.33044168831922,59.049013247454205,-54.5625
1773087562.332354,33.450161878126636,4.925242108986823,-2.2165757844915395,-0.15787841001992897,-1.044304881330224,9.897181214919154,0.04334636856443135,-0.03742311107013636,-0.031634092692397225,26.33044168831922,59.049013247454205,-54.5625
1773087562.356201,nan,nan,nan,-0.24450415587841764,-0.9916233355099333,9.988442146114213,-0.004430386563412868,-0.008692791184773573,0.007635815477475192,26.707836736151858,59.358616587021785,-55.0
1773087562.386085,33.419511430765525,4.954948882094016,-2.245287697557204,-0.30215262207425597,-0.9565643552579562,10.012379047592614,0.008726387573184006,-6.719277682086557e-05,-0.006544984694978736,26.707836736151858,59.358616587021785,-55.0
1773087562.424961,33.419511430765525,4.954948882094016,-2.245287697557204,-0.30215262207425597,-0.9565643552579562,10.012379047592614,0.008726387573184006,-6.719277682086557e-05,-0.006544984694978736,26.707836736151858,59.358616587021785,-55.0
1773087562.6429977,nan,nan,nan,-0.32255898518323084,-1.2076785630389917,10.008238117889862,8.399097102608196e-06,0.0010907984466480007,0.002181661564992912,27.02032747261364,59.356210422943285,-55.0
1773087562.6758034,nan,nan,nan,-0.32255898518323084,-1.2076785630389917,10.008238117889862,8.399097102608196e-06,0.0010907984466480007,0.002181661564992912,27.02032747261364,59.356210422943285,-55.0
1773087562.697304,33.362932432108266,4.946734482993012,-2.1766219368701964,-0.3361391918782415,-1.3747922631877698,9.908474135917634,0.013123177748186443,0.004262404621360705,-0.01090830782496456,27.02032747261364,59.356210422943285,-55.0
1773087562.7112446,33.36387880667386,4.9473434240381495,-2.15445503271981,-0.313938271430944,-1.3390558197459643,9.939090559864079,0.016336779408412185,-0.0033983817964831258,0.0,27.02032747261364,59.356210422943285,-55.0
1773087562.7266047,33.36387880667386,4.9473434240381495,-2.15445503271981,-0.313938271430944,-1.3390558197459643,9.939090559864079,0.016336779408412185,-0.0033983817964831258,0.0,27.02032747261364,59.356210422943285,-55.0
1773087562.9116678,33.36387880667386,4.9473434240381495,-2.15445503271981,-0.313938271430944,-1.3390558197459643,9.939090559864079,0.016336779408412185,-0.0033983817964831258,0.0,27.02032747261364,59.356210422943285,-55.0
1773087562.9354763,nan,nan,nan,-0.274924512950953,-1.2084135094135184,9.862457208480311,0.0010823993495453926,-0.001099197543750609,0.13962634015954636,26.699655778284956,58.296148083051726,-55.0
1773087562.9534397,nan,nan,nan,-0.26568635523023154,-1.1213437290554447,9.794733010648443,0.00547079042744522,0.0021396014077829607,-0.002181661564992912,26.699655778284956,58.296148083051726,-55.0
1773087562.9771411,33.35175160601014,4.839578881301027,-2.2826339091852024,-0.2599505675106654,-1.1169199636138416,9.749663313520193,0.005462391330342612,0.0010488029611349598,-0.00545415391248228,26.699655778284956,58.296148083051726,-55.0
1773087563.1918848,33.35175160601014,4.839578881301027,-2.2826339091852024,-0.2599505675106654,-1.1169199636138416,9.749663313520193,0.005462391330342612,0.0010488029611349598,-0.00545415391248228,26.699655778284956,58.296148083051726,-55.0
1773087563.2087417,nan,nan,nan,-0.2561334648562413,-1.113975997129153,9.719669933542848,0.0010907984466480007,-8.399097102608196e-06,0.002181661564992912,26.702543175179155,58.67113696680586,-54.5625
1773087563.2262077,nan,nan,nan,-0.2561334648562413,-1.113975997129153,9.719669933542848,0.0010907984466480007,-8.399097102608196e-06,0.002181661564992912,26.702543175179155,58.67113696680586,-54.5625
1773087563.2445989,nan,nan,nan,-0.2535932256795525,-1.112016820319853,9.71643523275253,0.004363193786592003,-3.3596388410432786e-05,-0.003272492347489368,26.702543175179155,58.67113696680586,-54.5625
1773087563.2724004,33.329371494129205,4.567544361182421,-2.592754304415103,-0.24860922521752593,-1.1174287915733045,9.71428257551055,0.0021815968932960015,-1.6798194205216393e-05,0.0,26.702543175179155,58.67113696680586,-54.5625
1773087563.5181258,33.29209986082904,4.236543088341779,-3.023510727491628,-0.24866319757248728,-1.1243496540934796,9.736265788114004,-0.0010823993495453926,0.001099197543750609,0.002181661564992912,26.719386323728656,60.85857212203834,-54.5625
1773087563.5473301,nan,nan,nan,-0.24532834658429645,-1.1256361546828728,9.750895370533026,0.0010823993495453926,-0.001099197543750609,0.002181661564992912,26.719386323728656,60.85857212203834,-54.5625
1773087563.569594,33.27918146319694,4.085985539847957,-3.252119599894622,-0.24982482203898368,-1.129785806120232,9.760631194209743,-0.0021899959903986096,-0.0010740002524427844,-0.001090830782496456,26.699655778284956,58.296148083051726,-55.75
1773087563.5972228,33.27918146319694,4.085985539847957,-3.252119599894622,-0.24982482203898368,-1.129785806120232,9.760631194209743,-0.0021899959903986096,-0.0010740002524427844,-0.001090830782496456,26.699655778284956,58.296148083051726,-55.75
1773087563.8307958,33.254671108620904,3.889341501959783,-3.5464848952985664,-0.2496524587609445,-1.155988197067227,9.757074940988364,0.002206794184603826,0.0032555971457387863,-0.001090830782496456,26.699655778284956,58.296148083051726,-55.75
1773087563.8524888,nan,nan,nan,-0.2529342783527522,-1.1800898641963449,9.764743629317445,0.0021815968932960015,-1.6798194205216393e-05,-0.004363323129985824,26.707836736151858,59.358616587021785,-54.5625
1773087563.8723469,nan,nan,nan,-0.2550667797499494,-1.18943922934332,9.763156832320949,0.0010823993495453926,-0.001099197543750609,-0.001090830782496456,26.707836736151858,59.358616587021785,-54.5625
1773087563.8981066,33.246522280153684,3.7743192715332747,-3.6985287153944078,-0.2564859356081827,-1.1956611274093805,9.768791060060103,0.0010740002524427844,-0.00218999599039861,-0.003272492347489368,26.707836736151858,59.358616587021785,-54.5625
1773087563.9136696,33.246522280153684,3.7743192715332747,-3.6985287153944078,-0.2564859356081827,-1.1956611274093805,9.768791060060103,0.0010740002524427844,-0.00218999599039861,-0.003272492347489368,26.707836736151858,59.358616587021785,-54.5625
1773087564.1388578,33.23702781359501,3.6730094711447445,-3.8242075432805485,-0.2506115606825779,-1.1831281812145371,9.772540575682061,0.0010907984466480007,-8.399097102608196e-06,-0.002181661564992912,26.707836736151858,59.358616587021785,-54.5625
1773087564.1701705,nan,nan,nan,-0.24670222979065545,-1.1747876455240513,9.781726059858281,0.002206794184603826,0.0032555971457387863,-0.002181661564992912,26.707836736151858,59.358616587021785,-54.5625
1773087564.2028816,nan,nan,nan,-0.24744562629926348,-1.1692113557515096,9.787838896968973,0.0021815968932960015,-1.6798194205216393e-05,0.001090830782496456,26.707836736151858,59.358616587021785,-54.5625
1773087564.4568481,33.214650280870195,3.4166577921086003,-4.187412487455668,-0.24806913057351856,-1.1822254599345958,9.781871586659316,8.399097102608196e-06,0.0010907984466480007,-0.002181661564992912,26.707836736151858,59.358616587021785,-54.1875
1773087564.4864292,nan,nan,nan,-0.2484840657030362,-1.1908862008913705,9.771210184892823,0.002206794184603826,0.0032555971457387863,0.0,26.707836736151858,59.358616587021785,-54.1875
1773087564.5148075,nan,nan,nan,-0.24876020039660107,-1.1966498272512884,9.764115141112883,-8.399097102608196e-06,-0.0010907984466480007,0.0,27.02032747261364,59.356210422943285,-55.0
1773087564.5344095,nan,nan,nan,-0.24876020039660107,-1.1966498272512884,9.764115141112883,-8.399097102608196e-06,-0.0010907984466480007,0.0,27.02032747261364,59.356210422943285,-55.0
1773087564.5587945,33.20092447050726,3.2091406103177285,-4.469692544787157,-0.24557319596303503,-1.1971662001032057,9.759393468734165,0.0021815968932960015,-1.6798194205216393e-05,-0.001090830782496456,27.02032747261364,59.356210422943285,-55.0
1773087564.7683587,33.20092447050726,3.2091406103177285,-4.469692544787157,-0.24557319596303503,-1.1971662001032057,9.759393468734165,0.0021815968932960015,-1.6798194205216393e-05,-0.001090830782496456,27.02032747261364,59.356210422943285,-55.0
1773087564.7992349,nan,nan,nan,-0.243452280113669,-1.197509840467894,9.756251248510665,0.0011159957379558254,0.0032639962428413945,-0.001090830782496456,27.02032747261364,59.356210422943285,1992.25
1773087564.8642273,33.19438134690589,3.1514644063296937,-4.5457442648714315,-0.24196356498686264,-1.1877034916505949,9.757505247760145,0.0010907984466480007,-8.399097102608196e-06,0.0,27.02032747261364,59.356210422943285,1992.25
1773087565.067856,33.19438134690589,3.1514644063296937,-4.5457442648714315,-0.24196356498686264,-1.1877034916505949,9.757505247760145,0.0010907984466480007,-8.399097102608196e-06,0.0,27.02032747261364,59.356210422943285,1992.25
1773087565.092061,nan,nan,nan,-0.2545331869712737,-1.204489538124793,9.938975802447832,0.0021899959903986096,0.0010740002524427844,-0.002181661564992912,26.705430572073357,59.04612585056,-54.5625
1773087565.1154127,nan,nan,nan,-0.2545331869712737,-1.204489538124793,9.938975802447832,0.0021899959903986096,0.0010740002524427844,-0.002181661564992912,26.705430572073357,59.04612585056,-54.5625
1773087565.1570458,33.18175218575343,2.994648776177728,-4.7541370397037594,-0.2460185286120754,-1.1957191714604367,9.882451508945639,0.0010823993495453926,-0.001099197543750609,-0.001090830782496456,26.705430572073357,59.04612585056,-54.5625
1773087565.4204323,33.17560656112429,2.906871617896397,-4.875735193877308,-0.24706790012359678,-1.1931760900829935,9.844835223037661,0.0021899959903986096,0.0010740002524427844,0.0,27.474657652209633,61.540276948465866,-55.75
1773087565.4454484,nan,nan,nan,-0.2477662451422664,-1.1914836978343855,9.819802004967347,-0.001107596640853217,-0.0021731977961933933,0.001090830782496456,27.474657652209633,61.540276948465866,-55.75
1773087565.4687657,nan,nan,nan,-0.2477662451422664,-1.1914836978343855,9.819802004967347,-0.001107596640853217,-0.0021731977961933933,0.001090830782496456,27.474657652209633,61.540276948465866,-55.75
1773087565.520159,nan,nan,nan,-0.25492101104535586,-1.190305916817373,9.81317801310288,-0.0011159957379558254,-0.0032639962428413945,0.0,27.01792130853514,59.0437196864815,-55.375
1773087565.8752253,33.166144192212414,2.720167371111594,-5.12984646359699,-0.2696920933797686,-1.210090825394709,9.921595210226858,-8.399097102608196e-06,-0.0010907984466480007,0.002181661564992912,26.33284785239772,59.36150398391599,-53.75
1773087566.1195402,33.166144192212414,2.720167371111594,-5.12984646359699,-0.2696920933797686,-1.210090825394709,9.921595210226858,-8.399097102608196e-06,-0.0010907984466480007,0.002181661564992912,26.33284785239772,59.36150398391599,-53.75
1773087566.200184,33.15999451785321,2.673795853764968,-5.195100040756723,-0.26279663658503866,-1.199395252687263,9.874230030683837,-0.0010991975437506089,-0.0010823993495453926,0.002181661564992912,25.952565407670875,58.676911760594265,-55.375
1773087566.4168303,33.15999451785321,2.673795853764968,-5.195100040756723,-0.26279663658503866,-1.199395252687263,9.874230030683837,-0.0010991975437506089,-0.0010823993495453926,0.002181661564992912,25.952565407670875,58.676911760594265,-55.375
1773087566.4398384,nan,nan,nan,-0.25149200558084356,-1.1889839688615624,9.832673697679722,-0.0404267353027969,-0.008415620980387502,0.055632369907319255,25.952565407670875,58.676911760594265,-55.375
1773087566.5315874,33.438809784418126,2.6166499087513997,-5.319550517464508,-0.23730463127477636,-1.185451901205138,9.80501842228014,0.006494396097272356,-0.006595185262503654,0.0272707695624114,24.46030959770552,59.68843170484877,-53.75
1773087566.7347617,33.438809784418126,2.6166499087513997,-5.319550517464508,-0.23730463127477636,-1.185451901205138,9.80501842228014,0.006494396097272356,-0.006595185262503654,0.0272707695624114,24.46030959770552,59.68843170484877,-53.75
1773087566.7742307,nan,nan,nan,-0.21682355334009465,-1.0527231296201023,9.184494038113897,-0.002215193281706434,-0.004346395592386787,0.08290313946973066,24.46030959770552,59.68843170484877,-53.75
1773087566.831029,34.25856174346775,2.6471736153584176,-5.3471065249246905,-0.20442993390296707,-1.1249542170683455,9.387042546309585,-0.0022823860585272997,-0.013072783165570794,0.17671458676442586,24.446353846050222,57.87598543337043,-53.0
1773087567.0517032,34.25856174346775,2.6471736153584176,-5.3471065249246905,-0.20442993390296707,-1.1249542170683455,9.387042546309585,-0.0022823860585272997,-0.013072783165570794,0.17671458676442586,24.446353846050222,57.87598543337043,-53.0
1773087567.1221542,35.142007468626524,2.602953745936674,-5.449653543460144,-0.17557115808213944,-1.1029324740445137,9.50511075736213,0.003129610689199663,-0.01856877088432384,0.19962203319685143,24.82471135951426,58.31058506752272,-53.0
1773087567.4329293,35.57757820370833,2.5568965077698236,-5.483403327761719,-0.16974601533540715,-1.088174224299494,9.583683832909262,0.006368409640733233,-0.022957161962223666,0.19525871006686563,24.82471135951426,58.31058506752272,-53.0
1773087567.4771922,nan,nan,nan,-0.16586944790856495,-1.0783527739546352,9.635973336967114,-0.003373184505175301,-0.013064384068468186,0.19853120241435498,24.438172888183324,56.813516929400365,-51.75
1773087567.8127143,nan,nan,nan,-0.23018614555752878,-1.1471764898466958,9.755212859876686,-0.008860773126825736,-0.017385582369547146,0.21162117180431245,25.2054750370568,59.057675438136805,-51.75
1773087567.8412938,38.31556722308146,2.5061316707481107,-5.580889476841061,-0.25004045845054235,-1.1774935147001597,9.786920217089667,-0.013265962398930783,-0.02280597821437672,0.19634954084936207,24.81604916883166,57.185618416260304,-52.5625
1773087568.1151834,nan,nan,nan,-0.26320176901281184,-1.1909791309825923,9.717703093022896,0.004195211844539839,-0.02184956532137045,0.21162117180431245,25.503528789047582,57.18032485528761,-50.5625
1773087568.1695127,nan,nan,nan,-0.26320176901281184,-1.1909791309825923,9.717703093022896,0.004195211844539839,-0.02184956532137045,0.21162117180431245,25.503528789047582,57.18032485528761,-50.5625
1773087568.4410665,39.59706854829822,2.4518715284394696,-5.661964311248191,-0.24818479617509875,-1.1533037773979014,9.708436098942911,-0.0012587803887001646,-0.021807569835857406,0.1930770485018727,25.503528789047582,57.18032485528761,-50.5625
1773087568.496638,nan,nan,nan,-0.23819116850217878,-1.1282312504485648,9.702269017901788,-0.015371967418303309,-0.012971994000339496,0.1908953869368798,24.81604916883166,57.185618416260304,-50.1875
1773087568.5527253,nan,nan,nan,-0.23819116850217878,-1.1282312504485648,9.702269017901788,-0.015371967418303309,-0.012971994000339496,0.1908953869368798,24.81604916883166,57.185618416260304,-50.1875
1773087568.8148546,41.401235825403155,2.4138956148944177,-5.761188741845877,-0.24870344314446347,-1.1682821949408133,9.744996458262202,0.004245606427155488,-0.015304774641482445,0.20289452554434081,24.81604916883166,57.185618416260304,-50.1875
1773087568.8653347,42.264188114846135,2.4479198804013667,-5.776682406122788,-0.25569924448910186,-1.1949356511020397,9.773431092525273,-0.0033479872138674764,-0.009791988728524183,0.1505346479845109,25.503528789047582,57.18032485528761,-47.375
1773087568.8930306,42.264188114846135,2.4479198804013667,-5.776682406122788,-0.25569924448910186,-1.1949356511020397,9.773431092525273,-0.0033479872138674764,-0.009791988728524183,0.1505346479845109,25.503528789047582,57.18032485528761,-47.375
1773087569.1531725,42.693559470098144,2.4643278493180087,-5.792292761036049,-0.26002003841038235,-1.169188065326488,9.79235402399167,-0.0022571887672194753,-0.009800387825626792,0.1538071403320003,25.503528789047582,57.18032485528761,-47.375
1773087569.2302587,43.825040278051446,2.477185057251837,-5.77047639611005,-0.2261003404805196,-1.152336655456768,9.811637246914202,-0.007669185514946438,-0.004304400106873746,0.1810779098944117,25.932353629411477,56.051989574315286,-46.1875
1773087569.249835,43.825040278051446,2.477185057251837,-5.77047639611005,-0.2261003404805196,-1.152336655456768,9.811637246914202,-0.007669185514946438,-0.004304400106873746,0.1810779098944117,25.932353629411477,56.051989574315286,-46.1875
1773087569.474047,43.825040278051446,2.477185057251837,-5.77047639611005,-0.2261003404805196,-1.152336655456768,9.811637246914202,-0.007669185514946438,-0.004304400106873746,0.1810779098944117,25.932353629411477,56.051989574315286,-46.1875
1773087569.5006154,nan,nan,nan,-0.22709678688818494,-1.161012010630738,9.834505351483392,-0.004363193786592003,3.3596388410432786e-05,0.0545415391248228,26.30204895219292,55.361622557205166,-46.1875
1773087569.5310454,nan,nan,nan,-0.22709678688818494,-1.161012010630738,9.834505351483392,-0.004363193786592003,3.3596388410432786e-05,0.0545415391248228,26.30204895219292,55.361622557205166,-46.1875
1773087569.5629306,44.86741001147038,2.3617023064546014,-5.908676667639539,-0.22786293660309817,-1.1801654127773276,9.84972381962072,-0.004531175728644167,-0.021782372544549584,0.1832595714594046,26.30204895219292,55.361622557205166,-46.1875
1773087569.7804434,45.28736471677702,2.3481734534748746,-5.960629883021304,-0.23176932610783857,-1.1995760566021398,9.859851540164685,-0.007736378291767304,-0.013030787680057753,0.18980455615438332,26.30204895219292,55.361622557205166,-46.1875
1773087569.816751,nan,nan,nan,-0.25109404742148794,-1.212364841034394,9.866591425052642,-0.0076859837091516545,-0.006485997000169748,0.18653206380689397,26.30204895219292,55.361622557205166,-46.1875
1773087569.8354619,nan,nan,nan,-0.26395443358444004,-1.2208756342139764,9.894492525107365,0.005311207582495665,-0.018585569078529058,0.18980455615438332,26.30204895219292,55.361622557205166,-46.1875
1773087569.8564434,nan,nan,nan,-0.26395443358444004,-1.2208756342139764,9.894492525107365,0.005311207582495665,-0.018585569078529058,0.18980455615438332,26.30204895219292,55.361622557205166,-46.1875
1773087570.121549,46.30041880040411,2.3184406944947393,-6.066545756236576,-0.2726931719988416,-1.2499545598328639,9.913060395518075,-0.012091172981256698,-0.011906392844999319,0.16035212502697901,25.48331701078818,54.55540266900863,-44.1875
1773087570.1380057,47.080387331238775,2.333348629198667,-6.077656063956118,-0.2616806162983992,-1.2560549920130302,9.881930653664547,0.0031716061747127044,-0.013114778651083835,0.19198621771937624,25.48331701078818,54.55540266900863,-44.1875
1773087570.168391,47.080387331238775,2.333348629198667,-6.077656063956118,-0.2616806162983992,-1.2560549920130302,9.881930653664547,0.0031716061747127044,-0.013114778651083835,0.19198621771937624,25.48331701078818,54.55540266900863,-44.1875
1773087570.4387314,47.48753889406989,2.3422054464845474,-6.075188959909732,-0.2710769462335371,-1.2599859792805785,9.851178823081067,0.007601992738125573,-0.004421987466310261,0.17780541754692233,26.653938660793457,52.35882409027785,-44.5625
1773087570.466036,nan,nan,nan,-0.23698389675305406,-1.2361509843033103,9.830713823348217,-0.007669185514946438,-0.004304400106873746,0.07308566242726255,26.653938660793457,52.35882409027785,-44.5625
1773087570.509136,48.6385827145365,2.4031713307820284,-6.05149507622145,-0.19422527788553973,-1.2204436000427494,9.783643477561839,0.000981610184314094,-0.014188778903526619,0.22689280275926285,26.95824843938834,51.29394942222929,-42.1875
1773087570.7953014,48.98329996508402,2.4119927203180196,-6.04060145379472,-0.16589867687633789,-1.2267155740158,9.859362262885439,-0.011050769117224347,-0.018459582621989934,0.20180369476184434,26.95824843938834,51.29394942222929,-42.1875
1773087570.82581,nan,nan,nan,-0.15731448593857267,-1.2609173462349437,9.772602688683946,-0.003373184505175301,-0.013064384068468186,0.19634954084936207,26.24815087683452,48.36183006046123,-42.5625
1773087570.847574,nan,nan,nan,-0.15731448593857267,-1.2609173462349437,9.772602688683946,-0.003373184505175301,-0.013064384068468186,0.19634954084936207,26.24815087683452,48.36183006046123,-42.5625
1773087570.86579,50.17394947885067,2.427687452172487,-6.014234655768331,-0.20177699096760973,-1.283291896981776,9.791802730489145,-0.00010918826233390656,-0.01418037980642401,0.18871372537188688,26.24815087683452,48.36183006046123,-42.5625
1773087571.0987856,50.17394947885067,2.427687452172487,-6.014234655768331,-0.20177699096760973,-1.283291896981776,9.791802730489145,-0.00010918826233390656,-0.01418037980642401,0.18871372537188688,26.24815087683452,48.36183006046123,-42.5625
1773087571.1200306,nan,nan,nan,-0.18090778233475394,-1.2617731191518187,9.647359893587973,-0.003289193534149219,-0.002156399601988177,0.07635815477475191,26.92119351257944,46.48159208071784,-43.0
1773087571.1429744,nan,nan,nan,-0.21719474532034777,-1.2470662662803023,9.708455049406465,-0.008818777641312696,-0.011931590136307143,0.1832595714594046,26.92119351257944,46.48159208071784,-43.0
1773087571.1600022,nan,nan,nan,-0.21719474532034777,-1.2470662662803023,9.708455049406465,-0.008818777641312696,-0.011931590136307143,0.1832595714594046,26.92119351257944,46.48159208071784,-43.0
1773087571.209487,51.54934886906331,2.443365959996094,-5.9809766419417905,-0.2180312517673072,-1.250839365251882,9.739077858004107,0.004212010038745055,-0.01966796842807445,0.17562375598192942,26.92119351257944,46.48159208071784,-43.0
1773087571.421609,51.54934886906331,2.443365959996094,-5.9809766419417905,-0.2180312517673072,-1.250839365251882,9.739077858004107,0.004212010038745055,-0.01966796842807445,0.17562375598192942,26.92119351257944,46.48159208071784,-43.0
1773087571.4423833,nan,nan,nan,-0.2388125513884105,-1.2732658571092896,9.789563000412524,0.001057202058237568,-0.004371592883694611,0.09053895494720585,26.219758140708215,44.6744393702122,-42.5625
1773087571.462247,nan,nan,nan,-0.2324176602188863,-1.2682749002799671,9.79305429336346,0.002131202310680352,-0.0065615888740932216,0.17562375598192942,26.219758140708215,44.6744393702122,-42.5625
1773087571.5111132,nan,nan,nan,-0.2324176602188863,-1.2682749002799671,9.79305429336346,0.002131202310680352,-0.0065615888740932216,0.17562375598192942,26.219758140708215,44.6744393702122,-42.5625
1773087571.7508185,52.846845163768194,2.479820731933506,-6.015744151823829,-0.2147303685119794,-1.258366474930152,9.765271704456135,0.0031884043689179207,-0.010933181757787833,0.19416787928436915,26.219758140708215,44.6744393702122,-42.5625
1773087571.7694156,nan,nan,nan,-0.20290816058020344,-1.2450825034500235,9.746782701890163,-0.014255971680347484,-0.0097079977574981,0.1538071403320003,26.219758140708215,44.6744393702122,-42.5625
1773087571.8317263,nan,nan,nan,-0.20290816058020344,-1.2450825034500235,9.746782701890163,-0.014255971680347484,-0.0097079977574981,0.1538071403320003,26.219758140708215,44.6744393702122,-42.5625
1773087572.1335313,53.78683658280248,2.5386798021260577,-6.013909547094648,-0.23842275061490872,-1.2225272849079478,9.754549147462118,-8.399097102608196e-06,-0.0010907984466480007,0.08399397025222712,23.56884938238144,41.31975119468434,-45.0
1773087572.197608,54.611143495361176,2.5885713713076397,-6.023420485448876,-0.26190277491656844,-1.187446963643927,9.759717630233371,-0.00442198746631026,-0.007601992738125573,0.061086523819801536,25.076985875264896,42.3706701110776,-42.5625
1773087572.4937966,54.611143495361176,2.5885713713076397,-6.023420485448876,-0.26190277491656844,-1.187446963643927,9.759717630233371,-0.00442198746631026,-0.007601992738125573,0.061086523819801536,25.076985875264896,42.3706701110776,-42.5625
1773087572.5213377,nan,nan,nan,-0.2775284688002656,-1.1641014017155866,9.803298538269738,-0.014247572583244876,-0.0086171993108501,0.11344640137963143,25.076985875264896,42.3706701110776,-42.5625
1773087572.8839953,55.85773601247224,2.5693890684636433,-6.10385814871903,-0.2879529499698402,-1.151910203586385,9.752018464761633,0.0010740002524427844,-0.00218999599039861,0.13744467859455345,24.30775879512862,39.876519013171745,-42.5625
1773087572.945713,nan,nan,nan,-0.2382311639617889,-1.1709950572797696,9.737962818921861,-0.008877571321030953,-0.01956717926284315,0.15489797111449674,24.30775879512862,39.876519013171745,-42.5625
1773087573.2283752,57.03890680521267,2.5204404929091724,-6.1062338908914455,-0.2252119460847433,-1.183541275578461,9.728608943627345,-0.0066119834567088705,-0.008675992990568357,0.17998707911191522,23.1736487203679,38.697716405299566,-43.75
1773087573.2555225,nan,nan,nan,-0.21013845497586323,-1.1138808394617665,9.88537882845118,-0.013291159690238608,-0.026078373554320723,0.19853120241435498,23.1736487203679,38.697716405299566,-43.75
1773087573.2963762,nan,nan,nan,-0.21013845497586323,-1.1138808394617665,9.88537882845118,-0.013291159690238608,-0.026078373554320723,0.19853120241435498,23.1736487203679,38.697716405299566,-43.75
1773087573.5444927,58.30196420178077,2.487759297964922,-6.086345872789207,-0.20623324122620026,-1.108737263610153,9.903650220492727,-0.005689166952113033,-0.030500361020630983,0.22362031041177347,18.779529097274942,36.23147681070431,-44.1875
1773087573.5668967,nan,nan,nan,-0.21758105697733726,-1.1788015216128518,9.915809627791553,-7.559187392347376e-05,-0.009817186019832008,0.12544553998709243,18.779529097274942,36.23147681070431,-44.1875
1773087573.616321,59.47828163690666,2.505761954657501,-6.053666494140254,-0.2485479894259756,-1.22524820756172,9.927246689226761,-0.006788364495863643,-0.03158276037017638,0.24216443371421323,18.342042066228448,36.234845440414205,-43.75
1773087573.6435509,59.47828163690666,2.505761954657501,-6.053666494140254,-0.2485479894259756,-1.22524820756172,9.927246689226761,-0.006788364495863643,-0.03158276037017638,0.24216443371421323,18.342042066228448,36.234845440414205,-43.75
1773087573.8646622,59.47828163690666,2.505761954657501,-6.053666494140254,-0.2485479894259756,-1.22524820756172,9.927246689226761,-0.006788364495863643,-0.03158276037017638,0.24216443371421323,18.342042066228448,36.234845440414205,-43.75
1773087573.9129457,60.95382125881828,2.5149489476003373,-6.0288146289293,-0.2826561437621651,-1.2488726468391649,9.962184463541004,-0.01218356304938539,-0.023905175758127326,0.20398535632683726,16.133913899920866,33.56426825539238,-46.1875
1773087573.969992,61.580061391247334,2.4183001943138147,-6.084762195599839,-0.23156723757598366,-1.2623083369402044,9.96814395949912,-0.007711181000459479,-0.009758392340113749,0.23125612588924865,16.140169926524965,34.376744170193014,-43.75
1773087574.188332,61.580061391247334,2.4183001943138147,-6.084762195599839,-0.23156723757598366,-1.2623083369402044,9.96814395949912,-0.007711181000459479,-0.009758392340113749,0.23125612588924865,16.140169926524965,34.376744170193014,-43.75
1773087574.208377,nan,nan,nan,-0.1976196540903798,-1.2779396637101434,9.972109937487314,-0.005504386815855653,-0.0065027951943749645,0.0818123086872342,16.140169926524965,34.376744170193014,-43.75
1773087574.2286432,nan,nan,nan,-0.1850114412605265,-1.281574842646751,9.974749251535581,-0.00994317247637113,-0.016286384825796536,0.22252947962927702,16.140169926524965,34.376744170193014,-43.75
1773087574.2507854,nan,nan,nan,-0.1850114412605265,-1.281574842646751,9.974749251535581,-0.00994317247637113,-0.016286384825796536,0.22252947962927702,16.140169926524965,34.376744170193014,-43.75
1773087574.277629,62.84421982448327,2.422929861993045,-6.063325841258144,-0.18336235444023852,-1.2906325258348201,9.906258339697926,-0.01212476936966713,-0.01626958663159132,0.23671027980173096,16.84738009218459,36.93387464820693,-43.5
1773087574.4997027,62.84421982448327,2.422929861993045,-6.063325841258144,-0.18336235444023852,-1.2906325258348201,9.906258339697926,-0.01212476936966713,-0.01626958663159132,0.23671027980173096,16.84738009218459,36.93387464820693,-43.5
1773087574.5263486,nan,nan,nan,-0.18566143101076243,-1.303324581469307,9.860678402963583,-0.014247572583244876,-0.0086171993108501,0.09708393964218458,15.469533454858546,36.56947288639819,-43.0
1773087574.5800002,63.58624022367758,2.4324722869555684,-6.0660670853634215,-0.19063947909482062,-1.3251252964624747,9.803584570569576,-0.00666237803932452,-0.015220783670456362,0.13308135546456762,15.469533454858546,36.56947288639819,-43.0
1773087574.8056068,63.58624022367758,2.4324722869555684,-6.0660670853634215,-0.19063947909482062,-1.3251252964624747,9.803584570569576,-0.00666237803932452,-0.015220783670456362,0.13308135546456762,15.469533454858546,36.56947288639819,-43.0
1773087574.8407636,nan,nan,nan,-0.21397087688806635,-1.332788865023823,9.99974708240362,-4.307966220410582e-05,-0.14726618939458272,0.1090830782496456,12.84749866547377,36.96467354841173,-42.5625
1773087574.8931668,nan,nan,nan,-0.21397087688806635,-1.332788865023823,9.99974708240362,-4.307966220410582e-05,-0.14726618939458272,0.1090830782496456,12.84749866547377,36.96467354841173,-42.5625
1773087575.1574926,64.58193091961253,2.4062150669654034,-6.103234154340108,-0.23618768658487077,-1.3378373714129068,9.896133223237982,-0.00547079042744522,-0.0021396014077829607,0.09272061651219876,12.84749866547377,36.96467354841173,-42.5625
1773087575.1928146,nan,nan,nan,-0.2509727252600685,-1.3411970960193302,9.97436427252795,-7.559187392347376e-05,-0.009817186019832008,0.15271630954950383,8.004342423757516,33.00184704850981,-45.75
1773087575.2098947,65.17392308581648,2.41005046353902,-6.125326599995295,-0.2606832211366492,-1.3267078924788474,10.019735938517703,-0.004430386563412868,-0.008692791184773573,0.11453723216212788,8.004342423757516,33.00184704850981,-45.75
1773087575.2239509,65.17392308581648,2.41005046353902,-6.125326599995295,-0.2606832211366492,-1.3267078924788474,10.019735938517703,-0.004430386563412868,-0.008692791184773573,0.11453723216212788,8.004342423757516,33.00184704850981,-45.75
1773087575.4222186,65.30591599118782,2.4091027440757333,-6.135893570362486,-0.2770517031083925,-1.3002631573209547,10.049930275399166,-0.007677584612049046,-0.005395198553521746,0.11780972450961724,8.004342423757516,33.00184704850981,-45.75
1773087575.4518695,nan,nan,nan,-0.28125471991847356,-1.2827159943612483,10.070024269300935,-0.001065601155340176,0.0032807944370466108,0.028361600344907856,9.844700198546455,36.61278383981119,-44.5625
1773087575.4739807,nan,nan,nan,-0.28125471991847356,-1.2827159943612483,10.070024269300935,-0.001065601155340176,0.0032807944370466108,0.028361600344907856,9.844700198546455,36.61278383981119,-44.5625
1773087575.4973392,65.59873731834149,2.4168876029230044,-6.143286575953184,-0.29074180574899816,-1.2709870405453936,10.033219922168154,0.007543199058407315,-0.012057576592846266,0.02945243112740431,9.844700198546455,36.61278383981119,-44.5625
1773087575.5323572,65.59873731834149,2.4168876029230044,-6.143286575953184,-0.29074180574899816,-1.2709870405453936,10.033219922168154,0.007543199058407315,-0.012057576592846266,0.02945243112740431,9.844700198546455,36.61278383981119,-44.5625
1773087575.7224483,65.70895628446173,2.4287310006725424,-6.137316704830431,-0.29082894622474414,-1.323443291530474,10.008727040282784,-0.002206794184603826,-0.0032555971457387863,0.04036073895236887,10.290368187459851,37.67188371407135,-43.375
1773087575.743264,nan,nan,nan,-0.22944040225044973,-1.1982553542531844,9.912144620015823,-0.004379991980797219,-0.002148000504885569,0.016362461737446838,10.290368187459851,37.67188371407135,-43.375
1773087575.7719693,nan,nan,nan,-0.18925667944123534,-1.2019145066605055,9.847870098224487,0.018442784427784718,-0.01323236601052035,0.020725784867432664,7.342368142773695,36.31954241597741,-44.5625
1773087575.805488,nan,nan,nan,-0.14578979805782427,-1.2044784139142266,9.72815855269746,0.010891186272274792,-0.0022655878643220834,0.02945243112740431,7.342368142773695,36.31954241597741,-44.5625
1773087576.016459,65.91863334604804,2.401145710974022,-6.124668685874254,-0.14578979805782427,-1.2044784139142266,9.72815855269746,0.010891186272274792,-0.0022655878643220834,0.02945243112740431,7.342368142773695,36.31954241597741,-44.5625
1773087576.0333624,nan,nan,nan,-0.1944680300879374,-1.2925625936458518,9.735464760805112,-0.0010907984466480007,8.399097102608196e-06,0.013089969389957472,4.33620104613648,35.53016567633038,-45.0
1773087576.0473878,nan,nan,nan,-0.1944680300879374,-1.2925625936458518,9.735464760805112,-0.0010907984466480007,8.399097102608196e-06,0.013089969389957472,4.33620104613648,35.53016567633038,-45.0
1773087576.0673995,nan,nan,nan,-0.21682781209121166,-1.3512589006137241,9.783813412880216,0.008642396602157924,-0.010975177243300873,0.06981317007977318,4.33620104613648,35.53016567633038,-45.0
1773087576.123477,66.18669097475603,2.4057721037345914,-6.117040202597401,-0.23124438131184535,-1.3301104113724234,9.819334012453684,-0.004363193786592003,3.3596388410432786e-05,0.06435901616729091,4.33620104613648,35.53016567633038,-45.0
1773087576.310637,66.18669097475603,2.4057721037345914,-6.117040202597401,-0.23124438131184535,-1.3301104113724234,9.819334012453684,-0.004363193786592003,3.3596388410432786e-05,0.06435901616729091,4.33620104613648,35.53016567633038,-45.0
1773087576.3326414,nan,nan,nan,-0.17303672072823134,-1.1994760176863577,9.83962746297141,0.004388391077899827,0.00323879895153357,0.008726646259971648,3.6458340290263576,35.16047035354894,-44.5625
1773087576.3677742,nan,nan,nan,-0.13520164824642625,-1.2296157271183976,9.81968141052507,-0.006653978942221912,-0.014129985223808362,0.05345070834232634,3.6458340290263576,35.16047035354894,-44.5625
1773087576.409148,nan,nan,nan,-0.13520164824642625,-1.2296157271183976,9.81968141052507,-0.006653978942221912,-0.014129985223808362,0.05345070834232634,3.6458340290263576,35.16047035354894,-44.5625
1773087576.6971614,66.7483004256914,2.390944360293713,-6.151515068182788,-0.16433540747227665,-1.2302475607403536,9.795347785365975,0.0021731977961933933,-0.0011075966408532173,0.04690572364734761,3.6458340290263576,35.16047035354894,-44.5625
1773087577.0401664,66.7483004256914,2.390944360293713,-6.151515068182788,-0.16433540747227665,-1.2302475607403536,9.795347785365975,0.0021731977961933933,-0.0011075966408532173,0.04690572364734761,3.6458340290263576,35.16047035354894,-44.5625
1773087577.0897439,67.06096540429594,2.4193550373484665,-6.086939586769866,-0.17598363272983622,-1.2162831296434569,9.853770902154128,0.010891186272274792,-0.0022655878643220834,0.02945243112740431,-1.8967705345496744,37.765724113132855,-47.0
1773087577.4326713,nan,nan,nan,-0.20046045925501482,-1.2068611745393287,9.909376392284264,-0.010924782660685224,-0.0020976059222699195,0.02945243112740431,-1.12038708092654,33.07210703960201,-48.1875
1773087577.4589305,nan,nan,nan,-0.20046045925501482,-1.2068611745393287,9.909376392284264,-0.010924782660685224,-0.0020976059222699195,0.02945243112740431,-1.12038708092654,33.07210703960201,-48.1875
1773087577.5115438,67.26148325124606,2.4301368142596402,-6.13304989291205,-0.1966794386008838,-1.200745507310138,9.939691001397206,-0.02080076236023549,-0.009657603174882451,0.0272707695624114,-1.12038708092654,33.07210703960201,-48.1875
1773087577.7667356,67.26148325124606,2.4301368142596402,-6.13304989291205,-0.1966794386008838,-1.200745507310138,9.939691001397206,-0.02080076236023549,-0.009657603174882451,0.0272707695624114,-1.12038708092654,33.07210703960201,-48.1875
1773087577.8064435,nan,nan,nan,-0.21418177399407354,-1.1898310353489294,9.99666126390601,-0.012091172981256698,-0.011906392844999319,0.10253809355466686,-3.2938664845037184,34.90139645962985,-47.75
1773087577.8380167,67.66800969976615,2.4521254143625786,-6.149786802634776,-0.23967304880013846,-1.2426747762674468,9.997778108425575,-0.003322789922559652,-0.006519593388580181,0.05672320068981571,-3.2938664845037184,34.90139645962985,-47.75
1773087578.3007987,67.66800969976615,2.4521254143625786,-6.149786802634776,-0.2558645142150197,-1.177491319132608,9.948344680367585,0.01637037579682262,0.0009648119901088779,-0.038179077387375956,-2.564038376506196,40.39593986038453,-45.75
1773087578.6776044,nan,nan,nan,-0.2644280244091325,-1.2813187650688878,9.738156365714639,-0.009749993243011143,0.008801979447107481,-0.039269908169872414,-2.564038376506196,40.39593986038453,-45.75
1773087578.7217226,67.70373889214044,2.419444531479758,-6.197781846571301,-0.2659319697019497,-1.2400551128971948,9.598278390270423,-0.00547079042744522,-0.0021396014077829607,0.013089969389957472,2.1771586270303014,39.23439951512891,-45.75
1773087578.9629202,67.70373889214044,2.419444531479758,-6.197781846571301,-0.2659319697019497,-1.2400551128971948,9.598278390270423,-0.00547079042744522,-0.0021396014077829607,0.013089969389957472,2.1771586270303014,39.23439951512891,-45.75
1773087578.9886267,nan,nan,nan,-0.2711793164556617,-1.329644296030041,9.63899562844444,2.5197291307824593e-05,0.0032723953399440026,-0.007635815477475192,-4.072656102205353,39.28252279669891,-47.0
1773087579.0202074,nan,nan,nan,-0.2711793164556617,-1.329644296030041,9.63899562844444,2.5197291307824593e-05,0.0032723953399440026,-0.007635815477475192,-4.072656102205353,39.28252279669891,-47.0
1773087579.0617063,67.65324143448318,2.414838072889416,-6.208564134390397,-0.23787622908550876,-1.3895482174727318,9.666092495607895,0.008701190281876181,-0.0033395881167648683,-0.016362461737446838,-4.072656102205353,39.28252279669891,-47.0
1773087579.3265097,67.65324143448318,2.414838072889416,-6.208564134390397,-0.23787622908550876,-1.3895482174727318,9.666092495607895,0.008701190281876181,-0.0033395881167648683,-0.016362461737446838,-4.072656102205353,39.28252279669891,-47.0
1773087579.377919,nan,nan,nan,-0.21571339646053375,-1.429413608022194,9.650674040940142,0.026782813534248745,-0.06347628733314925,0.12544553998709243,2.703611610232654,42.667947753682924,-48.6875
1773087579.4103436,nan,nan,nan,-0.21571339646053375,-1.429413608022194,9.650674040940142,0.026782813534248745,-0.06347628733314925,0.12544553998709243,2.703611610232654,42.667947753682924,-48.6875
1773087579.7280047,nan,nan,nan,-0.19068492599113437,-1.413341475752451,9.636929889302506,-0.001149592126366258,-0.007627190029433397,0.06544984694978735,-3.1798764259314614,41.5882169870963,-48.6875
1773087579.746477,nan,nan,nan,-0.19068492599113437,-1.413341475752451,9.636929889302506,-0.001149592126366258,-0.007627190029433397,0.06544984694978735,-3.1798764259314614,41.5882169870963,-48.6875
1773087580.0708954,68.90617835717238,2.312073745340162,-6.316622501787756,-0.22924308377474623,-1.3412814644300215,9.727780262451539,-0.00323879895153357,0.004388391077899828,0.002181661564992912,-0.9130999748571254,43.75832776096358,-45.0625
