timestamp,yaw,pitch,roll,ax,ay,az,gx,gy,gz,mx,my,mz
1774889918.5282264,-0.01985428097266428,0.25802492841926195,-8.800492049036352,-0.03609805646590476,-1.227009900556864,6.604030737156013,0.0,0.001090830782496456,-0.001090830782496456,43.1875,23.75,-56.6875
1774889918.888039,-0.019317668318605128,0.2510512364559155,-8.800487281270822,-0.03604579079338627,-1.3824445171668243,8.365644019221932,-0.001090830782496456,0.0,-0.001090830782496456,42.75,26.375,-56.0
1774889919.149395,-0.019317668318605128,0.2510512364559155,-8.800487281270822,-0.03402340623709025,-1.4251132510626277,8.835416782476402,0.0,0.00545415391248228,-0.001090830782496456,42.75,26.375,-56.0
1774889919.2440355,-0.019317668318605128,0.2510512364559155,-8.800487281270822,-0.03402340623709025,-1.4251132510626277,8.835416782476402,0.0,0.00545415391248228,-0.001090830782496456,42.75,26.375,-56.0
1774889919.2753649,-0.019317668318605128,0.2510512364559155,-8.800487281270822,-0.03602264361371039,-1.450163705121977,9.148045308716643,0.0,0.001090830782496456,0.0,42.0625,23.0625,-56.25
1774889919.308735,-0.019317668318605128,0.2510512364559155,-8.800487281270822,-0.040698225462225665,-1.4668345024665665,9.35609610064006,-0.002181661564992912,0.002181661564992912,0.0,42.0625,23.0625,-56.25
1774889919.5899706,-0.019317668318605128,0.2510512364559155,-8.800487281270822,-0.040698225462225665,-1.4668345024665665,9.35609610064006,-0.002181661564992912,0.002181661564992912,0.0,42.0625,23.0625,-56.25
1774889919.6322272,-0.01985428097266428,0.25802492841926195,-8.800492049036352,-0.04588047304941618,-1.4853118176146214,9.584466018035233,-0.001090830782496456,0.001090830782496456,0.001090830782496456,42.75,24.1875,-57.5625
1774889919.6520467,-0.01985428097266428,0.25802492841926195,-8.800492049036352,-0.04588047304941618,-1.4853118176146214,9.584466018035233,-0.001090830782496456,0.001090830782496456,0.001090830782496456,42.75,24.1875,-57.5625
1774889919.6936626,-0.019317668318605128,0.2510512364559155,-8.800487281270822,-0.04391338912519836,-1.4902251787002787,9.646529207552826,-0.001090830782496456,0.001090830782496456,-0.001090830782496456,43.5625,25.6875,-58.0
1774889919.961476,0.0,0.0,0.0,-0.042604316747398625,-1.493494965616944,9.68783156688553,0.0,-0.001090830782496456,-0.001090830782496456,43.5625,25.6875,-58.0
1774889920.0004902,0.0,0.0,0.0,-0.042604316747398625,-1.493494965616944,9.68783156688553,0.0,-0.001090830782496456,-0.001090830782496456,43.5625,25.6875,-58.0
1774889920.0414855,-0.019317668318605128,0.2510512364559155,-8.800487281270822,-0.03838803199595013,-1.499016083991391,9.71531782564386,-0.001090830782496456,0.002181661564992912,0.0,42.75,23.75,-57.0625
1774889920.2619822,0.0,0.0,0.0,-0.03892725330016728,-1.502690326594652,9.723574288683942,-0.004363323129985824,0.004363323129985824,-0.003272492347489368,43.1875,24.1875,-57.1875
1774889920.3046832,0.0,0.0,0.0,-0.035940987347307767,-1.4984452705885043,9.729068872606382,-0.002181661564992912,0.001090830782496456,-0.001090830782496456,43.1875,24.1875,-57.1875
1774889920.352031,-0.019317668318605128,0.2510512364559155,-8.800487281270822,-0.03395366071445621,-1.4956202332367958,9.73941568024288,0.0,0.001090830782496456,0.003272492347489368,43.1875,24.1875,-57.1875
1774889920.6061049,-0.019317668318605128,0.2510512364559155,-8.800487281270822,-0.03395366071445621,-1.4956202332367958,9.73941568024288,0.0,0.001090830782496456,0.003272492347489368,43.1875,24.1875,-57.1875
1774889920.629178,0.0,0.0,0.0,-0.03263111704018659,-1.4937402024369686,9.746301365143555,-0.002181661564992912,0.002181661564992912,0.0,43.1875,24.1875,-57.1875
1774889920.6665199,-0.019317668318605128,0.2510512364559155,-8.800487281270822,-0.031165256963945124,-1.4972276897637775,9.75393321185671,0.002181661564992912,0.002181661564992912,0.001090830782496456,41.75,24.1875,-56.75
1774889920.9757452,0.0,0.0,0.0,-0.03412057720005168,-1.4981550585065284,9.765997955383064,-0.002181661564992912,0.001090830782496456,0.0,42.0625,24.875,-56.75
1774889921.0050519,-0.019317668318605128,0.2510512364559155,-8.800487281270822,-0.036087309804090445,-1.5054624354600803,9.774026907427835,-0.001090830782496456,-0.001090830782496456,0.001090830782496456,42.0625,24.875,-56.75
1774889921.0386043,-0.019317668318605128,0.2510512364559155,-8.800487281270822,-0.036087309804090445,-1.5054624354600803,9.774026907427835,-0.001090830782496456,-0.001090830782496456,0.001090830782496456,42.0625,24.875,-56.75
1774889921.2590203,-0.019317668318605128,0.2510512364559155,-8.800487281270822,-0.036087309804090445,-1.5054624354600803,9.774026907427835,-0.001090830782496456,-0.001090830782496456,0.001090830782496456,42.0625,24.875,-56.75
1774889921.2791317,0.0,0.0,0.0,-0.044086371796874295,-1.527050971730517,9.873033213129302,-0.002181661564992912,0.002181661564992912,0.001090830782496456,43.1875,24.5625,-58.0
1774889921.305206,0.0,0.0,0.0,-0.04606454649037529,-1.524692342922144,9.845257675795786,0.002181661564992912,0.002181661564992912,0.0,43.1875,24.5625,-58.0
1774889921.3358645,-0.019317668318605128,0.2510512364559155,-8.800487281270822,-0.047380999651240964,-1.5231227017977818,9.826773365973413,0.001090830782496456,0.001090830782496456,0.0,43.1875,24.5625,-58.0
1774889921.5928006,-0.019317668318605128,0.2510512364559155,-8.800487281270822,-0.047380999651240964,-1.5231227017977818,9.826773365973413,0.001090830782496456,0.001090830782496456,0.0,43.1875,24.5625,-58.0
1774889921.622476,0.0,0.0,0.0,-0.04491197281673232,-1.522078123163559,9.814472264269893,0.001090830782496456,-0.002181661564992912,0.001090830782496456,43.1875,24.5625,-58.0
1774889921.6455262,0.0,0.0,0.0,-0.04491197281673232,-1.522078123163559,9.814472264269893,0.001090830782496456,-0.002181661564992912,0.001090830782496456,43.1875,24.5625,-58.0
1774889921.695633,-0.019317668318605128,0.2510512364559155,-8.800487281270822,-0.039923751331884354,-1.5213829677511916,9.812976241913148,0.0,0.001090830782496456,0.001090830782496456,42.5,23.75,-56.75
1774889921.9490097,0.0,0.0,0.0,-0.03439498516079615,-1.5150412361897432,9.811318104273855,0.003272492347489368,0.002181661564992912,0.001090830782496456,43.1875,24.5625,-58.0
1774889922.007318,-0.019317668318605128,0.2510512364559155,-8.800487281270822,-0.03292481352930873,-1.5100097746626566,9.810877183670062,0.001090830782496456,-0.003272492347489368,-0.001090830782496456,43.1875,24.5625,-58.0
1774889922.0249999,-0.019317668318605128,0.2510512364559155,-8.800487281270822,-0.03863665414608582,-1.5166967283434467,9.813928867640962,0.0,-0.001090830782496456,-0.002181661564992912,43.1875,24.5625,-58.0
1774889922.2841363,-0.019317668318605128,0.2510512364559155,-8.800487281270822,-0.03863665414608582,-1.5166967283434467,9.813928867640962,0.0,-0.001090830782496456,-0.002181661564992912,43.1875,24.5625,-58.0
1774889922.3205316,-0.019317668318605128,0.2510512364559155,-8.800487281270822,-0.033824961503118214,-1.524108308484843,9.817311244938043,0.001090830782496456,-0.001090830782496456,-0.001090830782496456,43.1875,24.1875,-57.5625
1774889922.3543222,-0.019317668318605128,0.2510512364559155,-8.800487281270822,-0.033824961503118214,-1.524108308484843,9.817311244938043,0.001090830782496456,-0.001090830782496456,-0.001090830782496456,43.1875,24.1875,-57.5625
1774889922.3797443,-0.019317668318605128,0.2510512364559155,-8.800487281270822,-0.03254546915270554,-1.5193889216965308,9.808175328419672,0.001090830782496456,0.001090830782496456,-0.001090830782496456,43.5625,25.6875,-58.0
1774889922.6343784,0.0,0.0,0.0,-0.03169398128637198,-1.516248222507914,9.798750366324251,0.003272492347489368,-0.001090830782496456,0.002181661564992912,43.5625,25.6875,-58.0
1774889922.672471,0.0,0.0,0.0,-0.02778221391575031,-1.5074678988671593,9.765717265674919,0.001090830782496456,-0.002181661564992912,0.0,43.5625,25.6875,-58.0
1774889922.7031076,-0.019317668318605128,0.2510512364559155,-8.800487281270822,-0.025178976427906292,-1.5016246915668787,9.743734106196701,0.0,-0.001090830782496456,0.0,42.75,24.1875,-57.1875
1774889922.7295563,-0.019317668318605128,0.2510512364559155,-8.800487281270822,-0.02679166266713363,-1.5010812140887637,9.759210564497803,0.001090830782496456,-0.002181661564992912,0.0,42.75,24.1875,-57.1875
1774889923.0111866,0.0,0.0,0.0,-0.027864887344453745,-1.5007195358981196,9.769509974613818,0.001090830782496456,0.0,0.0,42.75,24.875,-56.5
1774889923.037877,0.0,0.0,0.0,-0.027864887344453745,-1.5007195358981196,9.769509974613818,0.001090830782496456,0.0,0.0,42.75,24.875,-56.5
1774889923.090628,-0.019317668318605128,0.2510512364559155,-8.800487281270822,-0.0285791063785051,-1.5004788431024558,9.776364116994078,0.0,0.0,-0.002181661564992912,42.75,24.875,-56.5
1774889923.3667693,0.0,0.0,0.0,-0.029054411167316902,-1.5036637764429759,9.780925472182354,0.001090830782496456,0.002181661564992912,0.0,42.5,25.25,-56.75
1774889923.4034114,-0.019317668318605128,0.2510512364559155,-8.800487281270822,-0.032715832902088154,-1.5057833140030552,9.783961003106475,-0.002181661564992912,0.001090830782496456,0.0,42.5,25.25,-56.75
1774889923.4481604,-0.019317668318605128,0.2510512364559155,-8.800487281270822,-0.03515246816581771,-1.5071938425725022,9.792671338442013,-0.001090830782496456,0.001090830782496456,-0.001090830782496456,42.5,25.25,-56.75
1774889923.6740172,0.0,0.0,0.0,-0.03677402171483037,-1.5081325335788327,9.791777745892354,0.0,0.001090830782496456,0.001090830782496456,42.5,25.25,-56.75
1774889923.6910303,0.0,0.0,0.0,-0.03677402171483037,-1.5081325335788327,9.791777745892354,0.0,0.001090830782496456,0.001090830782496456,42.5,25.25,-56.75
1774889923.7465181,-0.019317668318605128,0.2510512364559155,-8.800487281270822,-0.03300004745382281,-1.5058278333882569,9.784097096476325,0.0,-0.001090830782496456,-0.001090830782496456,42.0625,24.5625,-56.75
1774889923.9750175,-0.019317668318605128,0.2510512364559155,-8.800487281270822,-0.03300004745382281,-1.5058278333882569,9.784097096476325,0.0,-0.001090830782496456,-0.001090830782496456,42.0625,24.5625,-56.75
1774889923.998256,-0.019317668318605128,0.2510512364559155,-8.800487281270822,-0.03300004745382281,-1.5058278333882569,9.784097096476325,0.0,-0.001090830782496456,-0.001090830782496456,42.0625,24.5625,-56.75
1774889924.0164635,0.0,0.0,0.0,-0.035341609775112554,-1.5105685814333591,9.786071683644748,-0.001090830782496456,0.002181661564992912,-0.001090830782496456,43.1875,24.875,-58.75
1774889924.0422475,-0.019317668318605128,0.2510512364559155,-8.800487281270822,-0.040245005050285255,-1.5103783845924297,9.790730861055069,-0.001090830782496456,0.001090830782496456,0.002181661564992912,43.1875,24.875,-58.75
1774889924.0825043,-0.019317668318605128,0.2510512364559155,-8.800487281270822,-0.04350815983139848,-1.5102518107194292,9.797176603282534,0.001090830782496456,0.0,0.001090830782496456,43.1875,24.875,-58.5
1774889924.304808,0.0,0.0,0.0,-0.045679752886402,-1.51016757722087,9.801466172731253,0.0,0.0,-0.002181661564992912,43.1875,24.875,-58.5
1774889924.3383398,0.0,0.0,0.0,-0.045679752886402,-1.51016757722087,9.801466172731253,0.0,0.0,-0.002181661564992912,43.1875,24.875,-58.5
1774889924.3546185,-0.019317668318605128,0.2510512364559155,-8.800487281270822,-0.04043470039158417,-1.5101115207685287,9.804320833281746,0.0,0.001090830782496456,0.0,41.75,24.5625,-56.75
1774889924.6298416,-0.019317668318605128,0.2510512364559155,-8.800487281270822,-0.04043470039158417,-1.5101115207685287,9.804320833281746,0.0,0.001090830782496456,0.0,41.75,24.5625,-56.75
1774889924.6569552,0.0,0.0,0.0,-0.050324623376635874,-1.533489997776923,9.806220577989452,0.0,0.001090830782496456,0.0,43.5625,24.5625,-58.375
1774889924.7053554,-0.019317668318605128,0.2510512364559155,-8.800487281270822,-0.046870921523551067,-1.5222872194127544,9.80748483687089,0.0,0.0,0.001090830782496456,43.5625,24.5625,-58.375
1774889924.7252498,-0.019317668318605128,0.2510512364559155,-8.800487281270822,-0.04457252152070072,-1.5148318955546343,9.80498107532647,0.002181661564992912,0.001090830782496456,0.0,43.1875,25.6875,-57.25
1774889924.966967,0.0,0.0,0.0,-0.04304296199361414,-1.5098704608084796,9.806659961694828,0.003272492347489368,0.001090830782496456,-0.003272492347489368,43.1875,25.6875,-57.25
1774889924.9868724,0.0,0.0,0.0,-0.04304296199361414,-1.5098704608084796,9.806659961694828,0.003272492347489368,0.001090830782496456,-0.003272492347489368,43.1875,25.6875,-57.25
1774889925.0038202,0.0,0.0,0.0,-0.04202505721463748,-1.5099137931150908,9.804432130111262,-0.001090830782496456,0.001090830782496456,-0.001090830782496456,42.5,23.75,-56.75
1774889925.0352824,-0.019317668318605128,0.2510512364559155,-8.800487281270822,-0.041347652954969935,-1.509942630281087,9.799604421371589,0.001090830782496456,0.002181661564992912,0.0,42.5,23.75,-56.75
1774889925.263247,-0.019317668318605128,0.2510512364559155,-8.800487281270822,-0.041347652954969935,-1.509942630281087,9.799604421371589,0.001090830782496456,0.002181661564992912,0.0,42.5,23.75,-56.75
1774889925.2921991,0.0,0.0,0.0,-0.040896847987262584,-1.509961821092925,9.796391635134375,0.0,0.001090830782496456,-0.002181661564992912,42.5,24.1875,-57.25
1774889925.3091629,0.0,0.0,0.0,-0.040896847987262584,-1.509961821092925,9.796391635134375,0.0,0.001090830782496456,-0.002181661564992912,42.5,24.1875,-57.25
1774889925.340252,-0.019317668318605128,0.2510512364559155,-8.800487281270822,-0.0405968423170748,-1.5133197040711475,9.794253561782684,0.0,-0.001090830782496456,-0.001090830782496456,42.5,24.1875,-57.25
1774889925.3586726,-0.019317668318605128,0.2510512364559155,-8.800487281270822,-0.03705208018752836,-1.5155543376831437,9.799520921265616,-0.001090830782496456,-0.001090830782496456,0.0,43.1875,25.25,-57.5625
1774889925.6032736,0.0,0.0,0.0,-0.03803819229522212,-1.5170414613894343,9.803026290161247,0.0,-0.001090830782496456,0.001090830782496456,43.1875,25.25,-57.5625
1774889925.638444,0.0,0.0,0.0,-0.03803819229522212,-1.5170414613894343,9.803026290161247,0.0,-0.001090830782496456,0.001090830782496456,43.1875,25.25,-57.5625
1774889925.6535866,-0.019317668318605128,0.2510512364559155,-8.800487281270822,-0.03534932717997892,-1.514686013896391,9.805359074003754,0.0,-0.001090830782496456,-0.001090830782496456,42.75,24.5625,-58.5
1774889925.697704,-0.019317668318605128,0.2510512364559155,-8.800487281270822,-0.036905029189695376,-1.5097733781945237,9.8002212921774,0.0,-0.001090830782496456,0.001090830782496456,42.75,24.5625,-58.5
1774889925.9443078,-0.019317668318605128,0.2510512364559155,-8.800487281270822,-0.036905029189695376,-1.5097733781945237,9.8002212921774,0.0,-0.001090830782496456,0.001090830782496456,42.75,24.5625,-58.5
1774889925.9706612,0.0,0.0,0.0,-0.03794033149883155,-1.5065040740126676,9.796802155764745,0.001090830782496456,-0.001090830782496456,0.002181661564992912,42.5,23.5,-57.5625
1774889925.99475,0.0,0.0,0.0,-0.041974425327796494,-1.504328388600163,9.797871870383698,-0.001090830782496456,0.0,0.0,42.5,23.5,-57.5625
1774889926.0403292,-0.019317668318605128,0.2510512364559155,-8.800487281270822,-0.044659069707191884,-1.5062256059694592,9.801928865220436,-0.001090830782496456,-0.002181661564992912,0.001090830782496456,42.5,23.5,-57.5625
1774889926.2812347,0.0,0.0,0.0,-0.0464456705522368,-1.507488182935419,9.804628749964683,-0.001090830782496456,0.004363323129985824,-0.006544984694978736,42.75,24.5625,-57.5625
1774889926.3188972,-0.019317668318605128,0.2510512364559155,-8.800487281270822,-0.0409444100423363,-1.5083284138023565,9.80642549310229,-0.001090830782496456,0.0,0.001090830782496456,42.75,24.5625,-57.5625
1774889926.3485327,-0.019317668318605128,0.2510512364559155,-8.800487281270822,-0.037283382626104,-1.5055424663509902,9.807621205589433,0.0,0.0,0.002181661564992912,42.75,24.5625,-57.5625
1774889926.6462414,0.0,0.0,0.0,-0.03484700977695729,-1.5036884494431781,9.801726715478004,0.0,-0.002181661564992912,0.002181661564992912,42.75,24.1875,-57.5625
1774889926.902773,-0.019317668318605128,0.2510512364559155,-8.800487281270822,-0.036570742569237535,-1.5024546219017552,9.791113774739978,0.0,-0.003272492347489368,-0.001090830782496456,42.75,24.1875,-57.5625
1774889926.940871,0.0,0.0,0.0,-0.04106297919446247,-1.5016335234556948,9.784050981233138,0.001090830782496456,-0.001090830782496456,0.001090830782496456,42.75,23.5,-57.25
1774889926.9693785,-0.019317668318605128,-0.2525265715625134,8.851387555822521,-0.04405251248697852,-1.5010870916121122,9.789386106172866,0.0,-0.002181661564992912,0.0,42.75,23.5,-57.25
1774889927.008194,-0.019317668318605128,0.2510512364559155,-8.800487281270822,-0.042696901790553535,-1.5007234473242517,9.792936572223006,0.0,-0.001090830782496456,-0.001090830782496456,42.75,26.0625,-57.25
1774889927.279908,0.0,0.0,0.0,-0.04179475801524641,-1.5004814461128533,9.79529936771807,-0.001090830782496456,0.0,0.0,42.75,26.0625,-57.25
1774889927.3348613,-0.019317668318605128,0.2510512364559155,-8.800487281270822,-0.041194391410385806,-1.5070106204246372,9.796871781725878,0.0,-0.003272492347489368,0.0,42.5,23.75,-56.75
1774889927.3606617,-0.019317668318605128,0.2510512364559155,-8.800487281270822,-0.0374497424340661,-1.5113557129934734,9.79791820568306,0.0,0.002181661564992912,0.0,42.5,23.75,-56.75
1774889927.5914693,-0.019317668318605128,0.2510512364559155,-8.800487281270822,-0.0374497424340661,-1.5113557129934734,9.79791820568306,0.0,0.002181661564992912,0.0,42.5,23.75,-56.75
1774889927.6585836,-0.019317668318605128,0.2510512364559155,-8.800487281270822,-0.03329930752539895,-1.506136322968941,9.795732912839568,0.0,-0.001090830782496456,0.0,42.75,25.25,-57.25
1774889927.9835262,-0.019317668318605128,0.2510512364559155,-8.800487281270822,-0.03554076400979243,-1.5040836543886114,9.79047007774658,0.001090830782496456,-0.002181661564992912,0.002181661564992912,42.5,25.25,-56.5
1774889928.0625012,-0.019317668318605128,0.2510512364559155,-8.800487281270822,-0.03554076400979243,-1.5040836543886114,9.79047007774658,0.001090830782496456,-0.002181661564992912,0.002181661564992912,42.5,25.25,-56.5
1774889928.094324,-0.019317668318605128,0.2510512364559155,-8.800487281270822,-0.03703242826144676,-1.5027176263782123,9.786967719781916,0.002181661564992912,0.0,-0.001090830782496456,42.5,25.25,-56.5
1774889928.2935765,-0.019317668318605128,0.2510512364559155,-8.800487281270822,-0.03703242826144676,-1.5027176263782123,9.786967719781916,0.002181661564992912,0.0,-0.001090830782496456,42.5,25.25,-56.5
1774889928.3382938,0.0,0.0,0.0,-0.038025114157941214,-1.5018085499968246,9.791327163094975,0.0,-0.003272492347489368,0.001090830782496456,42.75,24.1875,-56.0
1774889928.3925207,-0.019317668318605128,0.2510512364559155,-8.800487281270822,-0.03912537167852768,-1.5008009622704936,9.796159014043699,0.001090830782496456,-0.001090830782496456,0.0,42.5,25.25,-56.75
1774889928.667788,-0.019317668318605128,0.2510512364559155,-8.800487281270822,-0.03912537167852768,-1.5008009622704936,9.796159014043699,0.001090830782496456,-0.001090830782496456,0.0,42.5,25.25,-56.75
1774889928.6973162,0.0,0.0,0.0,-0.039417944622298695,-1.5005330314436787,9.797443866752706,0.0,0.0,-0.001090830782496456,42.5,25.25,-56.75
1774889928.748172,-0.019317668318605128,0.2510512364559155,-8.800487281270822,-0.04308733370964428,-1.503581178211493,9.795522839804647,0.0,0.001090830782496456,0.0,42.5,24.1875,-58.0
1774889928.9785976,-0.019317668318605128,0.2510512364559155,-8.800487281270822,-0.04308733370964428,-1.503581178211493,9.795522839804647,0.0,0.001090830782496456,0.0,42.5,24.1875,-58.0
1774889929.0046942,0.0,0.0,0.0,-0.04539969780331038,-1.5057283458026862,9.79367538819583,0.0,-0.001090830782496456,0.0,42.75,25.25,-57.25
1774889929.0289333,0.0,0.0,0.0,-0.046938550276845736,-1.5071572618491917,9.795791041494867,0.0,0.001090830782496456,0.0,42.75,25.25,-57.25
1774889929.050864,-0.019317668318605128,0.2510512364559155,-8.800487281270822,-0.04461752770055565,-1.5047630778087835,9.797198985131981,-0.001090830782496456,0.003272492347489368,0.0,42.75,25.25,-57.25
1774889929.0679176,-0.019317668318605128,0.2510512364559155,-8.800487281270822,-0.04461752770055565,-1.5047630778087835,9.797198985131981,-0.001090830782496456,0.003272492347489368,0.0,42.75,25.25,-57.25
1774889929.3089733,-0.019317668318605128,0.2510512364559155,-8.800487281270822,-0.039727801396236245,-1.50316977507468,9.79813595589472,-0.001090830782496456,0.002181661564992912,0.0,42.5,25.25,-56.5
1774889929.3321626,0.0,0.0,0.0,-0.033128631455214094,-1.502109449903492,9.792069276056035,0.002181661564992912,0.002181661564992912,0.003272492347489368,42.5,25.25,-56.5
1774889929.355976,0.0,0.0,0.0,-0.028736957577022278,-1.5080940387613133,9.784686856685324,0.0,0.0,0.001090830782496456,42.5,25.25,-56.5
1774889929.400766,-0.019317668318605128,0.2510512364559155,-8.800487281270822,-0.02915945937661666,-1.508731604086636,9.779773939061144,-0.002181661564992912,-0.001090830782496456,0.0,42.5,23.75,-56.75
1774889929.6446657,-0.019317668318605128,0.2510512364559155,-8.800487281270822,-0.02915945937661666,-1.508731604086636,9.779773939061144,-0.002181661564992912,-0.001090830782496456,0.0,42.5,23.75,-56.75
1774889929.6702712,0.0,0.0,0.0,-0.029440629604592376,-1.5125010083958865,9.779849558970458,-0.003272492347489368,0.002181661564992912,0.001090830782496456,43.1875,24.875,-57.25
1774889929.6901038,0.0,0.0,0.0,-0.03297285695775235,-1.5150095048566876,9.779899883175377,-0.001090830782496456,0.001090830782496456,0.0,43.1875,24.875,-57.25
1774889929.70841,0.0,0.0,0.0,-0.03297285695775235,-1.5150095048566876,9.779899883175377,-0.001090830782496456,0.001090830782496456,0.0,43.1875,24.875,-57.25
1774889929.7361188,-0.019317668318605128,0.2510512364559155,-8.800487281270822,-0.03532351480371541,-1.516678881229609,9.779933373371591,-0.001090830782496456,0.0,-0.003272492347489368,43.1875,24.875,-57.25
1774889929.9542832,-0.019317668318605128,0.2510512364559155,-8.800487281270822,-0.03532351480371541,-1.516678881229609,9.779933373371591,-0.001090830782496456,0.0,-0.003272492347489368,43.1875,24.875,-57.25
1774889930.0006588,0.0,0.0,0.0,-0.03688785134163514,-1.5110996091429936,9.773265437308423,-0.001090830782496456,0.003272492347489368,-0.001090830782496456,42.75,24.5625,-57.25
1774889930.0281687,-0.019317668318605128,0.2510512364559155,-8.800487281270822,-0.03458378812551722,-1.500696442479265,9.768828000344111,0.001090830782496456,-0.001090830782496456,0.0,42.75,24.5625,-57.25
1774889930.0491898,-0.019317668318605128,0.2510512364559155,-8.800487281270822,-0.0330504597932633,-1.49377325127554,9.7692200473211,0.0,-0.002181661564992912,0.002181661564992912,42.75,24.5625,-57.25
1774889930.2999048,0.0,0.0,0.0,-0.03203004691654809,-1.4925110565738933,9.776171173619474,-0.004363323129985824,0.001090830782496456,0.002181661564992912,42.75,24.5625,-57.25
1774889930.3254938,0.0,0.0,0.0,-0.03203004691654809,-1.4925110565738933,9.776171173619474,-0.004363323129985824,0.001090830782496456,0.002181661564992912,42.75,24.5625,-57.25
1774889930.3641415,-0.019317668318605128,0.2510512364559155,-8.800487281270822,-0.03647030398459596,-1.494457196846406,9.783875553235765,0.0,0.002181661564992912,0.0,42.0625,24.1875,-57.5625
1774889930.7215557,0.0,0.0,0.0,-0.037651026731036624,-1.4963113264184513,9.785924249092956,0.001090830782496456,-0.001090830782496456,0.0,42.75,24.875,-57.25
1774889930.7505224,-0.019317668318605128,0.2510512364559155,-8.800487281270822,-0.03843678452925559,-1.5109256757659406,9.790632745007802,0.0,0.001090830782496456,-0.002181661564992912,42.75,24.875,-57.25
1774889931.0176296,-0.019317668318605128,0.2510512364559155,-8.800487281270822,-0.03843678452925559,-1.5109256757659406,9.790632745007802,0.0,0.001090830782496456,-0.002181661564992912,42.75,24.875,-57.25
1774889931.0567904,-0.019317668318605128,0.2510512364559155,-8.800487281270822,-0.03915709920478892,-1.4968845102379167,9.813917522199217,0.0,0.001090830782496456,0.0,42.5,23.75,-57.25
1774889931.5211053,-0.10206866627679838,0.23059890798794147,-8.87068002225099,-0.04384135156871882,-1.6261684269760754,9.866867067721184,0.002181661564992912,-0.015271630954950384,0.006544984694978736,42.75,22.6875,-57.5625
1774889931.892346,0.08105169071068186,0.31487074430897033,-8.779083773094861,-0.012921301020450016,-1.603437723361783,9.810432785958657,0.008726646259971648,0.016362461737446838,0.022907446432425576,43.5625,26.375,-60.0
1774889932.1506615,0.0,0.0,0.0,0.011471688755196809,-1.5253501972270347,9.823668461050227,-0.009817477042468103,0.003272492347489368,0.004363323129985824,43.5625,26.375,-60.0
1774889932.180653,0.1717856393172055,0.32178214864786536,-8.750621733933738,0.027704950963339813,-1.5570116135621663,9.87930821887396,-0.014180800172453928,-0.001090830782496456,-0.015271630954950384,45.375,25.6875,-62.0625
1774889932.4299526,0.21307566083487536,0.331972102959979,-8.75755677384288,0.025127558796160836,-1.578081932452002,9.916335856168836,0.007635815477475192,-0.00545415391248228,0.026179938779914945,45.375,25.6875,-62.0625
1774889932.461267,0.0,0.0,0.0,0.023412333100260228,-1.4716799728388055,9.837278872235864,0.001090830782496456,-0.00545415391248228,0.026179938779914945,48.375,27.0625,-65.1875
1774889932.5024257,0.30580078553540013,0.3110999967396886,-8.785588115298069,0.022270869559964834,-1.3841450987673949,9.75790643889429,-0.006544984694978736,-0.01090830782496456,0.016362461737446838,48.375,27.0625,-65.1875
1774889932.5317714,0.37553947407921306,0.3164575067122163,-8.78541514271473,-0.0019045436263542131,-1.3258916179014846,9.70508497115365,-0.007635815477475192,0.0,0.038179077387375956,47.5625,30.0625,-66.0
1774889932.7698824,0.37553947407921306,0.3164575067122163,-8.78541514271473,-0.0019045436263542131,-1.3258916179014846,9.70508497115365,-0.007635815477475192,0.0,0.038179077387375956,47.5625,30.0625,-66.0
1774889932.8171294,0.0,0.0,0.0,-0.03137345787406687,-1.317230582485115,9.690003544670626,0.009817477042468103,0.00545415391248228,0.004363323129985824,47.5625,30.0625,-66.0
1774889932.855382,0.4473289153597477,0.29401873606487605,-8.81302699668205,-0.047322009224056986,-1.4301984167843935,9.7457140316593,-0.009817477042468103,-0.002181661564992912,0.02181661564992912,49.5,30.75,-69.1875
1774889933.0959485,0.5170487269868242,0.299426183968598,-8.819926629396967,-0.047322009224056986,-1.4301984167843935,9.7457140316593,-0.009817477042468103,-0.002181661564992912,0.02181661564992912,49.5,30.75,-69.1875
1774889933.1188416,0.0,0.0,0.0,-0.03149226851713009,-1.4602380495194276,9.720386842288113,-0.004363323129985824,0.001090830782496456,0.007635815477475192,52.375,36.6875,-69.5625
1774889933.1430213,0.0,0.0,0.0,-0.02095775290646034,-1.480229089539908,9.633284534831123,0.003272492347489368,-0.011999138607461015,0.04581489286485115,52.375,36.6875,-69.5625
1774889933.1704717,0.6585739804491008,0.2825805857072748,-8.86915338719201,-0.00928167282180736,-1.49124395047986,9.531172208356137,0.01090830782496456,-0.001090830782496456,0.04254240051736178,53.1875,38.1875,-68.0
1774889933.4306147,0.7567619840946235,0.2831321302037927,-8.861944447824007,-0.00928167282180736,-1.49124395047986,9.531172208356137,0.01090830782496456,-0.001090830782496456,0.04254240051736178,53.1875,38.1875,-68.0
1774889933.453478,0.0,0.0,0.0,-0.006176849579833766,-1.494172946855829,9.463877857420197,0.004363323129985824,0.0,0.019634954084936207,53.1875,38.1875,-68.0
1774889933.4853075,0.0,0.0,0.0,-0.004110624395448492,-1.4927770495176833,9.529482904941023,0.009817477042468103,0.001090830782496456,0.006544984694978736,54.6875,40.75,-70.375
1774889933.5139177,0.868360038093977,0.2917250431990574,-8.854672000247719,-0.009425798031126519,-1.4416714198225518,9.516275432185303,0.014180800172453928,-0.01090830782496456,0.044724062082354694,54.6875,40.75,-70.375
1774889933.777404,0.868360038093977,0.2917250431990574,-8.854672000247719,-0.009425798031126519,-1.4416714198225518,9.516275432185303,0.014180800172453928,-0.01090830782496456,0.044724062082354694,54.6875,40.75,-70.375
1774889933.8621225,1.055108376666951,0.3269625032659542,-8.82590115483725,-0.03089988758207687,-1.4407402306921955,9.557349203875086,0.020725784867432664,0.014180800172453928,0.03381575425739013,56.5,44.375,-68.0
1774889934.2739072,1.2003805204069338,0.3524220541708833,-8.846088123202836,0.00971916244524237,-1.4626128146752628,9.654656189967637,0.002181661564992912,0.002181661564992912,0.025089107997418487,59.75,48.5,-67.1875
1774889934.5331428,1.2905443512219197,0.366249190334841,-8.831699253255229,0.033228887695705527,-1.4684290223939738,9.683204647776288,0.002181661564992912,-0.00545415391248228,0.022907446432425576,59.75,50.75,-67.1875
1774889934.5815122,0.0,0.0,0.0,0.03883901210709189,-1.448883861708243,9.759070226565203,0.011999138607461015,-0.004363323129985824,-0.006544984694978736,59.75,50.75,-67.1875
1774889934.6035225,1.2483191624522119,0.36961782371355645,-8.796977255376273,0.04926271064831234,-1.4659827809715142,9.809557921775184,0.002181661564992912,0.004363323129985824,-0.013089969389957472,61.6875,52.5625,-65.1875
1774889934.648927,1.2483191624522119,0.36961782371355645,-8.796977255376273,0.04926271064831234,-1.4659827809715142,9.809557921775184,0.002181661564992912,0.004363323129985824,-0.013089969389957472,61.6875,52.5625,-65.1875
1774889934.8467112,1.2483191624522119,0.36961782371355645,-8.796977255376273,0.04926271064831234,-1.4659827809715142,9.809557921775184,0.002181661564992912,0.004363323129985824,-0.013089969389957472,61.6875,52.5625,-65.1875
1774889934.8819156,0.0,0.0,0.0,0.02943867192859727,-1.5041228143923329,9.883298259440748,-0.001090830782496456,-0.004363323129985824,-0.003272492347489368,62.375,55.5,-64.75
1774889934.9349263,1.1512058565127512,0.35513198338268986,-8.79727344570212,0.016245995609649365,-1.5295045805817982,9.765116045057667,0.008726646259971648,-0.003272492347489368,-0.01090830782496456,62.375,55.5,-64.75
1774889935.1778905,1.1512058565127512,0.35513198338268986,-8.79727344570212,0.016245995609649365,-1.5295045805817982,9.765116045057667,0.008726646259971648,-0.003272492347489368,-0.01090830782496456,62.375,55.5,-64.75
1774889935.2296467,0.0,0.0,0.0,-0.00256891823071791,-1.509599633667468,9.686467101567564,-0.007635815477475192,0.0,-0.013089969389957472,62.375,59.1875,-62.5
1774889935.2534943,1.0546629061363786,0.33354136538689355,-8.783507587122488,-0.016732471952587386,-1.5209888199560047,9.736445007358576,0.008726646259971648,0.0,-0.02399827721492203,62.75,60.6875,-61.5625
1774889935.5111485,0.0,0.0,0.0,-0.017825496585126825,-1.5775249476593078,9.837987543328584,0.001090830782496456,-0.011999138607461015,-0.008726646259971648,62.75,60.6875,-61.5625
1774889935.5358155,0.0,0.0,0.0,-0.01855289226819665,-1.615149109095929,9.87211184963898,-0.008726646259971648,0.016362461737446838,-0.0272707695624114,62.75,60.6875,-61.5625
1774889935.5867682,0.0,0.0,0.0,-0.01855289226819665,-1.615149109095929,9.87211184963898,-0.008726646259971648,0.016362461737446838,-0.0272707695624114,62.75,60.6875,-61.5625
1774889935.8241172,0.8925801761207157,0.34236270815917985,-8.81192746129548,-0.03576252450633435,-1.593356004340107,9.854679853807237,0.003272492347489368,0.015271630954950384,-0.022907446432425576,62.75,62.5,-60.75
1774889935.862111,0.0,0.0,0.0,-0.03048978398002958,-1.5788529365700388,9.843079055309365,-0.007635815477475192,-0.001090830782496456,-0.025089107997418487,62.75,62.5,-60.75
1774889935.9116027,0.8233756254379577,0.3300147942154397,-8.812137993720427,-0.026980834060144752,-1.5758915303935794,9.992579103742454,-0.007635815477475192,0.006544984694978736,-0.013089969389957472,60.5,64.375,-59.25
1774889936.191447,0.748227747898856,0.30332371458171814,-8.83360676314735,-0.024645667086000342,-1.5739207476642203,10.092069715949709,-0.018544123302439753,-0.009817477042468103,-0.04254240051736178,60.5,64.375,-59.25
1774889936.2230175,0.0,0.0,0.0,-0.03312697467218969,-1.55922876694364,10.004404468453986,0.00545415391248228,-0.002181661564992912,-0.03381575425739013,59.75,67.6875,-55.25
1774889936.2379882,0.0,0.0,0.0,-0.03312697467218969,-1.55922876694364,10.004404468453986,0.00545415391248228,-0.002181661564992912,-0.03381575425739013,59.75,67.6875,-55.25
1774889936.2591116,0.5744069322088015,0.2829182572960717,-8.841063291113317,-0.03877119012838517,-1.4892394071625232,9.855746209432938,0.020725784867432664,-0.003272492347489368,-0.03490658503988659,59.75,67.6875,-55.25
1774889936.537009,0.0,0.0,0.0,0.010685425271898266,-1.3503819976267906,9.679836223079958,0.002181661564992912,-0.00545415391248228,-0.013089969389957472,60.1875,69.875,-55.25
1774889936.5820546,0.37919126398694086,0.26774865883964105,-8.820296987117901,0.013801254569065703,-1.4706782366169338,9.73006768389901,0.009817477042468103,0.0,-0.02399827721492203,56.75,68.75,-52.875
1774889936.6487386,0.2960954957178435,0.2542964616422979,-8.80690313799658,-0.010886089498318277,-1.550734039867835,9.837088617512933,-0.011999138607461015,0.0,-0.050178215994836975,56.75,68.75,-52.875
1774889936.8891866,0.2960954957178435,0.2542964616422979,-8.80690313799658,-0.010886089498318277,-1.550734039867835,9.837088617512933,-0.011999138607461015,0.0,-0.050178215994836975,56.75,68.75,-52.875
1774889936.923271,0.0,0.0,0.0,-0.05073102315069516,-1.5638689421615593,9.881548959672282,-0.004363323129985824,0.003272492347489368,-0.015271630954950384,55.75,69.875,-49.25
1774889936.9605505,0.1645907575746594,0.23018781265368674,-8.84192956636905,-0.05383159944804335,-1.5692649612042406,9.911136820724765,-0.009817477042468103,0.0,-0.014180800172453928,55.75,69.875,-49.25
1774889937.2623687,0.11575134472911823,0.22642989811468697,-8.856133624130782,-0.03582432809430561,-1.572855951599663,9.92413698832249,0.0,0.009817477042468103,-0.022907446432425576,55.75,72.5,-48.0625
1774889937.3011098,0.0,0.0,0.0,-0.023840690162794366,-1.5585201570572285,9.81236443317389,0.003272492347489368,0.004363323129985824,-0.002181661564992912,55.75,72.5,-48.0625
1774889937.3327546,-0.10691666674341675,0.20214840560922814,-8.891826084635726,-0.015865712985380614,-1.5790858512964308,9.858405067767247,0.00545415391248228,0.0,-0.019634954084936207,54.25,69.5,-45.0
1774889937.3603575,-0.12083755227869802,0.20107691304957032,-8.877737589926872,0.012857327191091658,-1.5927720910787624,9.688337893342375,0.019634954084936207,0.004363323129985824,0.001090830782496456,54.25,69.5,-45.0
1774889937.6098886,-0.12083755227869802,0.20107691304957032,-8.877737589926872,0.012857327191091658,-1.5927720910787624,9.688337893342375,0.019634954084936207,0.004363323129985824,0.001090830782496456,54.25,69.5,-45.0
1774889937.631969,0.0,0.0,0.0,0.03197218957115169,-1.6018801307685882,9.795937461220518,-0.009817477042468103,-0.002181661564992912,-0.037088246604879506,53.1875,69.0625,-42.0625
1774889937.6532526,-0.2672890808252307,0.18969433659546794,-8.885060137941432,0.044692916958077956,-1.6079414294386973,9.820712207775022,-0.00545415391248228,0.015271630954950384,-0.017453292519943295,53.1875,69.0625,-42.0625
1774889937.6887815,-0.31718600844382383,0.19984875214236644,-8.885193156708311,0.0029817433244509264,-1.6186653794091512,9.884031088757464,0.002181661564992912,0.01090830782496456,-0.02399827721492203,53.1875,69.0625,-42.0625
1774889937.9100482,-0.31718600844382383,0.19984875214236644,-8.885193156708311,0.0029817433244509264,-1.6186653794091512,9.884031088757464,0.002181661564992912,0.01090830782496456,-0.02399827721492203,53.1875,69.0625,-42.0625
1774889937.9366696,0.0,0.0,0.0,-0.02477657678438837,-1.6258020483201179,9.956275102098907,-0.008726646259971648,0.0,-0.020725784867432664,49.75,66.875,-39.0
1774889937.9618514,-0.4630843717884123,0.18143147190503217,-8.899023434401855,-0.04324942873606792,-1.6305514217585508,10.00435268595913,0.006544984694978736,0.009817477042468103,-0.037088246604879506,49.75,66.875,-39.0
1774889938.0194576,-0.5403444528427144,0.18240392498978164,-8.906259848147057,-0.055542905354633375,-1.657127858679086,9.982825993639196,-0.009817477042468103,0.011999138607461015,-0.05126904677733343,49.75,66.875,-39.0
1774889938.2491927,-0.5403444528427144,0.18240392498978164,-8.906259848147057,-0.055542905354633375,-1.657127858679086,9.982825993639196,-0.009817477042468103,0.011999138607461015,-0.05126904677733343,49.75,66.875,-39.0
1774889938.2741227,0.0,0.0,0.0,-0.04699851818055987,-1.6513983986202139,9.96850022036919,0.0,-0.008726646259971648,-0.01090830782496456,49.75,66.875,-39.0
1774889938.3026018,0.0,0.0,0.0,-0.04131232396327265,-1.6475855069532968,9.958966578287374,-0.006544984694978736,-0.001090830782496456,-0.01090830782496456,50.5625,64.75,-37.75
1774889938.3222647,-0.6911420462083245,0.13522122250737836,-8.969849691954215,-0.037528225230619355,-1.6450480701417542,9.912480705491852,-0.026179938779914945,-0.01090830782496456,-0.0545415391248228,50.5625,64.75,-37.75
1774889938.6214128,0.0,0.0,0.0,-0.024974614673233007,-1.5262805245325206,9.751085519842201,-0.003272492347489368,0.0,-0.02181661564992912,47.5625,62.875,-36.5625
1774889938.6441696,-0.87129361212558,0.10709956298858876,-8.962437348224991,-0.016620327080310787,-1.4907285018451426,9.643678826694714,0.002181661564992912,0.008726646259971648,-0.026179938779914945,47.5625,62.875,-36.5625
1774889938.9346802,-0.9270791919907735,0.10272823459040581,-8.962521683373575,0.029080698477104313,-1.4670690278888079,9.716040675631172,-0.011999138607461015,-0.002181661564992912,-0.04145156973486533,47.5625,62.875,-36.5625
1774889938.9611363,0.0,0.0,0.0,0.06283933217897764,-1.4513239122645085,9.764196677763568,-0.003272492347489368,0.001090830782496456,0.002181661564992912,47.5625,62.875,-36.5625
1774889938.997732,-0.9474787817756917,0.09429848802621106,-8.94186021629795,0.09691108188409087,-1.5563809056273403,9.785179827274293,0.0,0.009817477042468103,-0.014180800172453928,47.25,61.0625,-35.75
1774889939.3999224,-0.9995038511644302,0.1326201939888324,-8.907023438835873,0.07634700948504193,-1.5606115066785073,9.590574593389613,0.01090830782496456,0.007635815477475192,-0.006544984694978736,46.875,59.1875,-35.0
1774889939.6354964,0.0,0.0,0.0,0.003976518057846781,-1.573787397692847,9.597072608896797,-0.015271630954950384,-0.001090830782496456,0.00545415391248228,44.875,55.75,-33.5
1774889939.6616664,0.0,0.0,0.0,0.003976518057846781,-1.573787397692847,9.597072608896797,-0.015271630954950384,-0.001090830782496456,0.00545415391248228,44.875,55.75,-33.5
1774889939.6837556,-0.9501440687652191,0.1294484165979679,-8.906874460627026,-0.04418523555559161,-1.4888926781736007,9.507733837824297,0.008726646259971648,-0.004363323129985824,0.020725784867432664,44.875,55.75,-33.5
1774889939.7398164,-0.9222368981658822,0.13167591782449833,-8.899768754303484,-0.039440115802782345,-1.519369095060001,9.56201368170387,0.007635815477475192,0.003272492347489368,0.007635815477475192,46.0,56.5625,-33.875
1774889940.0252206,-0.9222368981658822,0.13167591782449833,-8.899768754303484,-0.039440115802782345,-1.519369095060001,9.56201368170387,0.007635815477475192,0.003272492347489368,0.007635815477475192,46.0,56.5625,-33.875
1774889940.06288,-0.8331953014416481,0.15969771353337198,-8.892713210859917,-0.026246956491790402,-1.5296154749320587,9.59813631146014,-0.002181661564992912,-0.004363323129985824,0.02181661564992912,46.0,53.5625,-31.0625
1774889940.1111317,-0.804732412341138,0.1549899878951122,-8.878494476088367,0.039399842676858185,-1.5364343262773503,9.622175518046724,0.02945243112740431,-0.006544984694978736,0.039269908169872414,46.0,53.5625,-31.0625
1774889940.332478,-0.804732412341138,0.1549899878951122,-8.878494476088367,0.039399842676858185,-1.5364343262773503,9.622175518046724,0.02945243112740431,-0.006544984694978736,0.039269908169872414,46.0,53.5625,-31.0625
1774889940.3509057,0.0,0.0,0.0,0.0830870542007977,-1.4874504083589712,9.748562027836103,0.017453292519943295,0.001090830782496456,0.02945243112740431,44.875,50.1875,-30.25
1774889940.3923323,-0.7403674756330572,0.1390440049584605,-8.864655127049026,0.05529350642742085,-1.418055929389993,9.695521258271018,0.007635815477475192,-0.013089969389957472,0.022907446432425576,44.875,50.1875,-30.25
1774889940.409525,-0.705486745704228,0.14178846858629593,-8.857539656721444,0.03679721085851034,-1.4053257958964545,9.646842771800396,0.014180800172453928,0.0,0.04581489286485115,44.875,50.1875,-30.25
1774889940.4316888,-0.705486745704228,0.14178846858629593,-8.857539656721444,0.03679721085851034,-1.4053257958964545,9.646842771800396,0.014180800172453928,0.0,0.04581489286485115,44.875,50.1875,-30.25
1774889940.8071427,-0.5805385287496231,0.1583782012798344,-8.878534651943886,-0.0021333931511800085,-1.482175421940054,9.84596215312886,-0.008726646259971648,0.001090830782496456,0.01090830782496456,43.375,47.6875,-28.75
1774889941.0376365,-0.5805385287496231,0.1583782012798344,-8.878534651943886,-0.0021333931511800085,-1.482175421940054,9.84596215312886,-0.008726646259971648,0.001090830782496456,0.01090830782496456,43.375,47.6875,-28.75
1774889941.0787437,0.0,0.0,0.0,-0.0014197493105472846,-1.3877845911951079,9.787100847281213,0.01090830782496456,-0.002181661564992912,0.01090830782496456,43.375,44.0,-27.875
1774889941.1344228,-0.3905640113945895,0.15221179846664437,-8.835787041378335,0.002400284400789134,-1.3249685477490138,9.747929305763472,-0.00545415391248228,-0.018544123302439753,0.02945243112740431,43.375,44.0,-27.875
1774889941.3512132,-0.3905640113945895,0.15221179846664437,-8.835787041378335,0.002400284400789134,-1.3249685477490138,9.747929305763472,-0.00545415391248228,-0.018544123302439753,0.02945243112740431,43.375,44.0,-27.875
1774889941.4478247,-0.13529894519203517,0.20698207591701992,-8.863660800612607,-0.07064707058652703,-1.5667766966782335,9.808348850334097,0.00545415391248228,-0.01090830782496456,0.04363323129985824,42.25,40.25,-26.75
1774889941.7292774,0.0,0.0,0.0,-0.053705059710484754,-1.5812353744752994,9.792175619805295,0.007635815477475192,0.006544984694978736,0.015271630954950384,42.25,40.25,-26.75
1774889941.7754214,0.04279457772450641,0.26286544811718127,-8.849212074139222,-0.03908522901982123,-1.5908574630352328,9.7814125155552,0.011999138607461015,0.004363323129985824,0.04799655442984406,42.6875,35.1875,-25.0625
1774889941.789161,0.10501457044121666,0.27469503905707315,-8.8490689440128,-0.02935589500939428,-1.5704999618275415,9.774249789908515,0.002181661564992912,-0.003272492347489368,0.031634092692397225,42.6875,35.1875,-25.0625
1774889941.812261,0.16080099247357296,0.2790117690075049,-8.84894071357385,-0.022881131909237316,-1.5402267136454149,9.709271065271784,-0.001090830782496456,-0.00545415391248228,0.05672320068981571,42.6875,35.1875,-25.0625
1774889942.117482,0.34153580124803445,0.30005883889787055,-8.862619950739544,-0.04689425883363398,-1.506672928805125,9.684082536300822,-0.016362461737446838,0.0,0.022907446432425576,41.875,29.25,-28.0625
1774889942.1492157,0.34153580124803445,0.30005883889787055,-8.862619950739544,-0.04689425883363398,-1.506672928805125,9.684082536300822,-0.016362461737446838,0.0,0.022907446432425576,41.875,29.25,-28.0625
1774889942.3709536,0.4316678503922571,0.3140301914954104,-8.855327373034116,-0.047933163947185456,-1.5613076586027412,9.699442440839876,-0.003272492347489368,-0.003272492347489368,0.037088246604879506,41.5,30.6875,-28.5
1774889942.4164634,0.0,0.0,0.0,-0.02520876174368774,-1.5207288917047879,9.846813865729334,0.009817477042468103,0.006544984694978736,0.003272492347489368,41.5,30.6875,-28.5
1774889942.4499493,0.5909637525159841,0.34043485304256116,-8.861932374867049,-0.010085925925465488,-1.4669632819701723,9.944887902746586,0.001090830782496456,-0.013089969389957472,0.04036073895236887,40.0,25.875,-30.5
1774889942.7439852,0.7300104640382827,0.3579405261688818,-8.819200832364794,-0.03789428538302521,-1.4140616277643785,10.010079563238195,0.011999138607461015,0.001090830782496456,0.015271630954950384,39.25,24.0625,-33.25
1774889942.7815123,0.7654176735013948,0.35365663429967703,-8.81915224061515,-0.0586693406886931,-1.4026676327838807,9.996672501616962,0.008726646259971648,-0.004363323129985824,0.025089107997418487,39.25,23.6875,-34.0625
1774889943.0177095,0.7654176735013948,0.35365663429967703,-8.81915224061515,-0.0586693406886931,-1.4026676327838807,9.996672501616962,0.008726646259971648,-0.004363323129985824,0.025089107997418487,39.25,23.6875,-34.0625
1774889943.0382447,0.0,0.0,0.0,-0.05242423767812496,-1.3716692744523875,9.83722022504535,0.003272492347489368,0.003272492347489368,-0.009817477042468103,39.25,23.6875,-34.0625
1774889943.0555236,0.0,0.0,0.0,-0.05242423767812496,-1.3716692744523875,9.83722022504535,0.003272492347489368,0.003272492347489368,-0.009817477042468103,39.25,23.6875,-34.0625
1774889943.0794582,0.0,0.0,0.0,-0.05495841480160228,-1.3510402132571302,9.73110651618558,-0.020725784867432664,0.0272707695624114,-0.02399827721492203,38.5,22.5625,-36.875
1774889943.3761506,0.713852947799889,0.3848938729733702,-8.840249923768669,-0.056644881368663115,-1.4410102664003002,9.747461932697504,-0.001090830782496456,-0.001090830782496456,-0.025089107997418487,38.5,22.5625,-36.875
1774889943.4321585,0.0,0.0,0.0,-0.07783787627389246,-1.5008843317357337,9.758346279684217,-0.008726646259971648,0.001090830782496456,-0.02181661564992912,37.5,21.5,-40.5
1774889943.458555,0.6542851738391229,0.3382841595031534,-8.85475186970766,-0.09194157764205753,-1.4704825075256236,9.762244579310432,0.022907446432425576,-0.007635815477475192,0.011999138607461015,37.5,21.5,-40.5
1774889943.6831126,0.6264250248572955,0.3360446724535624,-8.840708395252351,-0.061186092866071455,-1.450250433124424,9.707971955140389,-0.006544984694978736,0.003272492347489368,-0.026179938779914945,37.5,21.5,-40.5
1774889943.7091782,0.0,0.0,0.0,-0.0005773208210961833,-1.5739357936176,9.728721029044591,-0.003272492347489368,-0.002181661564992912,-0.004363323129985824,37.5,22.5625,-42.5
1774889943.739467,0.0,0.0,0.0,-0.00038420055734337513,-1.656247019369802,9.772635311311369,0.002181661564992912,-0.007635815477475192,-0.022907446432425576,37.5,22.5625,-42.5
1774889943.7743561,0.0,0.0,0.0,-0.00038420055734337513,-1.656247019369802,9.772635311311369,0.002181661564992912,-0.007635815477475192,-0.022907446432425576,37.5,22.5625,-42.5
1774889944.018087,0.5024990736138645,0.30545177542558954,-8.848155300185518,0.026505212479444495,-1.7277497791678509,9.801859775605234,-0.001090830782496456,-0.002181661564992912,-0.007635815477475192,37.5,22.5625,-42.5
1774889944.0396147,0.0,0.0,0.0,0.0443998164810018,-1.6047333700020012,9.821308330134144,-0.001090830782496456,0.004363323129985824,0.008726646259971648,37.5,22.5625,-42.5
1774889944.0825984,0.4547320610555523,0.2877861081119622,-8.86242799859658,0.05630847554821375,-1.583079334617208,9.834251125918545,-0.008726646259971648,-0.00545415391248228,-0.016362461737446838,37.5,22.25,-44.375
1774889944.1079993,0.40539314295457707,0.29095023359867056,-8.855456871388261,0.09768467220219895,-1.4984214701063459,9.812758406566687,0.008726646259971648,0.007635815477475192,-0.01090830782496456,37.5,22.25,-44.375
1774889944.3419344,0.40539314295457707,0.29095023359867056,-8.855456871388261,0.09768467220219895,-1.4984214701063459,9.812758406566687,0.008726646259971648,0.007635815477475192,-0.01090830782496456,37.5,22.25,-44.375
1774889944.3860984,0.0,0.0,0.0,0.06500805814127575,-1.425357048428081,9.704792114122489,0.003272492347489368,0.004363323129985824,-0.008726646259971648,36.0,22.25,-46.0
1774889944.405404,0.0,0.0,0.0,0.05329747162738583,-1.3767334919842646,9.72660488036833,0.018544123302439753,0.004363323129985824,-0.03599741582238305,36.0,22.25,-46.0
1774889944.4396806,0.0,0.0,0.0,0.04550420711821488,-1.4480735212585207,9.86154505410387,0.026179938779914945,0.015271630954950384,0.020725784867432664,36.0,22.25,-46.0
1774889944.6732204,0.2080483801571563,0.3036665095097633,-8.827633983429282,0.04550420711821488,-1.4480735212585207,9.86154505410387,0.026179938779914945,0.015271630954950384,0.020725784867432664,36.0,22.25,-46.0
1774889944.701072,0.0,0.0,0.0,0.040317876643830367,-1.4955495138201946,9.951346232344363,0.002181661564992912,-0.001090830782496456,-0.009817477042468103,36.0,22.25,-46.0
1774889944.7209089,0.0,0.0,0.0,0.040317876643830367,-1.4955495138201946,9.951346232344363,0.002181661564992912,-0.001090830782496456,-0.009817477042468103,36.0,22.25,-46.0
1774889944.753914,0.10350868165380504,0.2955862852289272,-8.807256959488495,0.0469017667701931,-1.4435164638454174,9.897374115269663,0.018544123302439753,-0.003272492347489368,-0.003272492347489368,36.5625,22.5625,-48.0625
1774889944.979419,0.10350868165380504,0.2955862852289272,-8.807256959488495,0.0469017667701931,-1.4435164638454174,9.897374115269663,0.018544123302439753,-0.003272492347489368,-0.003272492347489368,36.5625,22.5625,-48.0625
1774889945.0095978,0.0,0.0,0.0,0.05128327210241578,-1.3888183800905403,9.851420939142544,0.004363323129985824,0.0,-0.011999138607461015,37.6875,24.0625,-49.6875
1774889945.0390704,0.0,0.0,0.0,0.06757956178566596,-1.3524174163693006,9.830874948882517,0.01090830782496456,0.001090830782496456,-0.04254240051736178,37.6875,24.0625,-49.6875
1774889945.0655048,0.0,0.0,0.0,0.06757956178566596,-1.3524174163693006,9.830874948882517,0.01090830782496456,0.001090830782496456,-0.04254240051736178,37.6875,24.0625,-49.6875
1774889945.307168,-0.0702117570507677,0.27520175955050585,-8.77240311560686,0.07842456052838531,-1.3281929816382236,9.787095816512345,0.017453292519943295,0.002181661564992912,-0.001090830782496456,37.6875,-12.0,-0.0625
1774889945.33155,0.0,0.0,0.0,0.08564178604509122,-1.4157703538562596,9.79475752174546,0.008726646259971648,0.002181661564992912,0.014180800172453928,37.6875,-12.0,-0.0625
1774889945.3605623,0.0,0.0,0.0,0.08709965729744802,-1.4707070050566942,9.76306007221073,0.016362461737446838,0.01090830782496456,-0.03599741582238305,38.0625,24.875,-51.25
1774889945.398415,-0.2043174145644403,0.28595986339169255,-8.772772877587313,0.04520541743684241,-1.491455482639779,9.610931583756665,0.02399827721492203,0.004363323129985824,-0.006544984694978736,38.0,25.1875,-50.5
1774889945.6555097,-0.21764023265715024,0.27797612934071125,-8.737517022476254,0.04520541743684241,-1.491455482639779,9.610931583756665,0.02399827721492203,0.004363323129985824,-0.006544984694978736,38.0,25.1875,-50.5
1774889945.6953733,-0.38454814727971687,0.2581273822961295,-8.766134539797148,-0.02454960293914158,-1.5642488749839534,9.788692453310203,-0.014180800172453928,-0.009817477042468103,-0.030543261909900768,37.6875,24.875,-52.5
1774889945.7260518,-0.3979440571584303,0.250107807554349,-8.759086013224646,-0.009647263104326328,-1.619694477863207,9.822580959357387,-0.006544984694978736,0.007635815477475192,-0.019634954084936207,37.6875,24.875,-52.5
1774889945.747359,-0.3979440571584303,0.250107807554349,-8.759086013224646,-0.009647263104326328,-1.619694477863207,9.822580959357387,-0.006544984694978736,0.007635815477475192,-0.019634954084936207,37.6875,24.875,-52.5
1774889946.036787,-0.4746566624350371,0.24423336331687961,-8.759271654517898,0.0002700775856996733,-1.6398673486747863,9.845133381572372,-0.003272492347489368,-0.004363323129985824,-0.031634092692397225,38.6875,25.5625,-51.25
1774889946.0643382,0.0,0.0,0.0,0.0068699570309575875,-1.6098057166590083,9.793239532482993,0.006544984694978736,0.01090830782496456,-0.009817477042468103,38.6875,25.5625,-51.25
1774889946.1055863,-0.5728439070776022,0.24369676171578566,-8.766601587445896,-0.06233035448473382,-1.5898000363629408,9.825606989752677,-0.008726646259971648,0.003272492347489368,-0.032724923474893676,38.6875,25.1875,-53.6875
1774889946.3746116,0.0,0.0,0.0,-0.031444819511950634,-1.5664511444820415,9.847147170997463,0.0,0.015271630954950384,-0.020725784867432664,38.6875,25.1875,-53.6875
1774889946.444971,-0.7005332418363804,0.2618276753714484,-8.787735568550804,-0.07110285173334428,-1.5509127177595154,9.861481920996278,-0.001090830782496456,-0.01090830782496456,-0.007635815477475192,38.6875,27.375,-54.0625
1774889946.8070486,-0.826598879259832,0.2591574706957226,-8.788131742574729,-0.05934593352017401,-1.5403807050973506,9.74923138270326,0.001090830782496456,0.015271630954950384,-0.030543261909900768,38.375,30.375,-57.25
1774889947.1311188,-0.975221566656552,0.2757417776232249,-8.795849009007553,-0.056219614356757736,-1.5402533549895323,9.823080951336063,0.007635815477475192,-0.007635815477475192,-0.014180800172453928,38.6875,31.0625,-54.875
1774889947.1821113,-1.0668729506372738,0.28297247258368374,-8.768042291063084,-0.1251807144389242,-1.662679620674014,9.904933170217427,0.028361600344907856,0.016362461737446838,0.006544984694978736,36.5625,30.6875,-55.5625
1774889947.4971397,0.0,0.0,0.0,-0.08330636709889921,-1.635022363966677,9.742717607721245,0.011999138607461015,0.004363323129985824,0.003272492347489368,36.5625,30.6875,-55.5625
1774889947.534296,0.0,0.0,0.0,-0.0554394567112218,-1.6032363217504675,9.634764962946601,0.013089969389957472,0.003272492347489368,-0.003272492347489368,35.0625,32.875,-54.875
1774889947.581212,-1.1020296150733973,0.2882164154658233,-8.669992480258578,-0.00344322206881454,-1.5687026188996596,9.706763487173866,0.014180800172453928,-0.006544984694978736,0.008726646259971648,35.0625,32.875,-54.875
1774889947.8226745,0.0,0.0,0.0,-0.03908765460399856,-1.5457208254191843,9.754677700770896,-0.003272492347489368,-0.001090830782496456,-0.001090830782496456,31.6875,32.1875,-55.5625
1774889947.8403158,-1.1165293165538042,0.2942893858775582,-8.656525091178569,-0.01932217408661059,-1.527081586874063,9.776528739560925,0.003272492347489368,0.009817477042468103,-0.0272707695624114,31.6875,32.1875,-55.5625
1774889947.8771079,-1.1165293165538042,0.2942893858775582,-8.656525091178569,-0.01932217408661059,-1.527081586874063,9.776528739560925,0.003272492347489368,0.009817477042468103,-0.0272707695624114,31.6875,32.1875,-55.5625
1774889948.2019546,-1.1164627339745865,0.2942663336850551,-8.656003462426218,-0.04468174273377565,-1.5232534035280505,9.838389118040533,0.0,0.004363323129985824,0.013089969389957472,31.6875,32.875,-56.0
1774889948.2317731,-1.137410813336538,0.2926155406899751,-8.663125002118665,-0.019699865539598925,-1.428501975900076,9.852308422879982,0.009817477042468103,0.008726646259971648,-0.001090830782496456,31.6875,32.875,-56.0
1774889948.4876184,-1.137410813336538,0.2926155406899751,-8.663125002118665,-0.019699865539598925,-1.428501975900076,9.852308422879982,0.009817477042468103,0.008726646259971648,-0.001090830782496456,31.6875,32.875,-56.0
1774889948.510638,0.0,0.0,0.0,-0.01311004045468592,-1.3319948421832641,9.861571564761814,-0.011999138607461015,0.0,-0.001090830782496456,29.875,33.25,-56.75
1774889948.5449493,0.0,0.0,0.0,-0.00872458547384586,-1.2677704227500468,9.90118719928129,-0.026179938779914945,-0.022907446432425576,0.013089969389957472,29.875,33.25,-56.75
1774889948.5766723,0.0,0.0,0.0,-0.005806114172838818,-1.4223913797828576,9.890754732737856,-0.01090830782496456,0.007635815477475192,0.028361600344907856,29.875,34.75,-56.75
1774889948.859565,0.0,0.0,0.0,0.0028263192911595616,-1.5252898994589301,9.893847377913445,-0.003272492347489368,-0.007635815477475192,0.039269908169872414,29.875,34.75,-56.75
1774889948.9094443,-0.9262225007228491,0.2801221148521083,-8.71862672600633,0.008571107330850283,-1.5536263743637437,9.89590549873069,0.001090830782496456,-0.002181661564992912,0.04581489286485115,28.0625,33.25,-57.25
1774889949.01422,-0.9263078679502479,0.27990183862083634,-8.746844746889302,0.01908442301241599,-1.572483981873732,9.89727515514385,-0.009817477042468103,-0.00545415391248228,0.004363323129985824,28.0625,33.25,-57.25
1774889949.2465618,0.0,0.0,0.0,-0.03747620528200159,-1.5850335090183505,9.938327986674576,-0.022907446432425576,0.007635815477475192,-0.037088246604879506,26.1875,34.375,-58.0625
1774889949.3897243,-1.0244218326121202,0.2795940495526735,-8.72604328476023,-0.11130847380600349,-1.5052561879813129,9.727504871602555,0.015271630954950384,0.015271630954950384,-0.02181661564992912,24.6875,33.25,-59.25
1774889949.7366633,-2.1822728065906127,0.19030905700077383,-8.777412899806155,-0.03462219868883199,-1.3694427368547606,9.571287685574122,-0.011999138607461015,0.019634954084936207,-0.13308135546456762,25.6875,33.5,-58.25
1774889950.0191135,-3.008527636189013,0.168953084820787,-8.779489040499886,0.0929664233453842,-1.5423633034690272,9.977096579821632,0.003272492347489368,0.018544123302439753,-0.13526301702956053,24.875,32.375,-61.0
1774889950.3574429,-3.9429734373526824,0.08925310618951306,-8.808557858132653,0.041172540241158254,-1.505416677351333,9.91743043868661,-0.019634954084936207,0.018544123302439753,-0.15817046346198613,23.0625,32.75,-62.1875
1774889950.6295323,-4.3945136257184405,0.026185238642070837,-8.814999020443576,-0.009396363177432657,-1.5136400733910196,9.901564427113223,-0.025089107997418487,0.009817477042468103,-0.17235126363444003,23.5,35.375,-63.5
1774889950.6644166,0.0,0.0,0.0,-0.026323844974243484,-1.6060855559843823,9.934492225841248,-0.002181661564992912,0.00545415391248228,-0.08072147790473774,23.5,35.375,-63.5
1774889950.6923168,-5.162558672648198,-0.028568121160943302,-8.870935476899174,-0.037588895017659545,-1.6676069919665601,9.956405308067136,-0.039269908169872414,0.0272707695624114,-0.14508049407202864,22.375,34.25,-65.0
1774889950.7192845,-5.358102676135445,-0.04372303332861236,-8.871027425081145,-0.045085659982698624,-1.6215759159829257,9.95760777267402,-0.001090830782496456,0.016362461737446838,-0.19962203319685143,22.375,34.25,-65.0
1774889950.9259138,-5.358102676135445,-0.04372303332861236,-8.871027425081145,-0.045085659982698624,-1.6215759159829257,9.95760777267402,-0.001090830782496456,0.016362461737446838,-0.19962203319685143,22.375,34.25,-65.0
1774889950.9483216,0.0,0.0,0.0,-0.10025134893237106,-1.5909427491166277,9.95840799943749,-0.020725784867432664,0.008726646259971648,-0.06435901616729091,21.5625,34.6875,-67.0
1774889950.9875722,-6.174397161928918,-0.11367704737053046,-8.863014245096824,-0.16372439234580968,-1.5705567187620018,9.958940541409461,0.026179938779914945,0.014180800172453928,-0.10471975511965978,21.5625,34.6875,-67.0
1774889951.0201137,-6.454415743980381,-0.12914617995762018,-8.877310847849728,-0.2093101054044192,-1.690794511580654,9.899082931411176,-0.022907446432425576,0.02945243112740431,-0.17889624832941878,21.5625,34.6875,-67.0
1774889951.225317,-6.454415743980381,-0.12914617995762018,-8.877310847849728,-0.2093101054044192,-1.690794511580654,9.899082931411176,-0.022907446432425576,0.02945243112740431,-0.17889624832941878,21.5625,34.6875,-67.0
1774889951.263122,0.0,0.0,0.0,-0.239646888219143,-1.6905287385816492,9.859248360610632,0.016362461737446838,0.02181661564992912,-0.11562806294462433,21.5625,34.6875,-67.0
1774889951.3008015,-7.257669254390404,-0.19017757513446637,-8.855013278101055,-0.17955299732260782,-1.6903518696196906,9.876225350919334,0.015271630954950384,0.019634954084936207,-0.14289883250703572,20.875,35.75,-68.5625
1774889951.5566156,-7.257669254390404,-0.19017757513446637,-8.855013278101055,-0.17955299732260782,-1.6903518696196906,9.876225350919334,0.015271630954950384,0.019634954084936207,-0.14289883250703572,20.875,35.75,-68.5625
1774889951.6151395,0.0,0.0,0.0,-0.08938450861391922,-1.690234165301263,9.887523348324368,0.004363323129985824,0.008726646259971648,-0.04581489286485115,18.6875,39.75,-70.1875
1774889951.646061,-8.297545735894762,-0.29166741273107816,-8.851492840769641,-0.06617461540681685,-1.6299438236604438,9.8916969276832,0.00545415391248228,0.001090830782496456,-0.14726215563702155,18.6875,39.75,-70.1875
1774889951.9370782,-8.297545735894762,-0.29166741273107816,-8.851492840769641,-0.06617461540681685,-1.6299438236604438,9.8916969276832,0.00545415391248228,0.001090830782496456,-0.14726215563702155,18.6875,39.75,-70.1875
1774889951.9522378,0.0,0.0,0.0,-0.027312908797749863,-1.5630603811271684,9.894474398124565,0.003272492347489368,0.002181661564992912,-0.030543261909900768,17.5,42.0625,-67.75
1774889951.984709,0.0,0.0,0.0,-0.0014508771631229767,-1.4951344153070458,9.939809225872068,0.03490658503988659,0.004363323129985824,-0.07744898555724837,17.5,42.0625,-67.75
1774889952.0236197,-9.140483524072682,-0.3104233711726489,-8.796828769764133,0.015760015991898444,-1.44993044383651,9.969979047314823,-0.004363323129985824,0.020725784867432664,-0.11344640137963143,17.5,42.0625,-67.75
1774889952.30727,0.0,0.0,0.0,-0.02965322589613818,-1.5135108335892589,9.893048486953726,0.014180800172453928,0.017453292519943295,-0.1559888018969932,16.0625,42.375,-67.0
1774889952.3284085,0.0,0.0,0.0,-0.02965322589613818,-1.5135108335892589,9.893048486953726,0.014180800172453928,0.017453292519943295,-0.1559888018969932,16.0625,42.375,-67.0
1774889952.3648565,-9.97269088959607,-0.3750995931736686,-8.800840750916004,-0.0732556779027525,-1.565858207852181,9.841852058404083,0.013089969389957472,0.009817477042468103,-0.15817046346198613,16.0625,42.375,-67.0
1774889952.6328855,-9.97269088959607,-0.3750995931736686,-8.800840750916004,-0.0732556779027525,-1.565858207852181,9.841852058404083,0.013089969389957472,0.009817477042468103,-0.15817046346198613,16.0625,42.375,-67.0
1774889952.6763995,-10.64905304654503,-0.37323149660193716,-8.82460582553823,-0.06584697342723907,-1.623878164032807,9.90210393906611,0.003272492347489368,0.031634092692397225,-0.12544553998709243,15.375,40.5625,-66.1875
1774889952.704109,-10.938320788476497,-0.3718761022856947,-8.798021989550218,-0.05051064867157726,-1.5456433055735566,9.99840838745822,0.008726646259971648,0.02181661564992912,-0.1636246173744684,15.375,40.5625,-66.1875
1774889952.9900951,0.0,0.0,0.0,-0.144002958791558,-1.4935788812095574,10.06249792207199,0.004363323129985824,0.002181661564992912,-0.1439896632895322,14.75,40.375,-64.25
1774889953.0266187,0.0,0.0,0.0,-0.144002958791558,-1.4935788812095574,10.06249792207199,0.004363323129985824,0.002181661564992912,-0.1439896632895322,14.75,40.375,-64.25
1774889953.0763178,-12.841958673052886,-0.5632554995696124,-8.813702914488909,-0.15061824983389202,-1.538392922298831,10.090046016351915,-0.018544123302439753,0.00545415391248228,-0.19198621771937624,16.6875,42.1875,-62.6875
1774889953.3147583,0.0,0.0,0.0,-0.11361520957763876,-1.5422756194494256,10.079995288246204,0.001090830782496456,0.015271630954950384,-0.05126904677733343,16.6875,42.1875,-62.6875
1774889953.3427477,0.0,0.0,0.0,-0.11361520957763876,-1.5422756194494256,10.079995288246204,0.001090830782496456,0.015271630954950384,-0.05126904677733343,16.6875,42.1875,-62.6875
1774889953.397303,-13.522598133069481,-0.6226437621861526,-8.809529867935723,-0.05888409427227137,-1.524788840786661,10.029820188770692,0.014180800172453928,0.00545415391248228,-0.11453723216212788,15.875,40.375,-64.6875
1774889953.67661,-13.824193466818864,-0.6511402184505211,-8.793108724173697,-0.025806260130486508,-1.4997711380974306,9.996429220562325,0.006544984694978736,0.014180800172453928,-0.1308996938995747,15.875,40.375,-64.6875
1774889953.6954603,0.0,0.0,0.0,-0.00044821930542760305,-1.4797770247164788,9.974207904221212,0.017453292519943295,0.017453292519943295,-0.1265363707695889,17.6875,40.375,-65.875
1774889953.743723,-14.836532585158935,-0.7280268289771431,-8.780141506364522,0.036497943839688865,-1.4698162773176555,9.84903118008303,-0.016362461737446838,0.014180800172453928,-0.18653206380689397,17.6875,40.375,-65.875
1774889954.0378437,-15.400116474200026,-0.7564761006060783,-8.771175228082603,0.0878460963556343,-1.4932935165584522,9.939673277265307,0.015271630954950384,0.015271630954950384,-0.14180800172453928,18.5,42.5625,-65.875
1774889954.0740037,0.0,0.0,0.0,0.1253628299658681,-1.5256429155518532,9.999994580401543,-0.006544984694978736,0.00545415391248228,-0.061086523819801536,18.5,42.5625,-65.875
1774889954.1360564,-16.401919688543845,-0.8143161639162589,-8.731825471598889,0.1503297970941043,-1.6241086484838427,10.0401377338056,-0.009817477042468103,0.01090830782496456,-0.1930770485018727,19.1875,42.5625,-65.0625
1774889954.3756025,-16.733601897613088,-0.8327070672645922,-8.73039473882563,0.15356458798937087,-1.6896364938157742,10.023366101772442,0.007635815477475192,0.016362461737446838,-0.13199052468207118,19.1875,42.5625,-65.0625
1774889954.4068933,0.0,0.0,0.0,0.10554062958539803,-1.6262009682559595,10.012204768005782,-0.014180800172453928,0.019634954084936207,-0.14180800172453928,21.0625,45.1875,-64.25
1774889954.442355,-17.36746385186434,-0.8912232264065241,-8.745310264684454,0.07358122173032007,-1.5839853346171542,10.004777025064337,-0.02399827721492203,0.015271630954950384,-0.17998707911191522,21.0625,45.1875,-64.25
1774889954.4693015,-17.6148501934908,-0.9090240423273751,-8.736620642706999,0.05231259281274374,-1.6027228659125277,9.986453498280854,0.006544984694978736,0.003272492347489368,-0.1461713248545251,21.0625,45.1875,-64.25
1774889954.666723,-17.6148501934908,-0.9090240423273751,-8.736620642706999,0.05231259281274374,-1.6027228659125277,9.986453498280854,0.006544984694978736,0.003272492347489368,-0.1461713248545251,21.0625,45.1875,-64.25
1774889954.6989243,0.0,0.0,0.0,-0.08226546360924879,-1.672059382702089,9.97425939589365,-0.001090830782496456,0.001090830782496456,-0.05345070834232634,21.75,48.1875,-65.0625
1774889954.712211,0.0,0.0,0.0,-0.08226546360924879,-1.672059382702089,9.97425939589365,-0.001090830782496456,0.001090830782496456,-0.05345070834232634,21.75,48.1875,-65.0625
1774889954.734544,0.0,0.0,0.0,-0.08150764072506837,-1.6613351610614702,10.05311726136232,-0.00545415391248228,-0.001090830782496456,-0.22907446432425577,21.75,48.1875,-65.0625
1774889954.76259,-18.656803914982873,-1.0289985537537687,-8.714121361487098,-0.0810033180610826,-1.7110652103814727,10.105596289931643,-0.018544123302439753,0.00545415391248228,-0.23889194136672387,21.75,48.1875,-65.0625
1774889955.0144002,-18.656803914982873,-1.0289985537537687,-8.714121361487098,-0.0810033180610826,-1.7110652103814727,10.105596289931643,-0.018544123302439753,0.00545415391248228,-0.23889194136672387,21.75,48.1875,-65.0625
1774889955.060558,-19.436003048616886,-1.073552121181532,-8.745039782858969,-0.0414456216010899,-1.6003076489802077,9.994327727165942,-0.011999138607461015,0.00545415391248228,-0.1559888018969932,23.25,50.6875,-60.6875
1774889955.1130285,-19.931238438127558,-1.1158724414883057,-8.725337193841414,-0.030926709904915792,-1.539992726227915,9.919287596524027,-0.00545415391248228,0.018544123302439753,-0.15162547876700738,24.375,53.6875,-60.25
1774889955.3516939,-19.931238438127558,-1.1158724414883057,-8.725337193841414,-0.030926709904915792,-1.539992726227915,9.919287596524027,-0.00545415391248228,0.018544123302439753,-0.15162547876700738,24.375,53.6875,-60.25
1774889955.397059,0.0,0.0,0.0,-0.017236268260415993,-1.5098891540200563,9.829207887347184,-0.00545415391248228,0.02399827721492203,-0.17562375598192942,24.375,53.6875,-60.25
1774889955.4394464,-20.8927061548438,-1.131409413810461,-8.712210362771248,-0.008125432278255105,-1.489855562994662,9.769260847146281,0.008726646259971648,0.00545415391248228,-0.16907877128695067,23.25,53.6875,-56.25
1774889955.4674795,-21.156628768644996,-1.1295525215868882,-8.70645542951995,0.00462795070780524,-1.520009884152289,9.772853213740047,-0.004363323129985824,0.019634954084936207,-0.15489797111449674,23.25,53.6875,-56.25
1774889955.6861062,-21.156628768644996,-1.1295525215868882,-8.70645542951995,0.00462795070780524,-1.520009884152289,9.772853213740047,-0.004363323129985824,0.019634954084936207,-0.15489797111449674,23.25,53.6875,-56.25
1774889955.7123938,0.0,0.0,0.0,0.013115184620405756,-1.543422359744171,9.892322803335015,-0.002181661564992912,0.014180800172453928,-0.03599741582238305,22.5625,55.1875,-52.0
1774889955.737578,0.0,0.0,0.0,0.018763343980626464,-1.5590031007160794,9.971828480647705,0.013089969389957472,0.014180800172453928,-0.18544123302439752,22.5625,55.1875,-52.0
1774889955.771815,-22.14244490943564,-1.1302783703257417,-8.682473015826265,0.039247689477376106,-1.5693719097846037,9.92104015783579,-0.014180800172453928,0.026179938779914945,-0.1636246173744684,22.5625,55.1875,-52.0
1774889956.0097086,-22.393751957076265,-1.1136014006617576,-8.67981646951188,0.052879792580330515,-1.592997794929117,9.8872410963472,0.00545415391248228,0.020725784867432664,-0.15926129424448257,22.5625,55.1875,-52.0
1774889956.034725,0.0,0.0,0.0,0.061951804914777156,-1.55854388196457,9.881473757023397,-0.011999138607461015,0.006544984694978736,-0.16689710972195776,20.375,55.5625,-47.1875
1774889956.0662673,0.0,0.0,0.0,0.061951804914777156,-1.55854388196457,9.881473757023397,-0.011999138607461015,0.006544984694978736,-0.16689710972195776,20.375,55.5625,-47.1875
1774889956.102041,-23.187797380701234,-1.1214554776853867,-8.661292001306169,0.06798912778233347,-1.5356151877620898,9.877635657128806,-0.016362461737446838,0.04908738521234052,-0.1505346479845109,20.375,55.5625,-47.1875
1774889956.3271098,-23.187797380701234,-1.1214554776853867,-8.661292001306169,0.06798912778233347,-1.5356151877620898,9.877635657128806,-0.016362461737446838,0.04908738521234052,-0.1505346479845109,20.375,55.5625,-47.1875
1774889956.349657,0.0,0.0,0.0,0.06531667529473804,-1.520356397900636,9.972089684035604,0.002181661564992912,0.00545415391248228,-0.044724062082354694,16.6875,55.1875,-42.375
1774889956.3653212,0.0,0.0,0.0,0.06531667529473804,-1.520356397900636,9.972089684035604,0.002181661564992912,0.00545415391248228,-0.044724062082354694,16.6875,55.1875,-42.375
1774889956.3875518,0.0,0.0,0.0,0.016706624115022273,-1.5202371788216478,10.034947783821462,0.008726646259971648,0.018544123302439753,-0.15707963267948966,16.6875,55.1875,-42.375
1774889956.4161882,-23.894535651445366,-1.1572937364800497,-8.672254082231765,0.0029703235731543404,-1.5401757109051275,10.074511446639043,0.003272492347489368,0.017453292519943295,-0.13853550937704992,15.875,56.1875,-41.1875
1774889956.7367573,-24.829520611440678,-1.2348994666236537,-8.725801093938482,0.015357163986523342,-1.5534973804738206,10.073002317342123,-0.02399827721492203,0.015271630954950384,-0.1712604328519436,13.0,52.875,-38.5
1774889956.7705739,-25.059869253746147,-1.2319105663438352,-8.727931478237878,0.02360046791154659,-1.5857785847102217,10.028511556457948,-0.017453292519943295,0.019634954084936207,-0.1559888018969932,13.0,52.875,-38.5
1774889957.013216,-25.059869253746147,-1.2319105663438352,-8.727931478237878,0.02360046791154659,-1.5857785847102217,10.028511556457948,-0.017453292519943295,0.019634954084936207,-0.1559888018969932,13.0,52.875,-38.5
1774889957.039645,0.0,0.0,0.0,-0.02109038101987962,-1.630677147476103,9.998903452083894,0.007635815477475192,0.008726646259971648,-0.03381575425739013,8.5625,50.375,-34.0625
1774889957.0610821,0.0,0.0,0.0,-0.02109038101987962,-1.630677147476103,9.998903452083894,0.007635815477475192,0.008726646259971648,-0.03381575425739013,8.5625,50.375,-34.0625
1774889957.08369,-25.718921768837514,-1.255469169941185,-8.697781302943735,-0.05417675346156964,-1.6371408574957524,9.85877556790366,-0.008726646259971648,0.025089107997418487,-0.14944381720201447,8.5625,50.375,-34.0625
1774889957.3723397,-26.318299063780074,-1.3295520343127962,-8.720443123119882,-0.07619536472251698,-1.5611597033337918,9.765522026312745,-0.015271630954950384,0.008726646259971648,-0.17235126363444003,8.1875,51.5,-33.6875
1774889957.488634,-27.063384399028884,-1.3968548532235872,-8.665982873900381,0.04425239528770505,-1.420078012314478,9.690019369156486,0.02399827721492203,0.02181661564992912,-0.09490227807719166,5.1875,46.6875,-31.6875
1774889957.7444723,-27.419981376504037,-1.3474507332205676,-8.64387824078591,0.06624570351283554,-1.363185017299401,9.730154230445107,0.019634954084936207,0.015271630954950384,-0.17016960206944712,5.1875,46.6875,-31.6875
1774889957.787548,0.0,0.0,0.0,0.05412111079675419,-1.3253233646532636,9.726757526931033,0.001090830782496456,0.015271630954950384,-0.13853550937704992,5.5625,40.25,-26.6875
1774889957.8392467,-28.41561860990192,-1.3714792721498854,-8.601399373400117,0.005910989296944544,-1.356993756784061,9.724497058686081,0.004363323129985824,0.004363323129985824,-0.13853550937704992,5.5625,40.25,-26.6875
1774889958.104764,-28.41561860990192,-1.3714792721498854,-8.601399373400117,0.005910989296944544,-1.356993756784061,9.724497058686081,0.004363323129985824,0.004363323129985824,-0.13853550937704992,5.5625,40.25,-26.6875
1774889958.140434,0.0,0.0,0.0,0.013969032468997817,-1.394795607502243,9.72299274232015,0.019634954084936207,0.026179938779914945,-0.11999138607461016,5.6875,34.25,-19.75
1774889958.188616,-29.159775561753918,-1.3999182516423558,-8.570612180285302,0.01732903295159806,-1.4366938259534592,9.741431542120866,-0.009817477042468103,0.019634954084936207,-0.15489797111449674,5.375,35.0625,-20.875
1774889958.4785514,0.0,0.0,0.0,-0.025263950929206566,-1.5314629059093539,9.774403792363257,-0.00545415391248228,0.025089107997418487,-0.12544553998709243,5.375,35.0625,-20.875
1774889958.5200338,0.0,0.0,0.0,-0.025263950929206566,-1.5314629059093539,9.774403792363257,-0.00545415391248228,0.025089107997418487,-0.12544553998709243,5.375,35.0625,-20.875
1774889958.5499032,-30.341307817529422,-1.3289772899800096,-8.584451753505066,-0.053609105907076654,-1.634672010467846,9.863248690721788,-0.017453292519943295,0.013089969389957472,-0.16580627893946132,5.375,28.375,-21.6875
1774889958.9924169,-31.793152407607487,-1.3704997133616323,-8.534735764907916,-0.08008224099302999,-1.5789191025981513,9.72592774020012,0.017453292519943295,0.009817477042468103,-0.0916297857297023,4.5,23.0,-20.375
1774889959.3054075,0.0,0.0,0.0,-0.10341674448338754,-1.5472246172896758,9.683744726866598,0.006544984694978736,0.01090830782496456,-0.07635815477475191,5.6875,19.6875,-23.5625
1774889959.321822,-32.257279637928384,-1.313619367999345,-8.540979326808394,-0.06882268821296385,-1.551498125516655,9.756084531459408,-0.006544984694978736,0.011999138607461015,-0.09381144729469522,5.6875,19.6875,-23.5625
1774889959.3413115,-32.257279637928384,-1.313619367999345,-8.540979326808394,-0.06882268821296385,-1.551498125516655,9.756084531459408,-0.006544984694978736,0.011999138607461015,-0.09381144729469522,5.6875,19.6875,-23.5625
1774889959.6683052,0.0,0.0,0.0,-0.07490114044488505,-1.4572118230097209,9.757301561385324,-0.016362461737446838,0.001090830782496456,-0.07417649320975901,6.375,19.6875,-23.5625
1774889960.0062752,0.0,0.0,0.0,-0.1045145542789423,-1.4810501697754566,9.751007547312975,0.001090830782496456,-0.002181661564992912,-0.004363323129985824,8.5625,19.6875,-25.1875
1774889960.0290508,-33.00401234252287,-1.1190610387126625,-8.650283030880837,-0.08962393861248288,-1.48738909966904,9.750670511481744,-0.002181661564992912,0.01090830782496456,-0.02399827721492203,10.375,17.875,-26.75
1774889960.0704465,-33.080404395071156,-1.0757808624281822,-8.656750560629698,-0.12320085242068216,-1.515023368653969,9.663473313510693,0.008726646259971648,0.00545415391248228,-0.044724062082354694,10.375,17.875,-26.75
1774889960.341323,0.0,0.0,0.0,-0.1020594612861833,-1.5334136659684279,9.605444552317483,-0.001090830782496456,-0.004363323129985824,0.011999138607461015,13.6875,17.875,-30.25
1774889960.3815064,0.0,0.0,0.0,-0.1020594612861833,-1.5334136659684279,9.605444552317483,-0.001090830782496456,-0.004363323129985824,0.011999138607461015,13.6875,17.875,-30.25
1774889960.4142597,-33.11029756255359,-1.0692906187317481,-8.651807590709744,-0.08799010165098749,-1.4452988521785373,9.566827059967137,0.00545415391248228,0.003272492347489368,-0.002181661564992912,13.6875,17.875,-30.25
1774889960.7476304,-33.213651773304505,-1.0656153391348093,-8.661720171810273,-0.05792034288086351,-1.3476355461017961,9.651962535807934,0.008726646259971648,-0.00545415391248228,0.025089107997418487,15.1875,17.5,-31.0625
1774889961.064959,-33.29317038695495,-1.0670644439718533,-8.66938076272694,-0.044603186982488066,-1.4882339961067501,9.450304296272401,-0.004363323129985824,0.006544984694978736,-0.03599741582238305,16.0,17.0625,-32.6875
1774889961.097608,-33.35386226898133,-1.0554161196076346,-8.688604171106824,-0.0363731461012392,-1.5356563080390697,9.51041451650182,-0.011999138607461015,0.008726646259971648,-0.028361600344907856,16.6875,16.6875,-31.875
1774889961.355162,0.0,0.0,0.0,-0.057657039488903675,-1.567215326888094,9.563797643418619,0.002181661564992912,0.00545415391248228,-0.03490658503988659,16.6875,16.6875,-31.875
1774889961.4121177,-33.67338012881948,-1.08387820905581,-8.698774932235619,-0.04506033912317167,-1.5781821662728215,9.606013741467786,0.007635815477475192,0.013089969389957472,-0.020725784867432664,15.5625,13.375,-28.0
1774889961.4485338,-33.78925026971015,-1.0994329461822707,-8.695566593300724,-0.09019916306125025,-1.5821353636684155,9.657523865086027,-0.002181661564992912,-0.004363323129985824,-0.0719948316447661,15.5625,13.375,-28.0
1774889961.6770542,-33.78925026971015,-1.0994329461822707,-8.695566593300724,-0.09019916306125025,-1.5821353636684155,9.657523865086027,-0.002181661564992912,-0.004363323129985824,-0.0719948316447661,15.5625,13.375,-28.0
1774889961.7168434,0.0,0.0,0.0,-0.12023854615833933,-1.5847661723750748,9.818917521826322,-0.019634954084936207,0.001090830782496456,-0.05999569303730508,17.0625,11.875,-30.0
1774889961.748369,-34.111213503160414,-1.1299389292752906,-8.7129630439376,-0.14022942004755592,-1.6701447388642823,9.926323197501711,-0.002181661564992912,0.006544984694978736,-0.07635815477475191,17.0625,11.875,-30.0
1774889961.9962728,-34.111213503160414,-1.1299389292752906,-8.7129630439376,-0.14022942004755592,-1.6701447388642823,9.926323197501711,-0.002181661564992912,0.006544984694978736,-0.07635815477475191,17.0625,11.875,-30.0
1774889962.0281565,0.0,0.0,0.0,-0.15018801160081677,-1.7269632211217703,9.917517793888006,-0.008726646259971648,0.0,-0.039269908169872414,17.75,12.25,-34.375
1774889962.0517972,0.0,0.0,0.0,-0.15012511962011638,-1.6644219351405127,9.911657896145888,0.002181661564992912,0.008726646259971648,-0.07963064712224129,17.75,12.25,-34.375
1774889962.0946395,-34.71655824429457,-1.1848610156345731,-8.711430063924652,-0.1132870369289965,-1.6228014079519266,9.907758199657856,-0.018544123302439753,0.002181661564992912,-0.08617563181722002,17.75,12.25,-34.375
1774889962.3204052,0.0,0.0,0.0,-0.08877170440640308,-1.6519703110641044,9.972065229353921,-0.007635815477475192,-0.007635815477475192,-0.06217735460229799,17.75,12.25,-34.375
1774889962.3739338,0.0,0.0,0.0,-0.08877170440640308,-1.6519703110641044,9.972065229353921,-0.007635815477475192,-0.007635815477475192,-0.06217735460229799,17.75,12.25,-34.375
1774889962.4157424,-35.141819507717436,-1.2104857998195275,-8.709279480275079,-0.07245702446682516,-1.671381890247261,10.014860839260063,-0.003272492347489368,-0.011999138607461015,-0.0719948316447661,17.375,13.75,-37.5625
1774889962.6588347,-35.141819507717436,-1.2104857998195275,-8.709279480275079,-0.07245702446682516,-1.671381890247261,10.014860839260063,-0.003272492347489368,-0.011999138607461015,-0.0719948316447661,17.375,13.75,-37.5625
1774889962.7052803,0.0,0.0,0.0,-0.08836068087250737,-1.6608842974008686,9.936297264960093,0.004363323129985824,-0.002181661564992912,-0.04799655442984406,19.25,12.6875,-39.5625
1774889963.0565472,0.0,0.0,0.0,-0.10598772445897031,-1.643677895005523,9.859255546028049,-0.015271630954950384,0.0,-0.05890486225480862,20.6875,12.6875,-42.6875
1774889963.106182,-35.83429603729542,-1.3226717641574086,-8.749093003792797,-0.024654369219642674,-1.692924501998323,9.795017839976396,0.007635815477475192,0.003272492347489368,-0.07635815477475191,18.875,15.25,-43.5
1774889963.341019,0.0,0.0,0.0,-0.039822989259558225,-1.6016282073134327,9.763233311085472,-0.008726646259971648,0.004363323129985824,-0.028361600344907856,18.875,15.25,-43.5
1774889963.3850923,0.0,0.0,0.0,-0.049917536451533684,-1.6144640006080997,9.748771285579652,0.00545415391248228,-0.001090830782496456,-0.04581489286485115,19.6875,14.5,-44.25
1774889963.4143608,0.0,0.0,0.0,-0.049917536451533684,-1.6144640006080997,9.748771285579652,0.00545415391248228,-0.001090830782496456,-0.04581489286485115,19.6875,14.5,-44.25
1774889963.4357166,-36.36575225031039,-1.2991992247602795,-8.726617624783577,-0.03321956289307694,-1.6196609659531749,9.799358979888689,0.004363323129985824,0.013089969389957472,-0.055632369907319255,19.6875,14.5,-44.25
1774889963.6311595,-36.36575225031039,-1.2991992247602795,-8.726617624783577,-0.03321956289307694,-1.6196609659531749,9.799358979888689,0.004363323129985824,0.013089969389957472,-0.055632369907319255,19.6875,14.5,-44.25
1774889963.659581,0.0,0.0,0.0,0.011343869054683327,-1.6231194883364157,9.853095195593697,-0.003272492347489368,0.004363323129985824,-0.019634954084936207,20.375,12.6875,-46.6875
1774889963.7166977,0.0,0.0,0.0,0.041000335209765246,-1.625421096348236,9.892201158579837,0.007635815477475192,0.003272492347489368,-0.04581489286485115,20.375,12.6875,-46.6875
1774889963.964009,-36.76162536812239,-1.2648821666230698,-8.751249876444719,0.0607363821515386,-1.580121226866985,9.914880628397565,-0.008726646259971648,0.015271630954950384,-0.07853981633974483,19.25,14.5,-45.5625
1774889964.0001929,0.0,0.0,0.0,-0.01979262687974389,-1.6135317921989796,9.973460014410136,-0.016362461737446838,0.008726646259971648,-0.06763150851478027,19.25,14.5,-45.5625
1774889964.030962,-37.11337682361074,-1.300879029914729,-8.773630002735583,-0.07338378282208924,-1.6357661502069527,9.942196595573177,-0.00545415391248228,-0.006544984694978736,-0.061086523819801536,19.25,13.0,-50.25
1774889964.067583,-37.1885654226014,-1.28881169994733,-8.76407008098996,-0.10904809844928276,-1.6505628670872057,9.904665581035855,0.014180800172453928,0.019634954084936207,-0.03381575425739013,19.25,13.0,-50.25
1774889964.352354,0.0,0.0,0.0,-0.12404239032089291,-1.640143024896151,9.956730675519532,-0.025089107997418487,0.002181661564992912,-0.061086523819801536,19.25,14.1875,-51.875
1774889964.384588,-37.53994474057526,-1.247063044562261,-8.775974113580808,-0.1159999421874568,-1.599953840982863,10.008000976688786,0.006544984694978736,0.020725784867432664,-0.03490658503988659,19.25,14.1875,-51.875
1774889964.696696,-37.53994474057526,-1.247063044562261,-8.775974113580808,-0.1159999421874568,-1.599953840982863,10.008000976688786,0.006544984694978736,0.020725784867432664,-0.03490658503988659,19.25,14.1875,-51.875
1774889964.7449563,0.0,0.0,0.0,-0.07385155401417406,-1.5732083880311702,10.042120789390134,-0.02945243112740431,0.013089969389957472,-0.03599741582238305,19.6875,16.375,-50.6875
1774889965.062207,-37.76496674035025,-1.228940029773555,-8.800667754149192,-0.045802272513200334,-1.5821704815166593,9.961128680672699,-0.007635815477475192,0.002181661564992912,0.0,19.6875,16.375,-50.6875
1774889965.099993,0.0,0.0,0.0,-0.030480900712626408,-1.5881346546181083,9.776769980476926,-0.002181661564992912,0.001090830782496456,-0.001090830782496456,21.0625,16.6875,-49.5
1774889965.1483228,-37.82482554936886,-1.0983800496259315,-8.793922764104124,-0.020284698930281772,-1.5921037451929438,9.654081324918259,0.001090830782496456,-0.003272492347489368,-0.006544984694978736,21.0625,16.6875,-49.5
1774889965.3703268,-37.82482554936886,-1.0983800496259315,-8.793922764104124,-0.020284698930281772,-1.5921037451929438,9.654081324918259,0.001090830782496456,-0.003272492347489368,-0.006544984694978736,21.0625,16.6875,-49.5
1774889965.4250765,-37.85481967880397,-1.0960723031991881,-8.780477429598948,-0.026879687372445855,-1.6181609125840855,9.779830321019851,0.003272492347489368,0.001090830782496456,-0.0272707695624114,21.5,16.6875,-47.875
1774889965.4444625,-37.85554797671495,-1.0940109171455314,-8.79611151706424,-0.03126857850985803,-1.648882113234536,9.863514873217134,-0.019634954084936207,0.003272492347489368,-0.014180800172453928,21.5,16.6875,-47.875
1774889965.6912153,-37.85554797671495,-1.0940109171455314,-8.79611151706424,-0.03126857850985803,-1.648882113234536,9.863514873217134,-0.019634954084936207,0.003272492347489368,-0.014180800172453928,21.5,16.6875,-47.875
1774889965.7238712,0.0,0.0,0.0,-0.07767578872983141,-1.6927425110403491,10.079771369838056,-0.009817477042468103,0.0,-0.011999138607461015,22.5625,16.375,-46.6875
1774889965.76064,0.0,0.0,0.0,-0.04834725799696942,-1.7219311158273711,10.03970650869336,0.00545415391248228,-0.002181661564992912,-0.008726646259971648,22.5625,16.375,-46.6875
1774889966.012836,-37.95942174878344,-0.9959468033619493,-8.831418631049297,-0.04220989524468226,-1.7413558062550545,10.036459573106624,-0.014180800172453928,0.00545415391248228,-0.02181661564992912,23.6875,18.1875,-46.0
1774889966.0338445,0.0,0.0,0.0,-0.0013293201113560443,-1.6974158217222386,9.890458970329565,0.006544984694978736,-0.004363323129985824,-0.014180800172453928,23.6875,18.1875,-46.0
1774889966.0744827,-37.98857943942243,-1.0136409948536544,-8.833472085183557,0.012495799144648712,-1.5945817952964116,9.913721221578527,0.015271630954950384,-0.01090830782496456,0.013089969389957472,24.0625,17.0625,-46.0
1774889966.1226172,-38.00860569614568,-1.0266067489498603,-8.843841515314628,0.02169626157281865,-1.5261468994413672,9.929201989928337,-0.02181661564992912,-0.01090830782496456,-0.03599741582238305,24.0625,17.0625,-46.0
1774889966.333205,-38.00860569614568,-1.0266067489498603,-8.843841515314628,0.02169626157281865,-1.5261468994413672,9.929201989928337,-0.02181661564992912,-0.01090830782496456,-0.03599741582238305,24.0625,17.0625,-46.0
1774889966.374454,0.0,0.0,0.0,-0.035738055896202034,-1.5909929270592515,9.972955385406816,-0.004363323129985824,-0.00545415391248228,0.0,26.6875,16.0,-43.5625
1774889966.7747996,-37.99797139546242,-0.9701825255597561,-8.833415711630712,-0.06618251933365372,-1.4925319133527892,9.683356951499565,0.003272492347489368,-0.001090830782496456,-0.008726646259971648,27.0,15.5625,-42.75
1774889967.489872,-38.11961642338665,-0.9388109551793459,-8.780022170183917,-0.05886499090657116,-1.463757806993226,9.817318554621028,0.008726646259971648,-0.007635815477475192,0.002181661564992912,28.0625,15.5625,-41.5
1774889967.5979166,-38.11961642338665,-0.9388109551793459,-8.780022170183917,-0.14621756851750942,-1.5059872307716893,9.821560639761321,0.0,-0.003272492347489368,-0.00545415391248228,27.6875,16.375,-41.0625
1774889967.8464525,-38.11961642338665,-0.9388109551793459,-8.780022170183917,-0.14621756851750942,-1.5059872307716893,9.821560639761321,0.0,-0.003272492347489368,-0.00545415391248228,27.6875,16.375,-41.0625
1774889967.8914347,-37.99967245847113,-0.9244481568931789,-8.700938380509307,-0.059196735306661086,-1.559483036159806,9.859713532184662,0.00545415391248228,-0.003272492347489368,0.011999138607461015,28.875,15.25,-42.0
1774889968.2129297,0.0,0.0,0.0,-0.038478246350853874,-1.5987697727102155,9.88214629518865,0.0,0.001090830782496456,0.0,28.0625,16.0,-41.5
1774889968.2433004,-38.00348755613935,-0.8760208325191161,-8.710259929115269,-0.04233240165291473,-1.6159068560177847,9.86804788864308,-0.001090830782496456,0.0,-0.016362461737446838,28.0625,16.0,-41.5
1774889968.7314954,-38.01966854687719,-0.7742839927019133,-8.819552025357419,-0.0057784808070705795,-1.7113141021444995,9.813475645416737,-0.008726646259971648,-0.004363323129985824,-0.002181661564992912,27.6875,15.5625,-43.0625
1774889969.018012,0.0,0.0,0.0,-0.007190626134564748,-1.7443256373708755,9.829038561735933,-0.003272492347489368,0.0,0.002181661564992912,27.375,16.0,-43.0625
1774889969.0390818,-38.02034567770411,-0.7699669211480711,-8.828515247982253,-0.028201063319231508,-1.6692862057887556,9.822669950160593,0.001090830782496456,0.0,-0.004363323129985824,27.375,16.0,-43.0625
1774889969.0820553,-38.02034567770411,-0.7699669211480711,-8.828515247982253,-0.022112604319749235,-1.6193483023162298,9.784980593226065,0.001090830782496456,-0.003272492347489368,0.003272492347489368,27.375,18.1875,-42.0
1774889969.3612602,-38.02092041360836,-0.763374771557463,-8.83080367279039,-0.022112604319749235,-1.6193483023162298,9.784980593226065,0.001090830782496456,-0.003272492347489368,0.003272492347489368,27.375,18.1875,-42.0
1774889969.4014452,0.0,0.0,0.0,-0.0147156911608178,-1.5861151853981972,9.759898747203838,0.003272492347489368,0.0,-0.001090830782496456,27.375,18.1875,-42.0
1774889969.4348147,-38.023119663165396,-0.7347312058646166,-8.833283746851729,-0.003102904667844233,-1.5907598109860421,9.743207058858625,-0.002181661564992912,-0.002181661564992912,0.007635815477475192,27.0625,16.375,-43.0625
1774889969.7206213,0.0,0.0,0.0,0.004197046091483712,-1.5925744560474895,9.810525056050961,0.002181661564992912,0.002181661564992912,0.001090830782496456,27.375,17.0625,-42.6875
1774889969.7869225,-38.01844090760357,-0.7103454913504855,-8.871296651466697,0.007430014571730472,-1.6022826555675553,9.793506975862481,0.007635815477475192,-0.001090830782496456,0.016362461737446838,28.0625,18.1875,-42.75
1774889970.122845,0.0,0.0,0.0,0.008289703406104933,-1.5981739700739552,9.782298518139037,0.004363323129985824,0.001090830782496456,0.0,28.0625,18.1875,-42.75
1774889970.1547523,-38.01598869629544,-0.6567148696646321,-8.86768003986132,0.0021715933073888517,-1.5653336804091142,9.781529638145399,-0.002181661564992912,-0.002181661564992912,0.0,27.0625,16.6875,-42.6875
1774889970.478584,-38.01091758426957,-0.6232286317012267,-8.878991020264225,-0.004609500965895108,-1.5456602371974468,9.773987215663144,0.003272492347489368,-0.001090830782496456,-0.002181661564992912,27.0625,17.5,-43.0625
1774889970.7948408,-38.01209070565472,-0.6100438954545053,-8.883570960028273,-0.0030675714013035345,-1.557147271455186,9.769308335776385,0.003272492347489368,0.0,-0.002181661564992912,27.0625,17.5,-43.0625
1774889970.8085847,-38.01209070565472,-0.6100438954545053,-8.883570960028273,-0.0030675714013035345,-1.557147271455186,9.769308335776385,0.003272492347489368,0.0,-0.002181661564992912,27.0625,17.5,-43.0625
1774889970.827894,0.0,0.0,0.0,-0.0020414345005496763,-1.5647917644351308,9.76953970518558,0.002181661564992912,0.001090830782496456,-0.001090830782496456,26.6875,16.375,-43.875
1774889970.8484402,0.0,0.0,0.0,-0.0013585518557982343,-1.5698790891187022,9.769693678942833,0.001090830782496456,-0.001090830782496456,0.002181661564992912,26.6875,16.375,-43.875
1774889970.8657534,-38.01326592205108,-0.5968591915131056,-8.888151404214586,-0.0009041010840151194,-1.56657442345184,9.783176593587564,0.001090830782496456,-0.001090830782496456,0.0,26.6875,16.375,-43.875
1774889970.9053657,-38.09349994293661,0.25351866621324187,-9.184690660169057,-0.0006016691719412072,-1.561030093658758,9.77876887584033,0.0,0.001090830782496456,-0.001090830782496456,27.375,17.875,-42.25
1774889971.1122334,0.0,0.0,0.0,-0.0004004041128418381,-1.557340404115684,9.775835588916978,0.00545415391248228,0.004363323129985824,-0.002181661564992912,27.375,17.875,-42.25
1774889971.1309223,0.0,0.0,0.0,-0.0004004041128418381,-1.557340404115684,9.775835588916978,0.00545415391248228,0.004363323129985824,-0.002181661564992912,27.375,17.875,-42.25
1774889971.158085,0.0,0.0,0.0,0.006423758950349535,-1.554884956941301,9.757157960699853,0.001090830782496456,-0.001090830782496456,-0.001090830782496456,27.375,17.875,-42.25
1774889971.1864872,-38.015032675104074,-0.5770821946457169,-8.895023017919796,0.007620051530687728,-1.5532508842758914,9.744728207764135,0.0,-0.002181661564992912,0.001090830782496456,27.375,16.375,-44.25
1774889971.205077,-38.015032675104074,-0.5770821946457169,-8.895023017919796,0.00841617087943906,-1.5521634271708489,9.759872127986087,0.001090830782496456,0.002181661564992912,0.0,27.375,16.375,-44.25
1774889971.3936722,-38.015032675104074,-0.5770821946457169,-8.895023017919796,0.00841617087943906,-1.5521634271708489,9.759872127986087,0.001090830782496456,0.002181661564992912,0.0,27.375,16.375,-44.25
1774889971.4093757,0.0,0.0,0.0,0.005600867705477853,-1.551439736615135,9.769950237725123,0.001090830782496456,0.002181661564992912,0.001090830782496456,27.375,17.0625,-42.0
1774889971.4267912,0.0,0.0,0.0,0.005600867705477853,-1.551439736615135,9.769950237725123,0.001090830782496456,0.002181661564992912,0.001090830782496456,27.375,17.0625,-42.0
1774889971.4568865,0.0,0.0,0.0,0.003727314892203751,-1.5509581286344605,9.76996688376195,0.0,0.0,0.0,27.375,17.0625,-42.0
1774889971.475976,-38.01562264044903,-0.5704898777526469,-8.897313808841947,0.0024804864239260857,-1.5539827356105547,9.769977961513511,0.001090830782496456,0.0,0.0,27.375,17.0625,-42.0
1774889971.498412,-38.01562264044903,-0.5704898777526469,-8.897313808841947,0.0024804864239260857,-1.5539827356105547,9.769977961513511,0.001090830782496456,0.0,0.0,27.375,17.0625,-42.0
1774889971.679092,-38.01562264044903,-0.5704898777526469,-8.897313808841947,0.0024804864239260857,-1.5539827356105547,9.769977961513511,0.001090830782496456,0.0,0.0,27.375,17.0625,-42.0
1774889971.7012544,0.0,0.0,0.0,0.0016507360062738916,-1.5559955777660717,9.769985333633429,0.002181661564992912,0.003272492347489368,-0.002181661564992912,27.0,17.0625,-44.25
1774889971.717931,0.0,0.0,0.0,0.0016507360062738916,-1.5559955777660717,9.769985333633429,0.002181661564992912,0.003272492347489368,-0.002181661564992912,27.0,17.0625,-44.25
1774889971.7326403,0.0,0.0,0.0,0.0010985463722458478,-1.5539899900283287,9.769990239696881,0.002181661564992912,-0.002181661564992912,0.002181661564992912,27.0,17.0625,-44.25
1774889971.7534118,-38.016213129654275,-0.5638975684121109,-8.899604726429976,0.0007310703391625656,-1.5493101820854243,9.769993504627303,0.0,-0.002181661564992912,0.0,27.0,17.0625,-44.25
1774889971.766603,-38.016213129654275,-0.5638975684121109,-8.899604726429976,0.0007310703391625656,-1.5493101820854243,9.769993504627303,0.0,-0.002181661564992912,0.0,27.0,17.0625,-44.25
1774889971.9765127,-38.01680414273786,-0.5573052665368127,-8.901895770777298,0.0004865191441219005,-1.5495409338836208,9.773340789109348,0.001090830782496456,-0.001090830782496456,0.001090830782496456,27.0,17.0625,-44.25
1774889971.9891784,0.0,0.0,0.0,0.00032377305563818294,-1.5530396083349736,9.77891348124785,0.002181661564992912,-0.003272492347489368,0.002181661564992912,27.0,17.0625,-44.25
1774889972.0106354,0.0,0.0,0.0,0.00032377305563818294,-1.5530396083349736,9.77891348124785,0.002181661564992912,-0.003272492347489368,0.002181661564992912,27.0,17.0625,-44.25
1774889972.0429003,-38.017395679717865,-0.550712972039457,-8.904186941977336,0.00021546735174519734,-1.5587130488069139,9.782622045614973,-0.001090830782496456,0.0,0.002181661564992912,27.0,16.6875,-42.25
1774889972.0592792,-38.017395679717865,-0.550712972039457,-8.904186941977336,0.00014339111565840103,-1.5624886600645074,9.785090053773915,-0.001090830782496456,-0.002181661564992912,0.001090830782496456,27.0,16.6875,-42.25
1774889972.0731094,-38.017395679717865,-0.550712972039457,-8.904186941977336,0.00014339111565840103,-1.5624886600645074,9.785090053773915,-0.001090830782496456,-0.002181661564992912,0.001090830782496456,27.0,16.6875,-42.25
1774889972.269337,-38.017395679717865,-0.550712972039457,-8.904186941977336,0.00014339111565840103,-1.5624886600645074,9.785090053773915,-0.001090830782496456,-0.002181661564992912,0.001090830782496456,27.0,16.6875,-42.25
1774889972.2974968,0.0,0.0,0.0,9.542518568695052e-05,-1.5616561754727751,9.780042262219595,0.002181661564992912,0.002181661564992912,0.001090830782496456,27.0,16.375,-43.5625
1774889972.3286433,0.0,0.0,0.0,6.35043951054961e-05,-1.5577570545691202,9.776683013327721,-0.002181661564992912,-0.001090830782496456,0.001090830782496456,27.0,16.375,-43.5625
1774889972.3427446,0.0,0.0,0.0,6.35043951054961e-05,-1.5577570545691202,9.776683013327721,-0.002181661564992912,-0.001090830782496456,0.001090830782496456,27.0,16.375,-43.5625
1774889972.3621292,-38.010586303779036,-0.5370041647627184,-8.908625424945434,4.2261465552133025e-05,-1.5484720097491336,9.771102359008129,0.0,-0.002181661564992912,-0.001090830782496456,27.0,16.375,-43.5625
1774889972.5603657,-38.010586303779036,-0.5370041647627184,-8.908625424945434,4.2261465552133025e-05,-1.5484720097491336,9.771102359008129,0.0,-0.002181661564992912,-0.001090830782496456,27.0,16.375,-43.5625
1774889972.5758018,0.0,0.0,0.0,2.8124533233441523e-05,-1.5422929161421792,9.767388495898434,0.0,-0.002181661564992912,0.0,26.25,16.375,-42.25
1774889972.5967727,0.0,0.0,0.0,2.8124533233441523e-05,-1.5422929161421792,9.767388495898434,0.0,-0.002181661564992912,0.0,26.25,16.375,-42.25
1774889972.625512,0.0,0.0,0.0,1.8716562695233692e-05,-1.5381807983717493,9.7649169614855,-0.001090830782496456,0.0,-0.001090830782496456,26.25,16.375,-42.25
1774889972.653285,-38.011064060722845,-0.5281386231123216,-8.904241514241845,0.0033575673707153565,-1.5387893416382128,9.76996240635718,0.0,-0.003272492347489368,0.001090830782496456,26.25,16.375,-42.25
1774889972.9145312,-38.011064060722845,-0.5281386231123216,-8.904241514241845,0.0033575673707153565,-1.5387893416382128,9.76996240635718,0.0,-0.003272492347489368,0.001090830782496456,26.25,16.375,-42.25
1774889972.9465785,0.0,0.0,0.0,0.0055795352860453905,-1.5391943203841707,9.78001031697261,0.001090830782496456,0.0,-0.001090830782496456,26.25,16.375,-42.25
1774889972.9745746,-38.01165737599505,-0.5215463602101633,-8.906532779779434,0.00705823011268957,-1.5461540526303355,9.786697089244663,0.0,-0.003272492347489368,-0.001090830782496456,27.6875,16.375,-44.0
1774889973.0085506,-38.01165737599505,-0.5215463602101633,-8.906532779779434,0.0046971732943983605,-1.5507856766948547,9.784456838080935,-0.003272492347489368,0.0,0.0,27.6875,16.375,-44.0
1774889973.2636545,0.0,0.0,0.0,0.003125916356558369,-1.5538679707711613,9.782965975956719,0.0,0.0,0.001090830782496456,27.0,16.6875,-44.75
1774889973.2790024,0.0,0.0,0.0,0.003125916356558369,-1.5538679707711613,9.782965975956719,0.0,0.0,0.001090830782496456,27.0,16.6875,-44.75
1774889973.3031945,0.0,0.0,0.0,0.002080262416515914,-1.559264314754782,9.778628712159755,0.0,0.001090830782496456,0.0,27.0,16.6875,-44.75
1774889973.3465075,-38.01415292210725,-0.49745063439347154,-8.922374125060395,0.0013843914001375245,-1.5628555213947695,9.779087423260606,0.0,-0.002181661564992912,-0.001090830782496456,27.0,16.6875,-44.75
1774889973.5412025,-38.01415292210725,-0.49745063439347154,-8.922374125060395,0.0013843914001375245,-1.5628555213947695,9.779087423260606,0.0,-0.002181661564992912,-0.001090830782496456,27.0,16.6875,-44.75
1774889973.5753515,0.0,0.0,0.0,0.0009212970121262939,-1.5652454292972744,9.779392690374083,0.004363323129985824,-0.002181661564992912,-0.004363323129985824,27.0,16.6875,-44.75
1774889973.5971835,0.0,0.0,0.0,0.0009212970121262939,-1.5652454292972744,9.779392690374083,0.004363323129985824,-0.002181661564992912,-0.004363323129985824,27.0,16.6875,-44.75
1774889973.627274,-38.01474919229344,-0.49085840288995014,-8.924666021478759,0.003753131473390249,-1.5567518253219637,9.78642126093214,0.001090830782496456,0.001090830782496456,0.0,27.0,16.6875,-44.0
1774889973.8559132,-38.01474919229344,-0.49085840288995014,-8.924666021478759,0.003753131473390249,-1.5567518253219637,9.78642126093214,0.001090830782496456,0.001090830782496456,0.0,27.0,16.6875,-44.0
1774889973.875201,0.0,0.0,0.0,0.005842778777634975,-1.554493264328936,9.777583054005516,0.0,-0.001090830782496456,0.001090830782496456,27.375,17.0625,-42.25
1774889973.9147968,0.0,0.0,0.0,0.00723341571571996,-1.5462999938032167,9.771701326025088,-0.002181661564992912,-0.003272492347489368,0.002181661564992912,27.375,17.0625,-42.25
1774889973.9727154,-38.01522827028636,-0.48199292473526323,-8.92028304847546,0.004813757356263674,-1.5408474637931793,9.76778710175732,0.0,-0.002181661564992912,-0.001090830782496456,27.375,17.0625,-42.25
1774889974.2081099,0.0,0.0,0.0,0.003203501747400432,-1.54056397768757,9.778562676061147,0.002181661564992912,0.0,-0.003272492347489368,27.375,17.0625,-42.25
1774889974.2325594,0.0,0.0,0.0,0.003203501747400432,-1.54056397768757,9.778562676061147,0.002181661564992912,0.0,-0.003272492347489368,27.375,17.0625,-42.25
1774889974.2577329,0.0,0.0,0.0,0.0021318946274357033,-1.5504106559729924,9.785733700389294,-0.001090830782496456,-0.002181661564992912,0.0,26.6875,16.375,-43.5625
