timestamp,yaw,pitch,roll,ax,ay,az,gx,gy,gz,mx,my,mz
1772919978.908055,-0.060414253010068135,0.9352506698503924,-7.391476205465933,-0.15981679431972967,-1.256089041079092,9.662614166282795,0.0,0.002181661564992912,0.0,-10.5625,-13.375,-21.5
1772919978.9220076,-0.060414253010068135,0.9352506698503924,-7.391476205465933,-0.15981679431972967,-1.256089041079092,9.662614166282795,0.0,0.002181661564992912,0.0,-10.5625,-13.375,-21.5
1772919978.9359384,0.0,0.0,0.0,-0.15987807866632164,-1.2573973005264094,9.70857126236152,-0.00545415391248228,0.002181661564992912,0.003272492347489368,-10.5625,-13.375,-21.5
1772919978.9473655,0.0,0.0,0.0,-0.15987807866632164,-1.2573973005264094,9.70857126236152,-0.00545415391248228,0.002181661564992912,0.003272492347489368,-10.5625,-13.375,-21.5
1772919978.9589565,0.0,0.0,0.0,-0.16326397442170698,-1.261613044281703,9.739155196427511,0.0,0.001090830782496456,-0.001090830782496456,-10.5625,-13.375,-21.5
1772919978.96997,0.0,0.0,0.0,-0.16326397442170698,-1.261613044281703,9.739155196427511,0.0,0.001090830782496456,-0.001090830782496456,-10.5625,-13.375,-21.5
1772919978.9858537,-0.060414253010068135,0.9352506698503924,-7.391476205465933,-0.16551725022398206,-1.2644185746579075,9.74947312778154,0.0,0.001090830782496456,-0.001090830782496456,-8.6875,-15.1875,-23.875
1772919978.9997122,-0.060414253010068135,0.9352506698503924,-7.391476205465933,-0.16551725022398206,-1.2644185746579075,9.74947312778154,0.0,0.001090830782496456,-0.001090830782496456,-8.6875,-15.1875,-23.875
1772919979.017996,-0.060865227309239156,0.9422307793727953,-7.3914909804556315,-0.16701678009965615,-1.266285623783444,9.756339595838801,0.0,0.003272492347489368,-0.003272492347489368,-8.6875,-15.1875,-23.875
1772919979.0440917,-0.060865227309239156,0.9422307793727953,-7.3914909804556315,-0.16701678009965615,-1.266285623783444,9.756339595838801,0.0,0.003272492347489368,-0.003272492347489368,-8.6875,-15.1875,-23.875
1772919979.0634723,-0.060865227309239156,0.9422307793727953,-7.3914909804556315,-0.1646695887737516,-1.2641830124128635,9.764254265334754,-0.001090830782496456,0.004363323129985824,0.0,-9.5,-13.375,-22.6875
1772919979.079186,-0.060865227309239156,0.9422307793727953,-7.3914909804556315,-0.1646695887737516,-1.2641830124128635,9.764254265334754,-0.001090830782496456,0.004363323129985824,0.0,-9.5,-13.375,-22.6875
1772919979.0957978,-0.060865227309239156,0.9422307793727953,-7.3914909804556315,-0.169797782580846,-1.2661288597407696,9.77286650117898,-0.002181661564992912,0.001090830782496456,0.0,-9.5,-13.375,-22.6875
1772919979.1073859,-0.060865227309239156,0.9422307793727953,-7.3914909804556315,-0.1665203148591502,-1.2674237994009523,9.775252736221013,0.001090830782496456,0.003272492347489368,-0.001090830782496456,-9.5,-13.375,-22.6875
1772919979.1330478,-0.060865227309239156,0.9422307793727953,-7.3914909804556315,-0.1665203148591502,-1.2674237994009523,9.775252736221013,0.001090830782496456,0.003272492347489368,-0.001090830782496456,-9.5,-13.375,-22.6875
1772919979.159325,-0.060865227309239156,0.9422307793727953,-7.3914909804556315,-0.1665203148591502,-1.2674237994009523,9.775252736221013,0.001090830782496456,0.003272492347489368,-0.001090830782496456,-9.5,-13.375,-22.6875
1772919979.1761365,-149.89014868520917,0.9373999050987302,-7.387549495862345,-0.1676843084093944,-1.26828556727938,9.773495637278176,-0.001090830782496456,0.002181661564992912,-0.001090830782496456,-8.6875,-12.875,-21.5
1772919979.1943295,-149.89014868520917,0.9373999050987302,-7.387549495862345,-0.1676843084093944,-1.26828556727938,9.773495637278176,-0.001090830782496456,0.002181661564992912,-0.001090830782496456,-8.6875,-12.875,-21.5
1772919979.2394578,-149.86163887797483,0.9392618082146663,-7.387348804188282,-0.1651138214071026,-1.2688590641758957,9.7723263075598,0.001090830782496456,0.001090830782496456,0.0,-8.6875,-12.875,-21.5
1772919979.2725759,-149.8389597965678,0.9406737129355874,-7.387086719217109,-0.16340319102129866,-1.2658956082468273,9.771548131694487,-0.001090830782496456,0.001090830782496456,0.0,-9.5,-13.25,-22.25
1772919979.3221633,-149.8389597965678,0.9406737129355874,-7.387086719217109,-0.16226478560853963,-1.2639234614300043,9.771030264348918,0.0,0.0,0.0,-9.5,-13.25,-22.25
1772919979.3498755,-149.83313341397252,0.9411237123225634,-7.387148112331936,-0.1615071895231702,-1.262611019753732,9.777375852830037,-0.001090830782496456,0.1407171709420428,0.0,-9.5,-14.0,-21.5
1772919979.3783529,-149.8732966355098,0.9383618099784801,-7.387226018053092,-0.16434812949857902,-1.2617376044791069,9.781598771079354,-0.001090830782496456,0.0,0.0,-9.5,-14.0,-21.5
1772919979.392404,-149.8732966355098,0.9383618099784801,-7.387226018053092,-0.16623874331683466,-1.2678465797851706,9.784409076001186,0.001090830782496456,-0.001090830782496456,0.0,-9.5,-14.0,-21.5
1772919979.4154088,-149.8732966355098,0.9383618099784801,-7.387226018053092,-0.16623874331683466,-1.2678465797851706,9.784409076001186,0.001090830782496456,-0.001090830782496456,0.0,-9.5,-14.0,-21.5
1772919979.4361897,-149.86163887797483,0.9392618082146663,-7.387348804188282,-0.16749692569334362,-1.2719120346096304,9.782934190826182,0.001090830782496456,0.0,0.0,-9.875,-14.375,-20.25
1772919979.4651833,-149.86163887797483,0.9392618082146663,-7.387348804188282,-0.1649891203027729,-1.2746175493812024,9.781952671217764,-0.001090830782496456,0.003272492347489368,-0.001090830782496456,-9.875,-14.375,-20.25
1772919979.4801407,-149.86163887797483,0.9392618082146663,-7.387348804188282,-0.16332020382936985,-1.2730729275317838,9.781299480882655,-0.001090830782496456,0.0,0.0,-9.875,-14.375,-20.25
1772919979.5151222,-149.86163887797483,0.9392618082146663,-7.387348804188282,-0.16220955855933866,-1.2720449989455525,9.780864790011254,0.001090830782496456,0.002181661564992912,-0.001090830782496456,-9.875,-14.75,-21.875
1772919979.5493548,-149.86163887797483,0.9392618082146663,-7.387348804188282,-0.16220955855933866,-1.2720449989455525,9.780864790011254,0.001090830782496456,0.002181661564992912,-0.001090830782496456,-9.875,-14.75,-21.875
1772919979.579837,-149.9069992231197,0.9364380004832108,-7.3878729731980215,-0.1614704365388535,-1.2713609239541301,9.780575508092152,-0.001090830782496456,0.0,0.001090830782496456,-9.875,-14.75,-21.875
1772919979.6236053,-149.93630065520418,0.9431307786069195,-7.393059195465315,-0.164323670798074,-1.2709056796889568,9.78038299420648,0.0,0.002181661564992912,-0.002181661564992912,-9.5,-15.0625,-23.0625
1772919979.6579833,-149.93630065520418,0.9431307786069195,-7.393059195465315,-0.164323670798074,-1.2709056796889568,9.78038299420648,0.0,0.002181661564992912,-0.002181661564992912,-9.5,-15.0625,-23.0625
1772919979.6727955,-149.97649100394202,0.9403667399525317,-7.393140063932223,-0.16287735461755076,-1.2706027197158958,9.776909766658767,-0.001090830782496456,-0.002181661564992912,-0.002181661564992912,-9.5,-15.0625,-23.0625
1772919979.6864283,-149.97649100394202,0.9403667399525317,-7.393140063932223,-0.1652599590631423,-1.2704011032381082,9.774598372524258,0.001090830782496456,-0.002181661564992912,0.001090830782496456,-9.5,-15.0625,-23.0625
1772919979.7007751,-149.97649100394202,0.9403667399525317,-7.393140063932223,-0.1652599590631423,-1.2704011032381082,9.774598372524258,0.001090830782496456,-0.002181661564992912,0.001090830782496456,-9.5,-15.0625,-23.0625
1772919979.728747,-149.9648188522403,0.9412675925942146,-7.393262001669256,-0.16350044399892852,-1.2736120414316636,9.776405277255027,-0.001090830782496456,0.002181661564992912,0.0,-9.875,-14.375,-20.25
1772919979.7462697,-149.9648188522403,0.9412675925942146,-7.393262001669256,-0.16350044399892852,-1.2736120414316636,9.776405277255027,-0.001090830782496456,0.002181661564992912,0.0,-9.875,-14.375,-20.25
1772919979.7812357,-149.86746741254802,0.9388118090676153,-7.387287411129216,-0.16232950637876536,-1.2757488849309448,9.777607752168905,-0.001090830782496456,0.001090830782496456,0.0,-9.875,-14.375,-20.25
1772919979.795805,-149.86746741254802,0.9388118090676153,-7.387287411129216,-0.16232950637876536,-1.2757488849309448,9.777607752168905,-0.001090830782496456,0.001090830782496456,0.0,-9.875,-14.375,-20.25
1772919979.822296,-149.9218546045826,1.1715149926061084,-8.258559833889397,-0.16155026047277704,-1.2771709304096106,9.778407985791565,0.001090830782496456,0.001090830782496456,0.0,-9.875,-13.25,-21.5
1772919979.850243,-149.87369506356745,0.9401793113989606,-7.39402517113509,-0.16103168102708895,-1.271427062375735,9.775595420620931,0.001090830782496456,-0.1407171709420428,-0.001090830782496456,-9.875,-13.25,-21.5
1772919979.877427,-149.87369506356745,0.9401793113989606,-7.39402517113509,-0.16103168102708895,-1.271427062375735,9.775595420620931,0.001090830782496456,-0.1407171709420428,-0.001090830782496456,-9.875,-13.25,-21.5
1772919979.9018905,-149.8788876481755,0.940117404475732,-7.39447185162656,-0.1606865721988955,-1.2676045823624011,9.773723689918286,0.0,0.001090830782496456,-0.001090830782496456,-9.0625,-13.6875,-21.875
1772919979.9177513,-149.90220877348193,0.9383157000181576,-7.394226283316569,-0.16380201783617035,-1.2650607646134269,9.772478074044278,0.001090830782496456,0.001090830782496456,-0.002181661564992912,-9.0625,-13.6875,-21.875
1772919979.945474,-149.90220877348193,0.9383157000181576,-7.394226283316569,-0.16587531210596868,-1.2633678823177907,9.774994242301885,0.001090830782496456,0.001090830782496456,-0.001090830782496456,-9.0625,-13.6875,-21.875
1772919979.9746897,-149.88471689738103,0.9396669782742486,-7.394410459574673,-0.16390995457498556,-1.2588961763534599,9.7800138358772,0.001090830782496456,0.002181661564992912,-0.002181661564992912,-9.0625,-12.875,-20.6875
1772919980.005134,-149.88471689738103,0.9396669782742486,-7.394410459574673,-0.16260203109259844,-1.2559203059864261,9.78000920762172,0.0,0.0,0.0,-9.0625,-12.875,-20.6875
1772919980.0397966,-149.88471689738103,0.9396669782742486,-7.394410459574673,-0.16260203109259844,-1.2559203059864261,9.78000920762172,0.0,0.0,0.0,-9.0625,-12.875,-20.6875
1772919980.0559638,-149.93630065520418,0.9431307786069195,-7.393059195465315,-0.16173162262553242,-1.2539398974998155,9.77666101586208,0.001090830782496456,0.002181661564992912,-0.001090830782496456,-8.375,-13.6875,-21.0625
1772919980.0770755,-149.93630065520418,0.9431307786069195,-7.393059195465315,-0.16173162262553242,-1.2539398974998155,9.77666101586208,0.001090830782496456,0.002181661564992912,-0.001090830782496456,-8.375,-13.6875,-21.0625
1772919980.099958,-149.98232811063818,0.9399163137188868,-7.393079095038453,-0.16449748722111904,-1.2593121811892272,9.774432831647792,0.002181661564992912,-0.001090830782496456,-0.001090830782496456,-8.375,-13.6875,-21.0625
1772919980.1460185,-150.00501778050383,0.9385035554158699,-7.393342870061881,-0.16633813921274995,-1.2595422642648701,9.77294999994363,0.0,0.001090830782496456,-0.001090830782496456,-8.6875,-13.6875,-21.875
1772919980.181416,-150.00501778050383,0.9385035554158699,-7.393342870061881,-0.16633813921274995,-1.2595422642648701,9.77294999994363,0.0,0.001090830782496456,-0.001090830782496456,-8.6875,-13.6875,-21.875
1772919980.2097788,-149.99917922015462,0.9389539814673973,-7.3934038388828105,-0.16756307255175035,-1.2596953819815142,9.771963192008828,0.0,0.002181661564992912,0.0,-8.6875,-13.6875,-21.875
1772919980.245948,-150.00501778050383,0.9385035554158699,-7.393342870061881,-0.16503314029813376,-1.2597972801115038,9.774651594058902,0.002181661564992912,0.0,-0.002181661564992912,-9.0625,-14.0,-21.5
1772919980.2778776,-150.00501778050383,0.9385035554158699,-7.393342870061881,-0.16503314029813376,-1.2597972801115038,9.774651594058902,0.002181661564992912,0.0,-0.002181661564992912,-9.0625,-14.0,-21.5
1772919980.3267245,-150.00501778050383,0.9385035554158699,-7.393342870061881,-0.16669461035186633,-1.2598650921787353,9.773095583884489,0.0,0.002181661564992912,0.0,-9.0625,-14.0,-21.5
1772919980.3490255,-149.99917922015462,0.9389539814673973,-7.3934038388828105,-0.16780030011278876,-1.2599102203519674,9.775405188202509,0.001090830782496456,0.0,0.0,-9.5,-14.0,-21.0625
1772919980.3764205,-150.15364787008224,0.9426141756025358,-7.391199551062718,-0.1685361242973187,-1.2632853643544582,9.77694220407618,-0.001090830782496456,0.0,0.0,-9.5,-14.0,-21.0625
1772919980.4117324,-150.15364787008224,0.9426141756025358,-7.391199551062718,-0.16378043930795508,-1.2670262531742917,9.775300665755205,0.001090830782496456,0.001090830782496456,0.0,-8.0,-14.0,-21.0625
1772919980.4678414,-150.15364787008224,0.9426141756025358,-7.391199551062718,-0.16378043930795508,-1.2670262531742917,9.775300665755205,0.001090830782496456,0.001090830782496456,0.0,-8.0,-14.0,-21.0625
1772919980.502666,-150.29682204674543,0.9400486664450195,-7.390437135809062,-0.16251584012916998,-1.2680210047064198,9.773527533847773,-0.001090830782496456,0.0,-0.001090830782496456,-8.375,-14.75,-21.5
1772919980.550854,-150.29096268502096,0.9404990926957398,-7.390496834848424,-0.16167426350218694,-1.2720281124462676,9.772347534370558,-0.001090830782496456,0.001090830782496456,0.001090830782496456,-8.375,-14.75,-21.5
1772919980.5779405,-150.38293366311873,0.9412103820403842,-7.389272602460862,-0.16111420365795664,-1.27469479788481,9.77156225789993,-0.001090830782496456,-0.002181661564992912,0.001090830782496456,-8.375,-14.375,-21.5
1772919980.6127853,-150.38293366311873,0.9412103820403842,-7.389272602460862,-0.16408660179521914,-1.2764694472553317,9.771039665180838,0.0,-0.001090830782496456,0.0,-8.375,-14.375,-21.5
1772919980.633913,-150.38293366311873,0.9412103820403842,-7.389272602460862,-0.16408660179521914,-1.2764694472553317,9.771039665180838,0.0,-0.001090830782496456,0.0,-8.375,-14.375,-21.5
1772919980.6550627,-150.38293366311873,0.9412103820403842,-7.389272602460862,-0.16606469955170453,-1.2743053448799622,9.777382108978665,0.002181661564992912,0.002181661564992912,-0.001090830782496456,-9.5,-14.375,-22.6875
1772919980.6695838,-150.38293366311873,0.9412103820403842,-7.389272602460862,-0.16606469955170453,-1.2743053448799622,9.777382108978665,0.002181661564992912,0.002181661564992912,-0.001090830782496456,-9.5,-14.375,-22.6875
1772919980.7049198,-150.38293366311873,0.9412103820403842,-7.389272602460862,-0.16738110151184576,-1.2728651589237612,9.78160293447638,0.0,0.0,0.003272492347489368,-9.5,-14.375,-22.6875
1772919980.7425404,-150.54899900468138,0.9372419358361556,-7.388811020876469,-0.16825715231114635,-1.2719067312578407,9.784411846695399,-0.001090830782496456,-0.001090830782496456,0.001090830782496456,-8.0,-14.375,-21.0625
1772919980.7690978,-150.54899900468138,0.9372419358361556,-7.388811020876469,-0.16884015433195224,-1.2712689083525093,9.786281146399551,0.001090830782496456,0.0,0.0,-8.0,-14.375,-21.0625
1772919980.8055358,-150.6293320198281,0.9388604806993224,-7.387730116699344,-0.16588302395691987,-1.2741895560412793,9.787525144471218,0.0,0.002181661564992912,-0.001090830782496456,-9.0625,-13.6875,-21.5
1772919980.8275454,-150.6293320198281,0.9388604806993224,-7.387730116699344,-0.16056997501832718,-1.2761332144523834,9.781662787876904,-0.001090830782496456,0.003272492347489368,-0.001090830782496456,-9.0625,-13.6875,-21.5
1772919980.860274,-150.6293320198281,0.9388604806993224,-7.387730116699344,-0.16056997501832718,-1.2761332144523834,9.781662787876904,-0.001090830782496456,0.003272492347489368,-0.001090830782496456,-9.0625,-13.6875,-21.5
1772919980.8744082,-150.6293320198281,0.9388604806993224,-7.387730116699344,-0.16056997501832718,-1.2761332144523834,9.781662787876904,-0.001090830782496456,0.003272492347489368,-0.001090830782496456,-9.0625,-13.6875,-21.5
1772919980.8932273,-150.56584419271533,0.9362817390393081,-7.389140001526174,-0.1570342003003392,-1.277426697412886,9.777761455050202,-0.001090830782496456,-0.002181661564992912,0.001090830782496456,-9.875,-14.0,-21.5
1772919980.9306004,-150.5203989102537,0.9391029849796804,-7.38859974475686,-0.15802629343002916,-1.268252160751991,9.785200496756733,0.001090830782496456,0.001090830782496456,0.0,-9.875,-14.0,-21.5
1772919980.9554064,-150.5203989102537,0.9391029849796804,-7.38859974475686,-0.15868652032543143,-1.262146609090455,9.79015109591289,0.0,0.0,-0.001090830782496456,-9.5,-13.6875,-20.25
1772919980.9691172,-150.5203989102537,0.9391029849796804,-7.38859974475686,-0.15868652032543143,-1.262146609090455,9.79015109591289,0.0,0.0,-0.001090830782496456,-9.5,-13.6875,-20.25
1772919980.9836175,-150.5203989102537,0.9391029849796804,-7.38859974475686,-0.15912589394910398,-1.2647736560778224,9.786755440934856,-0.003272492347489368,0.002181661564992912,0.0,-9.5,-13.6875,-20.25
1772919980.9967086,-150.5203989102537,0.9391029849796804,-7.38859974475686,-0.1594182921875331,-1.2698670382091972,9.777805447064289,0.0,0.002181661564992912,-0.001090830782496456,-9.5,-13.6875,-20.25
1772919981.0108454,-150.5203989102537,0.9391029849796804,-7.38859974475686,-0.1594182921875331,-1.2698670382091972,9.777805447064289,0.0,0.002181661564992912,-0.001090830782496456,-9.5,-13.6875,-20.25
1772919981.030078,-150.29682204674543,0.9400486664450195,-7.390437135809062,-0.1629579916562247,-1.2732566271208208,9.778539549536047,-0.001090830782496456,0.0,0.0,-9.875,-12.5,-21.5
1772919981.0426702,-150.29682204674543,0.9400486664450195,-7.390437135809062,-0.1629579916562247,-1.2732566271208208,9.778539549536047,-0.001090830782496456,0.0,0.0,-9.875,-12.5,-21.5
1772919981.0549924,-150.29682204674543,0.9400486664450195,-7.390437135809062,-0.16531362211160505,-1.275512360677317,9.7723378631159,-0.001090830782496456,0.002181661564992912,0.0,-9.875,-12.5,-21.5
1772919981.0678654,-150.29682204674543,0.9400486664450195,-7.390437135809062,-0.16531362211160505,-1.275512360677317,9.7723378631159,-0.001090830782496456,0.002181661564992912,0.0,-9.875,-12.5,-21.5
1772919981.0895617,0.22364582988503962,0.9400463829715445,-7.390419232624242,-0.16353615615822492,-1.2770135261609705,9.774900933495308,-0.001090830782496456,0.0,-0.001090830782496456,-9.875,-12.5,-21.5
1772919981.4395082,0.2591708774693974,0.9423221476137255,-7.389985104400639,0.7662055534496904,1.0220544738833908,9.770961262253458,-0.0009496019654728859,0.0005368127263877628,0.0,14.298543383404082,7.640155077805126,-21.0625
1772919981.6710846,0.0128299094374285,0.9399678685883202,-7.388435495006825,0.7579625704173628,1.0208770564937064,9.778194090729091,0.0016104381791632884,0.002848805896418658,0.0,15.147863253823434,8.380551598401256,-21.5
1772919981.7515152,0.0128299094374285,0.9399678685883202,-7.388435495006825,0.7600722414324265,1.0228704333772312,9.775453075846219,0.00041278923908512317,-0.0014864146918606486,-0.003272492347489368,15.147863253823434,8.380551598401256,-21.5
1772919981.7999094,-56.96438425264865,2.5300021385779896,6.500609339435391,0.761476203926382,1.024197003425738,9.776974072768128,0.0009496019654728859,-0.0005368127263877628,0.002181661564992912,14.963320632157856,8.054102489367711,-20.6875
1772919981.8410738,0.0128299094374285,0.9399678685883202,-7.388435495006825,0.7640567004407752,1.0279918442715197,9.781331390936332,0.0005368127263877628,0.0009496019654728859,-0.001090830782496456,14.963320632157856,8.054102489367711,-20.6875
1772919981.8881187,0.0128299094374285,0.9399678685883202,-7.388435495006825,0.765773992045069,1.0305172684632375,9.784231137502838,-0.00041278923908512317,0.0014864146918606486,0.0,14.636871523124311,8.238645111033291,-21.875
1772919981.9147563,0.0128299094374285,0.9399678685883202,-7.388435495006825,0.7681826785636269,1.027639711596776,9.779470663035916,-0.0005368127263877628,-0.0009496019654728859,-0.001090830782496456,14.636871523124311,8.238645111033291,-21.875
1772919981.9878213,0.0128299094374285,0.9399678685883202,-7.388435495006825,0.7697856325349356,1.025724729646562,9.776302620456164,-0.0024360166573335344,0.00012402348730263966,0.001090830782496456,14.452328901458731,7.912196001999746,-21.0625
1772919982.0592573,-151.57052805950158,-3.4721690190724384,-1.3644971034627476,0.7708523804966726,1.0244503305504447,9.774194323508693,-0.0014864146918606486,-0.0004127892390851231,-0.001090830782496456,14.452328901458731,7.912196001999746,-21.0625
1772919982.0884063,-151.57052805950158,-3.4721690190724384,-1.3644971034627476,0.7708523804966726,1.0244503305504447,9.774194323508693,-0.0014864146918606486,-0.0004127892390851231,-0.001090830782496456,14.452328901458731,7.912196001999746,-21.0625
1772919982.1472332,0.0128299094374285,0.9399678685883202,-7.388435495006825,0.7700968067848833,1.0241333433802253,9.771857562625643,0.0016104381791632884,0.002848805896418658,0.0,14.624992492437627,7.455612456139547,-21.0625
1772919982.207034,0.0128299094374285,0.9399678685883202,-7.388435495006825,0.7681474401867097,1.0250374559251014,9.77792641059167,-0.0009496019654728859,0.0005368127263877628,-0.002181661564992912,14.790550061033587,6.85945543699057,-21.0625
1772919982.2810357,0.0128299094374285,0.9399678685883202,-7.388435495006825,0.7652039833335222,1.0227271094268588,9.781965161119587,-0.0014864146918606486,-0.0004127892390851231,0.0,14.790550061033587,6.85945543699057,-21.0625
1772919982.2962646,0.0128299094374285,0.9399678685883202,-7.388435495006825,0.7652039833335222,1.0227271094268588,9.781965161119587,-0.0014864146918606486,-0.0004127892390851231,0.0,14.790550061033587,6.85945543699057,-21.0625
1772919982.324207,0.0128299094374285,0.9399678685883202,-7.388435495006825,0.7632451456782936,1.0211895996405398,9.784652904480117,-0.0009496019654728859,0.0005368127263877628,0.0,13.700053350175917,7.978483217525354,-21.5
1772919982.34632,0.0128299094374285,0.9399678685883202,-7.388435495006825,0.7632451456782936,1.0211895996405398,9.784652904480117,-0.0009496019654728859,0.0005368127263877628,0.0,13.700053350175917,7.978483217525354,-21.5
1772919982.376217,0.0128299094374285,0.9399678685883202,-7.388435495006825,0.7602953859424347,1.0172543807555952,9.78644156766249,-0.0009496019654728859,0.0005368127263877628,0.0,13.700053350175917,7.978483217525354,-21.5
1772919982.4111936,0.0128299094374285,0.9399678685883202,-7.388435495006825,0.7599785289471506,1.0175475598441988,9.78428679132236,-0.0008255784781702463,0.002972829383721297,0.0,14.452328901458731,7.912196001999746,-21.0625
1772919982.4394174,0.0128299094374285,0.9399678685883202,-7.388435495006825,0.7599785289471506,1.0175475598441988,9.78428679132236,-0.0008255784781702463,0.002972829383721297,0.0,14.452328901458731,7.912196001999746,-21.0625
1772919982.4661489,0.0128299094374285,0.9399678685883202,-7.388435495006825,0.7581214889983589,1.0148306439553805,9.782852811738433,-0.0014864146918606486,-0.0004127892390851231,0.001090830782496456,14.452328901458731,7.912196001999746,-21.0625
1772919982.4958258,0.0128299094374285,0.9399678685883202,-7.388435495006825,0.7581214889983589,1.0148306439553805,9.782852811738433,-0.0014864146918606486,-0.0004127892390851231,0.001090830782496456,14.452328901458731,7.912196001999746,-21.0625
1772919982.5143108,0.0128299094374285,0.9399678685883202,-7.388435495006825,0.7614438481121469,1.0142884149206153,9.781898514343931,0.00041278923908512317,-0.0014864146918606486,0.001090830782496456,15.344177926030325,7.838802764091203,-21.875
1772919982.5440066,0.0128299094374285,0.9399678685883202,-7.388435495006825,0.7636548409891898,1.0139275675550743,9.784608551795412,-0.0020232274182484114,-0.001362391204558009,0.0,15.344177926030325,7.838802764091203,-21.875
1772919982.5629528,0.0128299094374285,0.9399678685883202,-7.388435495006825,0.7667724072084076,1.0165994509614948,9.78641205144627,0.0009496019654728859,-0.0005368127263877628,0.0,15.344177926030325,7.838802764091203,-21.875
1772919982.580881,0.0128299094374285,0.9399678685883202,-7.388435495006825,0.767200937543846,1.0154655362243157,9.787612260317504,-0.0009496019654728859,0.0005368127263877628,0.001090830782496456,15.344177926030325,7.838802764091203,-21.5
1772919982.6112373,0.0128299094374285,0.9399678685883202,-7.388435495006825,0.767200937543846,1.0154655362243157,9.787612260317504,-0.0009496019654728859,0.0005368127263877628,0.001090830782496456,15.344177926030325,7.838802764091203,-21.5
1772919982.6550572,0.0128299094374285,0.9399678685883202,-7.388435495006825,0.7674861196950826,1.0147109286333804,9.78506587420678,-0.0014864146918606486,-0.0004127892390851231,0.002181661564992912,15.344177926030325,7.838802764091203,-21.5
1772919982.673886,0.0128299094374285,0.9399678685883202,-7.388435495006825,0.7676759052310375,1.0142087457111322,9.78337128269509,0.0,0.0,0.0,13.853838868230568,8.250524141719975,-21.0625
1772919982.6887634,0.0128299094374285,0.9399678685883202,-7.388435495006825,0.7676759052310375,1.0142087457111322,9.78337128269509,0.0,0.0,0.0,13.853838868230568,8.250524141719975,-21.0625
1772919982.7070193,0.0128299094374285,0.9399678685883202,-7.388435495006825,0.7694483805431265,1.0167865718833857,9.778898439266568,-0.0009496019654728859,0.0005368127263877628,0.003272492347489368,13.853838868230568,8.250524141719975,-21.0625
1772919982.7307498,0.0128299094374285,0.9399678685883202,-7.388435495006825,0.7694483805431265,1.0167865718833857,9.778898439266568,-0.0009496019654728859,0.0005368127263877628,0.003272492347489368,13.853838868230568,8.250524141719975,-21.0625
1772919982.7629483,0.0128299094374285,0.9399678685883202,-7.388435495006825,0.7685009054469315,1.0212899173132282,9.773940899688322,-0.0005368127263877628,-0.0009496019654728859,0.001090830782496456,15.0367138700664,8.945951513939304,-22.25
1772919982.8051422,0.0128299094374285,0.9399678685883202,-7.388435495006825,0.7685009054469315,1.0212899173132282,9.773940899688322,-0.0005368127263877628,-0.0009496019654728859,0.001090830782496456,15.0367138700664,8.945951513939304,-22.25
1772919982.8228445,0.0128299094374285,0.9399678685883202,-7.388435495006825,0.7670853856736888,1.0231451876406652,9.772622624719844,0.0014864146918606486,0.0004127892390851231,-0.001090830782496456,14.624992492437627,7.455612456139547,-21.875
1772919982.8431363,150.5963982069166,-3.101948185954518,-3.820362639844886,0.7615851746217742,1.0231140011795428,9.771745327454418,0.0009496019654728859,-0.0005368127263877628,0.0,14.624992492437627,7.455612456139547,-21.875
1772919982.8640053,150.5963982069166,-3.101948185954518,-3.820362639844886,0.7615851746217742,1.0231140011795428,9.771745327454418,0.0009496019654728859,-0.0005368127263877628,0.0,14.624992492437627,7.455612456139547,-21.875
1772919982.887994,0.0128299094374285,0.9399678685883202,-7.388435495006825,0.7608368689053673,1.0214470717800868,9.78119683104629,0.0,0.0,0.0,14.624992492437627,7.455612456139547,-21.875
1772919982.9098248,0.0128299094374285,0.9399678685883202,-7.388435495006825,0.7603388798102211,1.0203377488855703,9.787486701106465,0.0,0.0,0.0,15.005849786310096,7.240312730863038,-21.0625
1772919982.9527164,0.0128299094374285,0.9399678685883202,-7.388435495006825,0.760007473630304,1.0195995068912185,9.784982315954421,0.0020232274182484114,0.001362391204558009,0.0,15.005849786310096,7.240312730863038,-21.0625
1772919982.9715638,0.0128299094374285,0.9399678685883202,-7.388435495006825,0.760007473630304,1.0195995068912185,9.784982315954421,0.0020232274182484114,0.001362391204558009,0.0,15.005849786310096,7.240312730863038,-21.0625
1772919982.9956253,0.0128299094374285,0.9399678685883202,-7.388435495006825,0.7626989498168776,1.017462039932726,9.78331567561155,0.00041278923908512317,-0.0014864146918606486,-0.002181661564992912,15.159635304364745,7.512353655057659,-22.6875
1772919983.0177236,0.0128299094374285,0.9399678685883202,-7.388435495006825,0.7644900971532834,1.0160395795489199,9.788896768495603,-0.00041278923908512317,0.0014864146918606486,0.0,15.159635304364745,7.512353655057659,-22.6875
1772919983.04691,0.0128299094374285,0.9399678685883202,-7.388435495006825,0.7644900971532834,1.0160395795489199,9.788896768495603,-0.00041278923908512317,0.0014864146918606486,0.0,15.159635304364745,7.512353655057659,-22.6875
1772919983.0784004,0.0128299094374285,0.9399678685883202,-7.388435495006825,0.7660624127158848,1.0225631698058928,9.792610923465046,0.0010736254527755255,0.0018992039309457718,0.001090830782496456,14.026502459209462,7.793940595859775,-21.5
1772919983.093882,0.0128299094374285,0.9399678685883202,-7.388435495006825,0.7654625960009258,1.0239925229513713,9.778357093570785,0.0010736254527755255,0.0018992039309457718,0.001090830782496456,14.026502459209462,7.793940595859775,-21.5
1772919983.1128616,0.0128299094374285,0.9399678685883202,-7.388435495006825,0.7650634246775123,1.0249437415027662,9.768871329001866,-0.0006608362136904024,-0.0033856186228064205,-0.001090830782496456,14.026502459209462,7.793940595859775,-21.5
1772919983.1257606,0.0128299094374285,0.9399678685883202,-7.388435495006825,0.7650634246775123,1.0249437415027662,9.768871329001866,-0.0006608362136904024,-0.0033856186228064205,-0.001090830782496456,14.026502459209462,7.793940595859775,-21.5
1772919983.1405613,0.0128299094374285,0.9399678685883202,-7.388435495006825,0.7647977806208166,1.0255767668229123,9.765903770351503,0.0005368127263877628,0.0009496019654728859,0.001090830782496456,14.452328901458731,7.912196001999746,-20.6875
1772919983.1531186,0.0128299094374285,0.9399678685883202,-7.388435495006825,0.7647977806208166,1.0255767668229123,9.765903770351503,0.0005368127263877628,0.0009496019654728859,0.001090830782496456,14.452328901458731,7.912196001999746,-20.6875
1772919983.1658235,0.0128299094374285,0.9399678685883202,-7.388435495006825,0.767533020765783,1.0243518629441588,9.770619116634128,-0.0010736254527755255,-0.0018992039309457718,-0.001090830782496456,14.452328901458731,7.912196001999746,-20.6875
1772919983.1800106,0.0128299094374285,0.9399678685883202,-7.388435495006825,0.7677071173696692,1.0206246797986624,9.773757126911345,0.0,0.0,0.0,14.452328901458731,7.912196001999746,-20.6875
1772919983.20176,0.0128299094374285,0.9399678685883202,-7.388435495006825,0.7677071173696692,1.0206246797986624,9.773757126911345,0.0,0.0,0.0,14.452328901458731,7.912196001999746,-20.6875
1772919983.2255995,0.0128299094374285,0.9399678685883202,-7.388435495006825,0.7694691518727234,1.0210563043479572,9.775845437696962,-0.0005368127263877628,-0.0009496019654728859,-0.001090830782496456,14.438223836838235,9.284279653659532,-21.5
1772919983.262998,0.0128299094374285,0.9399678685883202,-7.388435495006825,0.7689955909933365,1.0184315223666918,9.773890073489511,-0.0014864146918606486,-0.0004127892390851231,-0.002181661564992912,14.438223836838235,9.284279653659532,-21.5
1772919983.2912753,0.0128299094374285,0.9399678685883202,-7.388435495006825,0.7689955909933365,1.0184315223666918,9.773890073489511,-0.0014864146918606486,-0.0004127892390851231,-0.002181661564992912,14.438223836838235,9.284279653659532,-21.5
1772919983.3191504,0.0128299094374285,0.9399678685883202,-7.388435495006825,0.7674145933788216,1.021242957734109,9.7725888004523,0.0,0.0,-0.001090830782496456,14.026502459209462,7.793940595859775,-21.0625
1772919983.3485866,0.0128299094374285,0.9399678685883202,-7.388435495006825,0.7634504338300037,1.0247601117232887,9.775067929489529,0.0010736254527755255,0.0018992039309457718,0.0,14.026502459209462,7.793940595859775,-21.0625
1772919983.3777602,0.0128299094374285,0.9399678685883202,-7.388435495006825,0.760812329932829,1.0271007384139037,9.776717762170119,0.001197648940078165,0.004335220588279306,0.002181661564992912,14.083243658127573,7.259297783932658,-22.25
1772919983.4032605,0.0128299094374285,0.9399678685883202,-7.388435495006825,0.763234572695374,1.0224540257168264,9.784505930803851,0.0005368127263877628,0.0009496019654728859,0.0,14.083243658127573,7.259297783932658,-22.25
1772919983.4270885,0.0128299094374285,0.9399678685883202,-7.388435495006825,0.763234572695374,1.0224540257168264,9.784505930803851,0.0005368127263877628,0.0009496019654728859,0.0,14.083243658127573,7.259297783932658,-22.25
1772919983.4611263,0.0128299094374285,0.9399678685883202,-7.388435495006825,0.764846548195623,1.0193616903241036,9.782998646615418,0.0020232274182484114,0.001362391204558009,0.002181661564992912,14.225150145495538,6.7483060532335335,-20.6875
1772919983.4753232,0.0128299094374285,0.9399678685883202,-7.388435495006825,0.7692116502000017,1.0231278222584141,9.788685789240123,0.0005368127263877628,0.0009496019654728859,0.0,14.225150145495538,6.7483060532335335,-20.6875
1772919983.4988222,0.0128299094374285,0.9399678685883202,-7.388435495006825,0.7692116502000017,1.0231278222584141,9.788685789240123,0.0005368127263877628,0.0009496019654728859,0.0,14.225150145495538,6.7483060532335335,-20.6875
1772919983.5231764,0.0128299094374285,0.9399678685883202,-7.388435495006825,0.7721165768225313,1.0256341409902474,9.785780295712678,0.002560040144636174,0.002311993170030895,0.001090830782496456,14.225150145495538,6.7483060532335335,-20.6875
1772919983.5608482,0.0128299094374285,0.9399678685883202,-7.388435495006825,0.7678453994265002,1.0231241966723044,9.783846722226654,0.0005368127263877628,0.0009496019654728859,0.001090830782496456,14.452328901458731,7.912196001999746,-21.5
1772919983.5814245,0.0128299094374285,0.9399678685883202,-7.388435495006825,0.7679150018788781,1.0198076816086739,9.779214838963815,0.0014864146918606486,0.0004127892390851231,0.001090830782496456,14.452328901458731,7.912196001999746,-21.5
1772919983.596848,0.0128299094374285,0.9399678685883202,-7.388435495006825,0.7679150018788781,1.0198076816086739,9.779214838963815,0.0014864146918606486,0.0004127892390851231,0.001090830782496456,14.452328901458731,7.912196001999746,-21.5
1772919983.6189747,0.0128299094374285,0.9399678685883202,-7.388435495006825,0.7679613215334253,1.0176005778817288,9.776132372393922,0.0020232274182484114,0.001362391204558009,0.001090830782496456,14.452328901458731,7.912196001999746,-21.5
1772919983.6338856,0.0128299094374285,0.9399678685883202,-7.388435495006825,0.7679613215334253,1.0176005778817288,9.776132372393922,0.0020232274182484114,0.001362391204558009,0.001090830782496456,14.452328901458731,7.912196001999746,-21.5
1772919983.6650481,0.0128299094374285,0.9399678685883202,-7.388435495006825,0.7741965203592701,1.0203096464429742,9.774081025325067,0.00041278923908512317,-0.0014864146918606486,-0.001090830782496456,15.11699917006713,6.674912815324991,-22.6875
1772919983.6874893,0.0128299094374285,0.9399678685883202,-7.388435495006825,0.775053625210226,1.0162884547136866,9.782751211887751,0.002560040144636174,0.002311993170030895,0.002181661564992912,15.11699917006713,6.674912815324991,-22.6875
1772919983.7136118,0.0128299094374285,0.9399678685883202,-7.388435495006825,0.7697999723195308,1.0169047468534094,9.788521124192886,0.06978565443040916,0.12344825551147516,0.001090830782496456,15.11699917006713,6.674912815324991,-22.6875
1772919983.7324495,0.0128299094374285,0.9399678685883202,-7.388435495006825,0.7663037250079213,1.0173148823879605,9.792360936377811,0.0001240234873026396,0.0024360166573335344,0.001090830782496456,14.083243658127573,7.259297783932658,-22.6875
1772919983.7542841,0.0128299094374285,0.9399678685883202,-7.388435495006825,0.7663037250079213,1.0173148823879605,9.792360936377811,0.0001240234873026396,0.0024360166573335344,0.001090830782496456,14.083243658127573,7.259297783932658,-22.6875
1772919983.7709403,0.0128299094374285,0.9399678685883202,-7.388435495006825,0.7668890347749455,1.0159416478467358,9.794916288493365,0.0016104381791632884,0.002848805896418658,0.001090830782496456,14.083243658127573,7.259297783932658,-22.6875
1772919983.7855446,0.0128299094374285,0.9399678685883202,-7.388435495006825,0.7722170773604252,1.0237638454913625,9.796616846781113,-0.0001240234873026396,-0.0024360166573335344,0.0,14.083243658127573,7.259297783932658,-22.6875
1772919983.799984,0.0128299094374285,0.9399678685883202,-7.388435495006825,0.7722170773604252,1.0237638454913625,9.796616846781113,-0.0001240234873026396,-0.0024360166573335344,0.0,14.083243658127573,7.259297783932658,-22.6875
1772919983.815252,0.0128299094374285,0.9399678685883202,-7.388435495006825,0.7650002581145452,1.0235257110683207,9.797748549325128,0.0005368127263877628,0.0009496019654728859,0.001090830782496456,13.811202733932953,7.413083301987307,-21.875
1772919983.8425126,0.0128299094374285,0.9399678685883202,-7.388435495006825,0.7618437206815197,1.0262792585671812,9.798501684726224,0.0,0.0,0.0,13.811202733932953,7.413083301987307,-21.875
1772919983.8621414,0.0128299094374285,0.9399678685883202,-7.388435495006825,0.7618437206815197,1.0262792585671812,9.798501684726224,0.0,0.0,0.0,13.811202733932953,7.413083301987307,-21.875
1772919983.9014556,0.0128299094374285,0.9399678685883202,-7.388435495006825,0.7655671268751927,1.0248193633526228,9.795657776215261,0.0,0.0,0.0,13.811202733932953,7.413083301987307,-21.875
1772919983.9384181,0.0128299094374285,0.9399678685883202,-7.388435495006825,0.7680450121039095,1.0238478193954323,9.793765186869756,-0.0009496019654728859,0.0005368127263877628,0.0,14.038381489896146,8.576973250753518,-22.25
1772919983.952645,0.0128299094374285,0.9399678685883202,-7.388435495006825,0.76678199374657,1.0248474429027337,9.79250568980193,-0.0020232274182484114,-0.001362391204558009,-0.001090830782496456,14.038381489896146,8.576973250753518,-22.25
1772919983.965145,0.0128299094374285,0.9399678685883202,-7.388435495006825,0.76678199374657,1.0248474429027337,9.79250568980193,-0.0020232274182484114,-0.001362391204558009,-0.001090830782496456,14.038381489896146,8.576973250753518,-22.25
1772919983.9864233,0.0128299094374285,0.9399678685883202,-7.388435495006825,0.7659414691386,1.0255126811803164,9.791667508572795,0.00041278923908512317,-0.0014864146918606486,0.0,14.038381489896146,8.576973250753518,-22.25
1772919984.0120974,0.0128299094374285,0.9399678685883202,-7.388435495006825,0.765382109401271,1.0259553898228493,9.791109708327904,-0.0005368127263877628,-0.0009496019654728859,-0.001090830782496456,14.624992492437627,7.455612456139547,-21.5
1772919984.047124,0.0128299094374285,0.9399678685883202,-7.388435495006825,0.7650098617445363,1.0262500074790752,9.787393386788645,-0.0001240234873026396,-0.0024360166573335344,-0.001090830782496456,14.624992492437627,7.455612456139547,-21.5
1772919984.071842,0.0128299094374285,0.9399678685883202,-7.388435495006825,0.7650098617445363,1.0262500074790752,9.787393386788645,-0.0001240234873026396,-0.0024360166573335344,-0.001090830782496456,14.624992492437627,7.455612456139547,-21.5
1772919984.1057727,0.0128299094374285,0.9399678685883202,-7.388435495006825,0.7647621350872582,1.026446072238199,9.788265328025622,-0.0009496019654728859,0.0005368127263877628,0.002181661564992912,14.778778010492276,7.727653380334168,-21.875
1772919984.149658,0.0128299094374285,0.9399678685883202,-7.388435495006825,0.7647621350872582,1.026446072238199,9.788265328025622,-0.0009496019654728859,0.0005368127263877628,0.002181661564992912,14.778778010492276,7.727653380334168,-21.875
1772919984.2019305,0.0128299094374285,0.9399678685883202,-7.388435495006825,0.7645972757641277,1.0265765511452087,9.788845595178607,0.0,0.0,0.001090830782496456,14.778778010492276,7.727653380334168,-21.875
1772919984.2348979,0.0128299094374285,0.9399678685883202,-7.388435495006825,0.7645972757641277,1.0265765511452087,9.788845595178607,0.0,0.0,0.001090830782496456,14.778778010492276,7.727653380334168,-21.875
1772919984.2839968,0.0128299094374285,0.9399678685883202,-7.388435495006825,0.7644875637261836,1.026663383400279,9.78923175648691,-0.0014864146918606486,-0.0004127892390851231,0.0,14.778778010492276,7.727653380334168,-20.6875
1772919984.310773,0.0128299094374285,0.9399678685883202,-7.388435495006825,0.7644145515904955,1.0267211692960483,9.78614363081656,0.00041278923908512317,-0.0014864146918606486,0.0,14.778778010492276,7.727653380334168,-20.6875
1772919984.3518794,0.0128299094374285,0.9399678685883202,-7.388435495006825,0.767277986127053,1.0251134500062176,9.780743405972249,0.0005368127263877628,0.0009496019654728859,-0.002181661564992912,14.026502459209462,7.793940595859775,-22.25
1772919984.401875,0.0128299094374285,0.9399678685883202,-7.388435495006825,0.767537394666518,1.0211315074809775,9.780494728370142,-0.0005368127263877628,-0.0009496019654728859,-0.001090830782496456,14.026502459209462,7.793940595859775,-22.25
1772919984.4258785,0.0128299094374285,0.9399678685883202,-7.388435495006825,0.767537394666518,1.0211315074809775,9.780494728370142,-0.0005368127263877628,-0.0009496019654728859,-0.001090830782496456,14.026502459209462,7.793940595859775,-22.25
1772919984.4615006,0.0128299094374285,0.9399678685883202,-7.388435495006825,0.7680903551703987,1.0259517909641152,9.780329236203851,0.002972829383721297,0.0008255784781702462,-0.001090830782496456,15.159635304364745,7.512353655057659,-21.0625
1772919984.4853747,0.0128299094374285,0.9399678685883202,-7.388435495006825,0.7651659938928489,1.0233355891815308,9.783564214723173,0.0010736254527755255,0.0018992039309457718,0.001090830782496456,15.159635304364745,7.512353655057659,-21.0625
1772919984.504653,0.0128299094374285,0.9399678685883202,-7.388435495006825,0.7651659938928489,1.0233355891815308,9.783564214723173,0.0010736254527755255,0.0018992039309457718,0.001090830782496456,15.159635304364745,7.512353655057659,-21.0625
1772919984.5292275,0.0128299094374285,0.9399678685883202,-7.388435495006825,0.7648660392878498,1.0245065594173686,9.782371945083383,0.002972829383721297,0.0008255784781702462,0.0,14.026502459209462,7.793940595859775,-22.25
1772919984.5542688,0.0128299094374285,0.9399678685883202,-7.388435495006825,0.7646664228489354,1.025285827028724,9.778233391249309,-0.00041278923908512317,0.0014864146918606486,0.001090830782496456,14.026502459209462,7.793940595859775,-22.25
1772919984.590958,0.0128299094374285,0.9399678685883202,-7.388435495006825,0.7645335803386997,1.0258044209190915,9.775479229903409,0.0009496019654728859,-0.0005368127263877628,0.001090830782496456,15.344177926030325,7.838802764091203,-21.875
1772919984.6147344,0.0128299094374285,0.9399678685883202,-7.388435495006825,0.761533151834827,1.0277957145180123,9.77364636629371,0.0020232274182484114,0.001362391204558009,0.0,15.344177926030325,7.838802764091203,-21.875
1772919984.6571324,0.0128299094374285,0.9399678685883202,-7.388435495006825,0.761533151834827,1.0277957145180123,9.77364636629371,0.0020232274182484114,0.001362391204558009,0.0,15.344177926030325,7.838802764091203,-21.875
1772919984.6807659,0.0128299094374285,0.9399678685883202,-7.388435495006825,0.759536400182482,1.029120898163887,9.772426616035883,-0.0006608362136904024,-0.0033856186228064205,-0.002181661564992912,13.700053350175917,7.978483217525354,-21.5
1772919984.6995983,0.0128299094374285,0.9399678685883202,-7.388435495006825,0.761119607560283,1.028356617918991,9.771614885864803,0.0,0.0,0.0,13.700053350175917,7.978483217525354,-21.5
1772919984.7316167,0.0128299094374285,0.9399678685883202,-7.388435495006825,0.761119607560283,1.028356617918991,9.771614885864803,0.0,0.0,0.0,13.700053350175917,7.978483217525354,-21.5
1772919984.7530072,0.0128299094374285,0.9399678685883202,-7.388435495006825,0.7621732143846243,1.0278479979535822,9.77107468850357,0.00041278923908512317,-0.0014864146918606486,0.0,13.700053350175917,7.978483217525354,-21.5
1772919984.7675562,0.0128299094374285,0.9399678685883202,-7.388435495006825,0.7628743779566639,1.02750951704826,9.774060304901388,0.0009496019654728859,-0.0005368127263877628,0.0,14.790550061033587,6.85945543699057,-22.25
1772919984.7868013,0.0128299094374285,0.9399678685883202,-7.388435495006825,0.760428971184087,1.028930436944802,9.779392310969936,0.0,0.0,-0.001090830782496456,14.790550061033587,6.85945543699057,-22.25
1772919984.8022864,0.0128299094374285,0.9399678685883202,-7.388435495006825,0.760428971184087,1.028930436944802,9.779392310969936,0.0,0.0,-0.001090830782496456,14.790550061033587,6.85945543699057,-22.25
1772919984.8232875,0.0128299094374285,0.9399678685883202,-7.388435495006825,0.7571554051359662,1.0269640199659764,9.779595589738824,-0.00041278923908512317,0.0014864146918606486,0.0,14.790550061033587,6.85945543699057,-22.25
1772919984.8512506,0.0128299094374285,0.9399678685883202,-7.388435495006825,0.7571554051359662,1.0269640199659764,9.779595589738824,-0.00041278923908512317,0.0014864146918606486,0.0,14.790550061033587,6.85945543699057,-22.25
1772919984.8777804,0.0128299094374285,0.9399678685883202,-7.388435495006825,0.7578889067963296,1.0240092162749306,9.779730869488745,0.0014864146918606486,0.0004127892390851231,-0.001090830782496456,14.298543383404082,7.640155077805126,-21.5
1772919984.9130466,0.0128299094374285,0.9399678685883202,-7.388435495006825,0.7600232191155054,1.0249548507231185,9.779820896651144,0.0,0.0,-0.001090830782496456,14.298543383404082,7.640155077805126,-21.5
1772919984.9391773,0.0128299094374285,0.9399678685883202,-7.388435495006825,0.7614435801220862,1.0255841598849587,9.779880808722051,0.0014864146918606486,0.0004127892390851231,0.0,14.298543383404082,7.640155077805126,-21.5
1772919984.9533858,0.0128299094374285,0.9399678685883202,-7.388435495006825,0.7623888145054936,1.0260029581023191,9.779920679535978,0.0014864146918606486,0.0004127892390851231,0.0,14.624992492437627,7.455612456139547,-22.25
1772919984.967406,0.0128299094374285,0.9399678685883202,-7.388435495006825,0.7613716822707368,1.023369640340431,9.77994721311726,0.002560040144636174,0.002311993170030895,-0.002181661564992912,14.624992492437627,7.455612456139547,-22.25
1772919984.9820187,0.0128299094374285,0.9399678685883202,-7.388435495006825,0.7590486169726632,1.0187051734887227,9.779964870919205,0.001197648940078165,0.004335220588279306,-0.001090830782496456,14.624992492437627,7.455612456139547,-22.25
1772919985.0181007,0.0128299094374285,0.9399678685883202,-7.388435495006825,0.7604146662643939,1.0139548477464648,9.779976621989148,0.0,0.0,-0.001090830782496456,14.026502459209462,7.793940595859775,-21.875
1772919985.075457,0.0128299094374285,0.9399678685883202,-7.388435495006825,0.7629699319662246,1.0137055823268668,9.776639330487608,-0.0005368127263877628,-0.0009496019654728859,0.0,14.026502459209462,7.793940595859775,-21.875
1772919985.0951939,0.0128299094374285,0.9399678685883202,-7.388435495006825,0.7663166079045595,1.0164517222718603,9.774418400273323,0.0018992039309457718,-0.0010736254527755255,-0.001090830782496456,14.636871523124311,8.238645111033291,-22.6875
1772919985.1445417,0.0128299094374285,0.9399678685883202,-7.388435495006825,0.7685437833567015,1.0182792477288605,9.77963061943977,0.0008255784781702463,-0.002972829383721297,0.0,14.636871523124311,8.238645111033291,-22.6875
1772919985.169118,0.0128299094374285,0.9399678685883202,-7.388435495006825,0.7700259437409219,1.0194954455056968,9.783099293070737,-0.0009496019654728859,0.0005368127263877628,0.0,14.409692767161118,7.074755162267079,-21.875
1772919985.2021668,0.0128299094374285,0.9399678685883202,-7.388435495006825,0.7710123049198043,1.0203048115403623,9.778717433209884,0.0009496019654728859,-0.0005368127263877628,0.0,14.409692767161118,7.074755162267079,-21.875
1772919985.23226,0.0128299094374285,0.9399678685883202,-7.388435495006825,0.7710123049198043,1.0203048115403623,9.778717433209884,0.0009496019654728859,-0.0005368127263877628,0.0,14.409692767161118,7.074755162267079,-21.875
1772919985.2625928,0.0128299094374285,0.9399678685883202,-7.388435495006825,0.7671105188107609,1.0195775874559165,9.775801354421068,0.0005368127263877628,0.0009496019654728859,-0.001090830782496456,15.332298895343639,7.055770109197459,-21.5
1772919985.2985601,0.0128299094374285,0.9399678685883202,-7.388435495006825,0.7645139237409991,1.0190936279513434,9.780550959976484,0.0009496019654728859,-0.0005368127263877628,-0.001090830782496456,15.332298895343639,7.055770109197459,-21.5
1772919985.327418,0.0128299094374285,0.9399678685883202,-7.388435495006825,0.7645139237409991,1.0190936279513434,9.780550959976484,0.0009496019654728859,-0.0005368127263877628,-0.001090830782496456,15.332298895343639,7.055770109197459,-21.5
1772919985.386507,0.0128299094374285,0.9399678685883202,-7.388435495006825,0.7681320681249378,1.0187275615174962,9.785815252791181,-0.0010736254527755255,-0.0018992039309457718,0.001090830782496456,14.298543383404082,7.640155077805126,-22.6875
1772919985.4263368,0.0128299094374285,0.9399678685883202,-7.388435495006825,0.7681320681249378,1.0187275615174962,9.785815252791181,-0.0010736254527755255,-0.0018992039309457718,0.001090830782496456,14.298543383404082,7.640155077805126,-22.6875
1772919985.5201564,0.0128299094374285,0.9399678685883202,-7.388435495006825,0.7659800241071579,1.0232450450172985,9.788146678481821,-0.0016104381791632884,-0.002848805896418658,-0.001090830782496456,15.159635304364745,7.512353655057659,-21.875
1772919985.5993667,0.0128299094374285,0.9399678685883202,-7.388435495006825,0.7654077673021592,1.0244463032875166,9.78542152352529,0.0005368127263877628,0.0009496019654728859,0.002181661564992912,13.811202733932953,7.413083301987307,-21.875
1772919985.6715589,0.0128299094374285,0.9399678685883202,-7.388435495006825,0.7654077673021592,1.0244463032875166,9.78542152352529,0.0005368127263877628,0.0009496019654728859,0.002181661564992912,13.811202733932953,7.413083301987307,-21.875
1772919985.7160842,0.0128299094374285,0.9399678685883202,-7.388435495006825,0.7650269367909599,1.0252457272474127,9.786953075051015,-0.0005368127263877628,-0.0009496019654728859,0.0,13.811202733932953,7.413083301987307,-21.875
1772919985.7572684,0.0128299094374285,0.9399678685883202,-7.388435495006825,0.7631273231819578,1.0228657116653137,9.784627193775513,-0.0010736254527755255,-0.0018992039309457718,-0.003272492347489368,15.005849786310096,7.240312730863038,-22.25
1772919985.8382728,0.0128299094374285,0.9399678685883202,-7.388435495006825,0.7631273231819578,1.0228657116653137,9.784627193775513,-0.0010736254527755255,-0.0018992039309457718,-0.003272492347489368,15.005849786310096,7.240312730863038,-22.25
1772919985.8770964,0.0128299094374285,0.9399678685883202,-7.388435495006825,0.7602169763872868,1.018369814584684,9.779734234061143,0.0010736254527755255,0.0018992039309457718,0.0,15.005849786310096,7.240312730863038,-22.25
1772919985.944452,0.0128299094374285,0.9399678685883202,-7.388435495006825,0.758280173106137,1.0153778452999862,9.77647802402917,0.0001240234873026396,0.0024360166573335344,0.001090830782496456,15.344177926030325,7.838802764091203,-22.25
1772919985.9930289,0.0128299094374285,0.9399678685883202,-7.388435495006825,0.7586374273159968,1.0162987464607656,9.777656164334463,0.0005368127263877628,0.0009496019654728859,0.001090830782496456,15.344177926030325,7.838802764091203,-22.25
1772919986.074588,0.0128299094374285,0.9399678685883202,-7.388435495006825,0.7588751760018674,1.0169115958961241,9.781785315254265,0.0010736254527755255,0.0018992039309457718,0.001090830782496456,15.005849786310096,7.240312730863038,-21.5
1772919986.1092567,0.0128299094374285,0.9399678685883202,-7.388435495006825,0.760679570254442,1.0202314636466374,9.781188107358435,-0.0005368127263877628,-0.0009496019654728859,-0.001090830782496456,15.005849786310096,7.240312730863038,-21.5
1772919986.1453066,0.0128299094374285,0.9399678685883202,-7.388435495006825,0.7631462226124303,1.017882600094038,9.784135783882329,0.0005368127263877628,0.0009496019654728859,-0.001090830782496456,14.963320632157856,8.054102489367711,-21.875
1772919986.1874344,0.0128299094374285,0.9399678685883202,-7.388435495006825,0.7631462226124303,1.017882600094038,9.784135783882329,0.0005368127263877628,0.0009496019654728859,-0.001090830782496456,14.963320632157856,8.054102489367711,-21.875
1772919986.2549279,0.0128299094374285,0.9399678685883202,-7.388435495006825,0.7664339273603137,1.019231480935567,9.786097429681277,-0.0001240234873026396,-0.0024360166573335344,0.001090830782496456,14.963320632157856,8.054102489367711,-21.875
1772919986.2882621,0.0128299094374285,0.9399678685883202,-7.388435495006825,0.7686218581439617,1.0201291460676183,9.787402883047458,0.0013623912045580091,-0.0020232274182484114,-0.001090830782496456,15.344177926030325,7.838802764091203,-21.875
1772919986.3184254,0.0128299094374285,0.9399678685883202,-7.388435495006825,0.7700779016396911,1.0207265321854218,9.78827164767978,0.0,0.0,0.002181661564992912,15.344177926030325,7.838802764091203,-21.875
1772919986.3636045,0.0128299094374285,0.9399678685883202,-7.388435495006825,0.7700779016396911,1.0207265321854218,9.78827164767978,0.0,0.0,0.002181661564992912,15.344177926030325,7.838802764091203,-21.875
1772919986.4015784,0.0128299094374285,0.9399678685883202,-7.388435495006825,0.7681348590237685,1.0227702611315344,9.785504689130535,-0.00041278923908512317,0.0014864146918606486,0.001090830782496456,14.624992492437627,7.455612456139547,-20.25
1772919986.4312062,0.0128299094374285,0.9399678685883202,-7.388435495006825,0.7681348590237685,1.0227702611315344,9.785504689130535,-0.00041278923908512317,0.0014864146918606486,0.001090830782496456,14.624992492437627,7.455612456139547,-20.25
1772919986.4850993,0.0128299094374285,0.9399678685883202,-7.388435495006825,0.7668417858680803,1.024130339915224,9.780318197417644,0.0,0.0,-0.001090830782496456,14.452328901458731,7.912196001999746,-21.5
1772919986.5193248,0.0128299094374285,0.9399678685883202,-7.388435495006825,0.7659812601275434,1.025035457152694,9.776866645119625,0.0,0.0,-0.001090830782496456,14.452328901458731,7.912196001999746,-21.5
1772919986.5631757,0.0128299094374285,0.9399678685883202,-7.388435495006825,0.7637624147019639,1.0227257792661495,9.777914787328978,-0.0009496019654728859,0.0005368127263877628,0.0,14.180287977264111,8.065981520054395,-21.5
1772919986.5930777,0.0128299094374285,0.9399678685883202,-7.388435495006825,0.7622857978573683,1.0211887144334466,9.778612314260787,0.0005368127263877628,0.0009496019654728859,0.0,14.180287977264111,8.065981520054395,-21.5
1772919986.640647,0.0128299094374285,0.9399678685883202,-7.388435495006825,0.7658613242973942,1.0214316630967264,9.77907651064202,-0.0010736254527755255,-0.0018992039309457718,-0.001090830782496456,14.409692767161118,7.074755162267079,-20.25
1772919986.6833982,0.0128299094374285,0.9399678685883202,-7.388435495006825,0.7682407972019841,1.0215933427182247,9.779385428148316,0.00350964211010906,0.0017751804436431323,0.0,14.409692767161118,7.074755162267079,-20.25
1772919986.7072673,0.0128299094374285,0.9399678685883202,-7.388435495006825,0.7669122865422757,1.0233471138582064,9.779591009297922,0.0010736254527755255,0.0018992039309457718,0.0,14.452328901458731,7.912196001999746,-22.6875
1772919986.7556062,0.0128299094374285,0.9399678685883202,-7.388435495006825,0.7660281775386762,1.0245142289609572,9.783072932963812,0.0,0.0,0.001090830782496456,14.452328901458731,7.912196001999746,-22.6875
1772919986.792574,0.0128299094374285,0.9399678685883202,-7.388435495006825,0.7654398128729255,1.025290931024308,9.785390114267827,0.0024360166573335344,-0.00012402348730263966,-0.002181661564992912,14.452328901458731,7.912196001999746,-22.6875
1772919986.8103764,0.0128299094374285,0.9399678685883202,-7.388435495006825,0.7663141108996367,1.0212496191159237,9.786932172541038,-0.0018992039309457718,0.0010736254527755255,-0.001090830782496456,14.364830598929691,8.39243062908794,-22.25
1772919986.8506148,0.0128299094374285,0.9399678685883202,-7.388435495006825,0.7668959464698643,1.018560171185306,9.78795839509594,-0.0005368127263877628,-0.0009496019654728859,0.002181661564992912,14.364830598929691,8.39243062908794,-22.25
1772919986.8817966,0.0128299094374285,0.9399678685883202,-7.388435495006825,0.7668959464698643,1.018560171185306,9.78795839509594,-0.0005368127263877628,-0.0009496019654728859,0.002181661564992912,14.364830598929691,8.39243062908794,-22.25
1772919986.9062872,0.0128299094374285,0.9399678685883202,-7.388435495006825,0.7705755018582304,1.0225944202250998,9.78864133474257,-0.0014864146918606486,-0.0004127892390851231,0.0,14.298543383404082,7.640155077805126,-21.5
1772919986.9330697,0.0128299094374285,0.9399678685883202,-7.388435495006825,0.7730242048658613,1.025279167895568,9.792440935155785,-0.0009496019654728859,0.0005368127263877628,-0.002181661564992912,14.298543383404082,7.640155077805126,-21.5
1772919986.9524007,0.0128299094374285,0.9399678685883202,-7.388435495006825,0.7730242048658613,1.025279167895568,9.792440935155785,-0.0009496019654728859,0.0005368127263877628,-0.002181661564992912,14.298543383404082,7.640155077805126,-21.5
1772919986.9767308,0.0128299094374285,0.9399678685883202,-7.388435495006825,0.7746537893636347,1.027065837479668,9.794969526786462,-0.0018992039309457718,0.0010736254527755255,-0.001090830782496456,14.636871523124311,8.238645111033291,-21.5
1772919986.9926846,0.0128299094374285,0.9399678685883202,-7.388435495006825,0.7786502829405102,1.026608670971525,9.796652276270459,-0.0013623912045580091,0.0020232274182484114,-0.001090830782496456,14.636871523124311,8.238645111033291,-21.5
1772919987.0287206,0.0128299094374285,0.9399678685883202,-7.388435495006825,0.7738396830196902,1.0266847587858905,9.794427015547196,0.0005368127263877628,0.0009496019654728859,-0.002181661564992912,14.636871523124311,8.238645111033291,-21.5
1772919987.0674207,0.0128299094374285,0.9399678685883202,-7.388435495006825,0.768992107352352,1.0238233710791351,9.789601017686335,-0.0009496019654728859,0.0005368127263877628,0.001090830782496456,13.898701036461995,6.9328486748991125,-21.5
1772919987.0926416,0.0128299094374285,0.9399678685883202,-7.388435495006825,0.7657660998967069,1.0219191495240847,9.786389370019862,0.0,0.0,-0.001090830782496456,13.898701036461995,6.9328486748991125,-21.5
1772919987.1079333,0.0128299094374285,0.9399678685883202,-7.388435495006825,0.7657660998967069,1.0219191495240847,9.786389370019862,0.0,0.0,-0.001090830782496456,13.898701036461995,6.9328486748991125,-21.5
1772919987.1421494,0.0128299094374285,0.9399678685883202,-7.388435495006825,0.7681774264270529,1.0219177594900515,9.784252054374278,-0.0014864146918606486,-0.0004127892390851231,-0.002181661564992912,14.298543383404082,7.640155077805126,-22.25
1772919987.1545658,0.0128299094374285,0.9399678685883202,-7.388435495006825,0.7714283124546704,1.024828857735189,9.779484582980203,-0.0009496019654728859,0.0005368127263877628,0.001090830782496456,14.298543383404082,7.640155077805126,-22.25
1772919987.1666453,0.0128299094374285,0.9399678685883202,-7.388435495006825,0.7714283124546704,1.024828857735189,9.779484582980203,-0.0009496019654728859,0.0005368127263877628,0.001090830782496456,14.298543383404082,7.640155077805126,-22.25
1772919987.1831143,0.0128299094374285,0.9399678685883202,-7.388435495006825,0.7735917407912735,1.0267661610982297,9.77631188402359,0.0005368127263877628,0.0009496019654728859,0.001090830782496456,14.298543383404082,7.640155077805126,-22.25
1772919987.1997368,0.0128299094374285,0.9399678685883202,-7.388435495006825,0.7721194548849459,1.0297015900031914,9.777545600016653,-0.0013623912045580091,0.0020232274182484114,-0.001090830782496456,14.038381489896146,8.576973250753518,-21.875
1772919987.2170115,0.0128299094374285,0.9399678685883202,-7.388435495006825,0.7721194548849459,1.0297015900031914,9.777545600016653,-0.0013623912045580091,0.0020232274182484114,-0.001090830782496456,14.038381489896146,8.576973250753518,-21.875
1772919987.249398,0.0128299094374285,0.9399678685883202,-7.388435495006825,0.7678473147448871,1.0258310385540361,9.785056847643165,0.0010736254527755255,0.0018992039309457718,0.0,14.038381489896146,8.576973250753518,-21.875
1772919987.2766397,0.0128299094374285,0.9399678685883202,-7.388435495006825,0.7666504283625647,1.0261672530987749,9.783365275617838,-0.0016104381791632884,-0.002848805896418658,-0.001090830782496456,14.452328901458731,7.912196001999746,-21.0625
1772919987.29796,0.0128299094374285,0.9399678685883202,-7.388435495006825,0.7687659371424851,1.0247448249645814,9.778894441623759,-0.0009496019654728859,0.0005368127263877628,0.0,14.452328901458731,7.912196001999746,-21.0625
1772919987.3204148,0.0128299094374285,0.9399678685883202,-7.388435495006825,0.7701737846037405,1.0237982149308391,9.76922892812855,0.0,0.0,0.001090830782496456,14.452328901458731,7.912196001999746,-21.0625
1772919987.3396978,0.0128299094374285,0.9399678685883202,-7.388435495006825,0.7701737846037405,1.0237982149308391,9.76922892812855,0.0,0.0,0.001090830782496456,14.452328901458731,7.912196001999746,-21.0625
1772919987.352611,0.0128299094374285,0.9399678685883202,-7.388435495006825,0.7652866447680017,1.0264606068436195,9.769486860282987,0.0014864146918606486,0.0004127892390851231,-0.001090830782496456,15.332298895343639,7.055770109197459,-21.5
1772919987.3696578,0.0128299094374285,0.9399678685883202,-7.388435495006825,0.7620343078002465,1.0282323989207085,9.769658511250475,0.00041278923908512317,-0.0014864146918606486,0.0,15.332298895343639,7.055770109197459,-21.5
1772919987.3853686,0.0128299094374285,0.9399678685883202,-7.388435495006825,0.7627819371764487,1.0277653315978426,9.773117854759189,-0.0005368127263877628,-0.0009496019654728859,-0.002181661564992912,15.332298895343639,7.055770109197459,-21.5
1772919987.411463,0.0128299094374285,0.9399678685883202,-7.388435495006825,0.763279476174744,1.0274545035119589,9.77876512092816,0.0,0.0,-0.001090830782496456,15.332298895343639,7.055770109197459,-21.0625
1772919987.4417021,0.0128299094374285,0.9399678685883202,-7.388435495006825,0.763279476174744,1.0274545035119589,9.77876512092816,0.0,0.0,-0.001090830782496456,15.332298895343639,7.055770109197459,-21.0625
1772919987.4666862,0.0128299094374285,0.9399678685883202,-7.388435495006825,0.7636105828202348,1.0272476508929806,9.782523313479514,0.0,0.0,0.001090830782496456,15.332298895343639,7.055770109197459,-21.0625
1772919987.4933896,0.0128299094374285,0.9399678685883202,-7.388435495006825,0.7636105828202348,1.0272476508929806,9.782523313479514,0.0,0.0,0.001090830782496456,15.332298895343639,7.055770109197459,-21.0625
1772919987.532743,0.0128299094374285,0.9399678685883202,-7.388435495006825,0.7638309305941052,1.0271099927857459,9.785024348640677,0.00041278923908512317,-0.0014864146918606486,-0.002181661564992912,13.853838868230568,8.250524141719975,-21.5
1772919987.5554194,0.0128299094374285,0.9399678685883202,-7.388435495006825,0.7639775695761701,1.0270183828531227,9.783343647894718,0.0024360166573335344,-0.00012402348730263966,0.0,13.853838868230568,8.250524141719975,-21.5
1772919987.5893588,0.0128299094374285,0.9399678685883202,-7.388435495006825,0.7640751561806697,1.0269574174663123,9.77888004861562,0.0010736254527755255,0.0018992039309457718,0.0,13.626660112267373,7.0866341929537615,-21.875
1772919987.6238816,0.0128299094374285,0.9399678685883202,-7.388435495006825,0.7628742508365457,1.031475044137631,9.775909573157053,0.0014864146918606486,0.0004127892390851231,0.0,13.626660112267373,7.0866341929537615,-21.875
1772919987.6563911,0.0128299094374285,0.9399678685883202,-7.388435495006825,0.7628742508365457,1.031475044137631,9.775909573157053,0.0014864146918606486,0.0004127892390851231,0.0,13.626660112267373,7.0866341929537615,-21.875
1772919987.670066,0.0128299094374285,0.9399678685883202,-7.388435495006825,0.764987085042282,1.0328352990642429,9.77727786662908,0.0010736254527755255,0.0018992039309457718,-0.001090830782496456,15.005849786310096,7.240312730863038,-21.5
1772919987.6833262,0.0128299094374285,0.9399678685883202,-7.388435495006825,0.7618349541490814,1.0324746853835554,9.778188450649875,-0.0009496019654728859,0.0005368127263877628,-0.001090830782496456,15.005849786310096,7.240312730863038,-21.5
1772919987.6972368,0.0128299094374285,0.9399678685883202,-7.388435495006825,0.7618349541490814,1.0324746853835554,9.778188450649875,-0.0009496019654728859,0.0005368127263877628,-0.001090830782496456,15.005849786310096,7.240312730863038,-21.5
1772919987.715468,0.0128299094374285,0.9399678685883202,-7.388435495006825,0.76100309439057,1.0276765025521633,9.778794434143824,-0.0001240234873026396,-0.0024360166573335344,-0.001090830782496456,15.005849786310096,7.240312730863038,-21.5
1772919987.7521265,0.0128299094374285,0.9399678685883202,-7.388435495006825,0.7650076994689766,1.0257492136163904,9.779197709389768,0.0005368127263877628,0.0009496019654728859,0.001090830782496456,15.159635304364745,7.512353655057659,-20.75
1772919987.7932105,0.0128299094374285,0.9399678685883202,-7.388435495006825,0.7650076994689766,1.0257492136163904,9.779197709389768,0.0005368127263877628,0.0009496019654728859,0.001090830782496456,15.159635304364745,7.512353655057659,-20.75
1772919987.813721,0.0128299094374285,0.9399678685883202,-7.388435495006825,0.7676727194142863,1.0244666243588616,9.776120972853745,0.0009496019654728859,-0.0005368127263877628,-0.001090830782496456,15.159635304364745,7.512353655057659,-20.75
1772919987.9056466,0.0128299094374285,0.9399678685883202,-7.388435495006825,0.7694462604176664,1.023613075535437,9.77407343905842,-0.0005368127263877628,-0.0009496019654728859,-0.002181661564992912,13.626660112267373,7.0866341929537615,-21.0625
1772919987.9375443,0.0128299094374285,0.9399678685883202,-7.388435495006825,0.7706265321436648,1.023045048328213,9.78609127501936,0.0,0.0,-0.001090830782496456,13.626660112267373,7.0866341929537615,-21.0625
1772919987.9517634,0.0128299094374285,0.9399678685883202,-7.388435495006825,0.7697658146348632,1.019755009269826,9.794089010603342,-0.0005368127263877628,-0.0009496019654728859,0.0,14.298543383404082,7.640155077805126,-22.25
1772919987.9659958,0.0128299094374285,0.9399678685883202,-7.388435495006825,0.7697658146348632,1.019755009269826,9.794089010603342,-0.0005368127263877628,-0.0009496019654728859,0.0,14.298543383404082,7.640155077805126,-22.25
1772919987.9800901,0.0128299094374285,0.9399678685883202,-7.388435495006825,0.7662809934503413,1.0192117001865686,9.792721190879282,-0.0005368127263877628,-0.0009496019654728859,0.0,14.298543383404082,7.640155077805126,-22.25
1772919987.993778,0.0128299094374285,0.9399678685883202,-7.388435495006825,0.7662809934503413,1.0192117001865686,9.792721190879282,-0.0005368127263877628,-0.0009496019654728859,0.0,14.298543383404082,7.640155077805126,-22.25
1772919988.0250494,0.0128299094374285,0.9399678685883202,-7.388435495006825,0.7610498605827865,1.0204963092187753,9.791810922132468,-0.0005368127263877628,-0.0009496019654728859,0.0,14.298543383404082,7.640155077805126,-22.25
1772919988.0614974,0.0128299094374285,0.9399678685883202,-7.388435495006825,0.7559224249370572,1.018439178882427,9.791205148449832,0.0009496019654728859,-0.0005368127263877628,-0.001090830782496456,13.853838868230568,8.250524141719975,-21.5
1772919988.0926876,0.0128299094374285,0.9399678685883202,-7.388435495006825,0.7558025241079425,1.0228942282177564,9.790802012830973,0.0009496019654728859,-0.0005368127263877628,-0.001090830782496456,13.853838868230568,8.250524141719975,-21.5
1772919988.1090422,0.0128299094374285,0.9399678685883202,-7.388435495006825,0.7558025241079425,1.0228942282177564,9.790802012830973,0.0009496019654728859,-0.0005368127263877628,-0.001090830782496456,13.853838868230568,8.250524141719975,-21.5
1772919988.1343517,0.0128299094374285,0.9399678685883202,-7.388435495006825,0.7586347547428056,1.0242128386263019,9.790533730579943,0.0,0.0,0.001090830782496456,14.298543383404082,7.640155077805126,-21.5
1772919988.1597006,0.0128299094374285,0.9399678685883202,-7.388435495006825,0.7634315958894766,1.0234441839653907,9.787010080031472,-0.0014864146918606486,-0.0004127892390851231,0.001090830782496456,14.298543383404082,7.640155077805126,-21.5
1772919988.1966574,0.0128299094374285,0.9399678685883202,-7.388435495006825,0.7634315958894766,1.0234441839653907,9.787010080031472,-0.0014864146918606486,-0.0004127892390851231,0.001090830782496456,14.298543383404082,7.640155077805126,-21.5
1772919988.218654,0.0128299094374285,0.9399678685883202,-7.388435495006825,0.7637118167911008,1.0245788280329442,9.78466512995322,-0.0014864146918606486,-0.0004127892390851231,-0.001090830782496456,15.005849786310096,7.240312730863038,-20.6875
1772919988.2443123,0.0128299094374285,0.9399678685883202,-7.388435495006825,0.7637118167911008,1.0245788280329442,9.78466512995322,-0.0014864146918606486,-0.0004127892390851231,-0.001090830782496456,15.005849786310096,7.240312730863038,-20.6875
1772919988.2828608,0.0128299094374285,0.9399678685883202,-7.388435495006825,0.766810323968118,1.0236877458271418,9.783104591870952,-0.00041278923908512317,0.0014864146918606486,-0.002181661564992912,15.005849786310096,7.240312730863038,-20.6875
1772919988.3187666,0.0128299094374285,0.9399678685883202,-7.388435495006825,0.7659603225845709,1.0247409157311753,9.782066071209554,0.002560040144636174,0.002311993170030895,0.0,14.624992492437627,7.455612456139547,-22.25
1772919988.3430512,0.0128299094374285,0.9399678685883202,-7.388435495006825,0.7666605042982624,1.0208835900824174,9.78137494731043,-0.0014864146918606486,-0.0004127892390851231,0.0,14.624992492437627,7.455612456139547,-22.25
1772919988.364534,0.0128299094374285,0.9399678685883202,-7.388435495006825,0.7675067944258319,1.0257868047047922,9.780915012075923,-0.0005368127263877628,-0.0009496019654728859,-0.002181661564992912,14.624992492437627,7.455612456139547,-22.25
1772919988.3932931,0.0128299094374285,0.9399678685883202,-7.388435495006825,0.7631314655781857,1.0203137693717097,9.780608930315172,0.0,0.0,-0.001090830782496456,13.811202733932953,7.413083301987307,-22.25
1772919988.4228745,0.0128299094374285,0.9399678685883202,-7.388435495006825,0.757307709808444,1.0183177006533084,9.77706012461523,0.0010736254527755255,0.0018992039309457718,-0.001090830782496456,13.811202733932953,7.413083301987307,-22.25
1772919988.445099,0.0128299094374285,0.9399678685883202,-7.388435495006825,0.757307709808444,1.0183177006533084,9.77706012461523,0.0010736254527755255,0.0018992039309457718,-0.001090830782496456,13.811202733932953,7.413083301987307,-22.25
1772919988.466479,0.0128299094374285,0.9399678685883202,-7.388435495006825,0.7546979135385998,1.0124311407635476,9.774698434064677,0.0014864146918606486,0.0004127892390851231,-0.001090830782496456,15.758125337592912,7.17402551533743,-20.6875
1772919988.4840133,0.0128299094374285,0.9399678685883202,-7.388435495006825,0.752961123274353,1.0085137009140943,9.776471867092415,-0.00041278923908512317,0.0014864146918606486,0.0,15.758125337592912,7.17402551533743,-20.6875
1772919988.5011833,0.0128299094374285,0.9399678685883202,-7.388435495006825,0.7567438342285788,1.0146427583467301,9.787687402083787,0.0010736254527755255,0.0018992039309457718,-0.002181661564992912,15.758125337592912,7.17402551533743,-20.6875
1772919988.5165253,0.0128299094374285,0.9399678685883202,-7.388435495006825,0.7567438342285788,1.0146427583467301,9.787687402083787,0.0010736254527755255,0.0018992039309457718,-0.002181661564992912,15.758125337592912,7.17402551533743,-20.6875
1772919988.5333626,0.0128299094374285,0.9399678685883202,-7.388435495006825,0.759261186112966,1.0187215776020917,9.785115880212851,-0.0009496019654728859,0.0005368127263877628,0.001090830782496456,13.853838868230568,8.250524141719975,-21.5
1772919988.5532315,0.0128299094374285,0.9399678685883202,-7.388435495006825,0.7609364556713626,1.0214359862531384,9.780059449426206,0.004046454836496823,0.002724782409116018,-0.001090830782496456,13.853838868230568,8.250524141719975,-21.5
1772919988.573567,0.0128299094374285,0.9399678685883202,-7.388435495006825,0.7649633521457473,1.021596219730524,9.776694451221728,0.0,0.0,0.001090830782496456,13.853838868230568,8.250524141719975,-21.5
1772919988.6230726,0.0128299094374285,0.9399678685883202,-7.388435495006825,0.7647311834688103,1.0233490284777536,9.781145305920779,0.0,0.0,-0.002181661564992912,13.484753624899408,7.597625923652886,-21.0625
1772919988.6448717,0.0128299094374285,0.9399678685883202,-7.388435495006825,0.7629305026498484,1.0216034798216191,9.784107300003692,0.0005368127263877628,0.0009496019654728859,-0.001090830782496456,13.484753624899408,7.597625923652886,-21.0625
1772919988.658706,0.0128299094374285,0.9399678685883202,-7.388435495006825,0.7617321696797519,1.0204418366900179,9.786078473978229,0.0005368127263877628,0.0009496019654728859,-0.002181661564992912,13.484753624899408,7.597625923652886,-21.0625
1772919988.6774583,0.0128299094374285,0.9399678685883202,-7.388435495006825,0.7617321696797519,1.0204418366900179,9.786078473978229,0.0005368127263877628,0.0009496019654728859,-0.002181661564992912,13.484753624899408,7.597625923652886,-21.0625
1772919988.693758,0.0128299094374285,0.9399678685883202,-7.388435495006825,0.7625808676323635,1.0225807994596001,9.794080491653466,-0.0001240234873026396,-0.0024360166573335344,-0.001090830782496456,13.484753624899408,7.597625923652886,-20.6875
1772919988.7210503,0.0128299094374285,0.9399678685883202,-7.388435495006825,0.7631456666392493,1.0240042552889774,9.782680186491344,-0.00041278923908512317,0.0014864146918606486,0.001090830782496456,13.484753624899408,7.597625923652886,-20.6875
1772919988.7581136,0.0128299094374285,0.9399678685883202,-7.388435495006825,0.7651677092270681,1.0278635725396434,9.775093410755705,0.0010736254527755255,0.0018992039309457718,0.001090830782496456,14.452328901458731,7.912196001999746,-21.5
1772919988.7797985,0.0128299094374285,0.9399678685883202,-7.388435495006825,0.7665133559815657,1.0304319050585633,9.770044496253476,-0.0001240234873026396,-0.0024360166573335344,0.0,14.452328901458731,7.912196001999746,-21.5
1772919988.8124094,0.0128299094374285,0.9399678685883202,-7.388435495006825,0.7665133559815657,1.0304319050585633,9.770044496253476,-0.0001240234873026396,-0.0024360166573335344,0.0,14.452328901458731,7.912196001999746,-21.5
1772919988.8443835,0.0128299094374285,0.9399678685883202,-7.388435495006825,0.7674088688648245,1.0321411016597501,9.766684500052314,0.00041278923908512317,-0.0014864146918606486,0.0,14.180287977264111,8.065981520054395,-21.0625
1772919988.8807268,0.0128299094374285,0.9399678685883202,-7.388435495006825,0.7663586475271444,1.030366529607604,9.764448460114057,0.0,0.0,0.0,14.180287977264111,8.065981520054395,-21.0625
1772919988.9055872,0.0128299094374285,0.9399678685883202,-7.388435495006825,0.7663586475271444,1.030366529607604,9.764448460114057,0.0,0.0,0.0,14.180287977264111,8.065981520054395,-21.0625
1772919988.952409,0.0128299094374285,0.9399678685883202,-7.388435495006825,0.7656597369586595,1.0291855717301697,9.76296040051335,-0.0009496019654728859,0.0005368127263877628,0.0,14.225150145495538,6.7483060532335335,-21.875
1772919988.983435,0.0128299094374285,0.9399678685883202,-7.388435495006825,0.7681066430799343,1.0267534822969462,9.768660336886432,0.0010736254527755255,0.0018992039309457718,-0.001090830782496456,14.225150145495538,6.7483060532335335,-21.875
1772919989.0023959,0.0128299094374285,0.9399678685883202,-7.388435495006825,0.7713812069278647,1.0280469772446141,9.772453580870257,0.00041278923908512317,-0.0014864146918606486,0.002181661564992912,13.626660112267373,7.0866341929537615,-22.6875
1772919989.0557828,0.0128299094374285,0.9399678685883202,-7.388435495006825,0.771914217431433,1.0259957603857428,9.774977942368182,0.0,0.0,-0.001090830782496456,13.626660112267373,7.0866341929537615,-22.6875
1772919989.0896406,0.0128299094374285,0.9399678685883202,-7.388435495006825,0.7647987082149679,1.025011025498408,9.773312765038765,0.0018992039309457718,-0.0010736254527755255,-0.001090830782496456,14.452328901458731,7.912196001999746,-21.5
1772919989.150194,0.0128299094374285,0.9399678685883202,-7.388435495006825,0.7629754396141154,1.0227095202731415,9.772204608127288,-0.0009496019654728859,0.0005368127263877628,0.001090830782496456,14.452328901458731,7.912196001999746,-21.5
1772919989.1860054,0.0128299094374285,0.9399678685883202,-7.388435495006825,0.7634082498854472,1.0240899175524834,9.774812253788943,-0.0010736254527755255,-0.0018992039309457718,-0.002181661564992912,14.636871523124311,8.238645111033291,-21.0625
1772919989.2047622,0.0128299094374285,0.9399678685883202,-7.388435495006825,0.7634082498854472,1.0240899175524834,9.774812253788943,-0.0010736254527755255,-0.0018992039309457718,-0.002181661564992912,14.636871523124311,8.238645111033291,-21.0625
1772919989.259057,0.0128299094374285,0.9399678685883202,-7.388435495006825,0.7636962802862112,1.0250085565218374,9.776547612847464,-0.0014864146918606486,-0.0004127892390851231,0.0,14.636871523124311,8.238645111033291,-21.0625
1772919989.3052726,0.0128299094374285,0.9399678685883202,-7.388435495006825,0.7638879613004091,1.0256199004940731,9.777702474915678,-0.002147250905551051,-0.0037984078618915436,0.001090830782496456,15.344177926030325,7.838802764091203,-21.5
1772919989.325791,0.0128299094374285,0.9399678685883202,-7.388435495006825,0.7640155228741407,1.026026743078436,9.7751259110141,0.0014864146918606486,0.0004127892390851231,0.001090830782496456,15.344177926030325,7.838802764091203,-21.5
1772919989.3472633,0.0128299094374285,0.9399678685883202,-7.388435495006825,0.7591618882026393,1.0175614223818235,9.773411236519706,-0.0009496019654728859,0.0005368127263877628,0.002181661564992912,15.344177926030325,7.838802764091203,-21.5
1772919989.367261,0.0128299094374285,0.9399678685883202,-7.388435495006825,0.7604900470026205,1.0131936941613606,9.772270139797856,0.0,0.0,0.0,14.083243658127573,7.259297783932658,-21.875
1772919989.3837838,0.0128299094374285,0.9399678685883202,-7.388435495006825,0.7604900470026205,1.0131936941613606,9.772270139797856,0.0,0.0,0.0,14.083243658127573,7.259297783932658,-21.875
1772919989.4074082,0.0128299094374285,0.9399678685883202,-7.388435495006825,0.758461898550243,1.011933194979318,9.77485586438367,-0.0024360166573335344,0.00012402348730263966,-0.001090830782496456,14.083243658127573,7.259297783932658,-21.875
1772919989.4299982,0.0128299094374285,0.9399678685883202,-7.388435495006825,0.7604045387269975,1.0169183934488852,9.776576635211091,0.0001240234873026396,0.0024360166573335344,0.0,14.083243658127573,7.259297783932658,-21.875
1772919989.450888,0.0128299094374285,0.9399678685883202,-7.388435495006825,0.7604045387269975,1.0169183934488852,9.776576635211091,0.0001240234873026396,0.0024360166573335344,0.0,14.083243658127573,7.259297783932658,-21.875
1772919989.4875753,0.0128299094374285,0.9399678685883202,-7.388435495006825,0.7616973440639151,1.0202359873420663,9.781066900681791,-0.0009496019654728859,0.0005368127263877628,0.0,15.005849786310096,7.240312730863038,-20.6875
1772919989.5295634,0.0128299094374285,0.9399678685883202,-7.388435495006825,0.7625576915740518,1.0224438090180263,9.78405512219299,-0.0009496019654728859,0.0005368127263877628,0.0,15.005849786310096,7.240312730863038,-20.6875
1772919989.5708473,0.0128299094374285,0.9399678685883202,-7.388435495006825,0.7647764183892909,1.0268251129776524,9.782698638520753,0.0006608362136904024,0.0033856186228064205,-0.002181661564992912,14.624992492437627,7.455612456139547,-21.0625
1772919989.6055503,0.0128299094374285,0.9399678685883202,-7.388435495006825,0.7658726292813798,1.0222706000679391,9.781795913789793,-0.0005368127263877628,-0.0009496019654728859,0.0,14.624992492437627,7.455612456139547,-21.0625
1772919989.6261244,0.0128299094374285,0.9399678685883202,-7.388435495006825,0.7658726292813798,1.0222706000679391,9.781795913789793,-0.0005368127263877628,-0.0009496019654728859,0.0,14.624992492437627,7.455612456139547,-21.0625
1772919989.6560302,0.0128299094374285,0.9399678685883202,-7.388435495006825,0.766602145384587,1.0192396226037679,9.787885383980075,0.0016104381791632884,0.002848805896418658,0.0,13.700053350175917,7.978483217525354,-21.5
1772919989.671308,0.0128299094374285,0.9399678685883202,-7.388435495006825,0.7670876302020426,1.0172225409595985,9.791937858367868,0.0,0.0,-0.001090830782496456,13.700053350175917,7.978483217525354,-21.5
1772919989.6900332,0.0128299094374285,0.9399678685883202,-7.388435495006825,0.7674107149248385,1.0158801956576822,9.79463473480384,0.0,0.0,0.0,13.700053350175917,7.978483217525354,-21.5
1772919989.7178683,0.0128299094374285,0.9399678685883202,-7.388435495006825,0.7676257241987664,1.0149868798542365,9.793084364238576,0.0005368127263877628,0.0009496019654728859,0.0,14.083243658127573,7.259297783932658,-22.25
1772919989.7399385,0.0128299094374285,0.9399678685883202,-7.388435495006825,0.7677688104687544,1.0143923881660346,9.792052609946166,0.0020232274182484114,0.001362391204558009,0.002181661564992912,14.083243658127573,7.259297783932658,-22.25
1772919989.777494,0.0128299094374285,0.9399678685883202,-7.388435495006825,0.7677688104687544,1.0143923881660346,9.792052609946166,0.0020232274182484114,0.001362391204558009,0.002181661564992912,14.083243658127573,7.259297783932658,-22.25
1772919989.8165975,0.0128299094374285,0.9399678685883202,-7.388435495006825,0.767864032783053,1.0139967605884437,9.784675765575379,0.0013623912045580091,-0.0020232274182484114,0.0,14.298543383404082,7.640155077805126,-21.5
1772919989.8345244,0.0128299094374285,0.9399678685883202,-7.388435495006825,0.7679274021695159,1.0137334748550066,9.77976655805137,0.0010736254527755255,0.0018992039309457718,0.002181661564992912,14.298543383404082,7.640155077805126,-21.5
1772919989.850517,0.0128299094374285,0.9399678685883202,-7.388435495006825,0.7679695737883245,1.0135582611404985,9.779844646990904,0.0,0.0,0.001090830782496456,14.298543383404082,7.640155077805126,-21.5
1772919989.864996,0.0128299094374285,0.9399678685883202,-7.388435495006825,0.7679695737883245,1.0135582611404985,9.779844646990904,0.0,0.0,0.001090830782496456,14.298543383404082,7.640155077805126,-21.5
1772919989.8970747,-56.96438425264865,2.5300021385779896,6.500609339435391,0.7679976385295537,1.0134416583707588,9.783241726015174,-0.0005368127263877628,-0.0009496019654728859,-0.002181661564992912,14.778778010492276,7.727653380334168,-21.5
1772919989.9169712,0.0128299094374285,0.9399678685883202,-7.388435495006825,0.7680163153013381,1.0133640605300354,9.782157332450646,0.0005368127263877628,0.0009496019654728859,-0.002181661564992912,14.778778010492276,7.727653380334168,-21.5
1772919989.9412472,0.0128299094374285,0.9399678685883202,-7.388435495006825,0.7680287444843273,1.0133124200338584,9.788125904061562,0.0009496019654728859,-0.0005368127263877628,0.0,14.778778010492276,7.727653380334168,-21.5
1772919989.9589303,0.0128299094374285,0.9399678685883202,-7.388435495006825,0.7680287444843273,1.0133124200338584,9.788125904061562,0.0009496019654728859,-0.0005368127263877628,0.0,14.778778010492276,7.727653380334168,-21.5
1772919989.9805205,0.0128299094374285,0.9399678685883202,-7.388435495006825,0.7680370159667637,1.013278053860515,9.792097921795312,0.0014864146918606486,0.0004127892390851231,0.0,14.963320632157856,8.054102489367711,-21.875
1772919989.9939032,0.0128299094374285,0.9399678685883202,-7.388435495006825,0.7651304972486677,1.0149013587140048,9.794741255226779,-0.0009496019654728859,0.0005368127263877628,0.001090830782496456,14.963320632157856,8.054102489367711,-21.875
1772919990.013331,0.0128299094374285,0.9399678685883202,-7.388435495006825,0.7651304972486677,1.0149013587140048,9.794741255226779,-0.0009496019654728859,0.0005368127263877628,0.001090830782496456,14.963320632157856,8.054102489367711,-21.875
1772919990.0406632,0.0128299094374285,0.9399678685883202,-7.388435495006825,0.7631962415097162,1.0159816499604988,9.79315525239013,-0.00041278923908512317,0.0014864146918606486,0.002181661564992912,14.963320632157856,8.054102489367711,-21.875
1772919990.0759618,0.0128299094374285,0.9399678685883202,-7.388435495006825,0.7631962415097162,1.0159816499604988,9.79315525239013,-0.00041278923908512317,0.0014864146918606486,0.002181661564992912,14.963320632157856,8.054102489367711,-21.875
1772919990.1028666,0.0128299094374285,0.9399678685883202,-7.388435495006825,0.7619090159224964,1.0167005717173965,9.788754673511834,-0.0005368127263877628,-0.0009496019654728859,0.0,13.853838868230568,8.250524141719975,-21.875
1772919990.1346395,0.0128299094374285,0.9399678685883202,-7.388435495006825,0.7626985568314081,1.0200910294129888,9.785826137426014,0.002560040144636174,0.002311993170030895,0.001090830782496456,13.853838868230568,8.250524141719975,-21.875
1772919990.1495645,0.0128299094374285,0.9399678685883202,-7.388435495006825,0.7599316371706298,1.0165232945409934,9.783877229374793,-0.0005368127263877628,-0.0009496019654728859,-0.001090830782496456,15.159635304364745,7.512353655057659,-21.875
1772919990.168988,0.0128299094374285,0.9399678685883202,-7.388435495006825,0.7613826333608089,1.0199730534324083,9.785925364544754,-0.0014864146918606486,-0.0004127892390851231,-0.001090830782496456,15.159635304364745,7.512353655057659,-21.875
1772919990.2011588,0.0128299094374285,0.9399678685883202,-7.388435495006825,0.7613826333608089,1.0199730534324083,9.785925364544754,-0.0014864146918606486,-0.0004127892390851231,-0.001090830782496456,15.159635304364745,7.512353655057659,-21.875
1772919990.219883,0.0128299094374285,0.9399678685883202,-7.388435495006825,0.7636141032559879,1.0177106309830997,9.787288375621195,0.0014864146918606486,0.0004127892390851231,-0.001090830782496456,15.159635304364745,7.512353655057659,-21.875
1772919990.2603786,0.0128299094374285,0.9399678685883202,-7.388435495006825,0.7667452967020321,1.0191170374132583,9.788195444266735,-0.0009496019654728859,0.0005368127263877628,0.0,13.700053350175917,7.978483217525354,-21.875
1772919990.2842443,0.0128299094374285,0.9399678685883202,-7.388435495006825,0.7667452967020321,1.0191170374132583,9.788195444266735,-0.0009496019654728859,0.0005368127263877628,0.0,13.700053350175917,7.978483217525354,-21.875
1772919990.3335836,0.0128299094374285,0.9399678685883202,-7.388435495006825,0.7659170476653929,1.0216991603398944,9.78879908831772,0.0,0.0,-0.002181661564992912,13.700053350175917,7.978483217525354,-21.875
1772919990.3735015,0.0128299094374285,0.9399678685883202,-7.388435495006825,0.7653658571836576,1.0234175343033676,9.789200806690506,0.0009496019654728859,-0.0005368127263877628,-0.001090830782496456,13.853838868230568,8.250524141719975,-22.25
1772919990.3964963,0.0128299094374285,0.9399678685883202,-7.388435495006825,0.7649990460752637,1.024561092980564,9.789468145780106,0.0016104381791632884,0.002848805896418658,-0.001090830782496456,13.853838868230568,8.250524141719975,-22.25
1772919990.4270837,0.0128299094374285,0.9399678685883202,-7.388435495006825,0.7649990460752637,1.024561092980564,9.789468145780106,0.0016104381791632884,0.002848805896418658,-0.001090830782496456,13.853838868230568,8.250524141719975,-22.25
1772919990.4694493,0.0128299094374285,0.9399678685883202,-7.388435495006825,0.7631087622222217,1.022410095208592,9.786300945250542,-0.0010736254527755255,-0.0018992039309457718,0.0,13.898701036461995,6.9328486748991125,-21.875
1772919990.4998667,0.0128299094374285,0.9399678685883202,-7.388435495006825,0.7618507994338765,1.020978630219564,9.784193208678065,0.0,0.0,-0.001090830782496456,13.898701036461995,6.9328486748991125,-21.875
1772919990.5291207,0.0128299094374285,0.9399678685883202,-7.388435495006825,0.7610136392505977,1.0200260062598776,9.782790533534042,-0.00041278923908512317,0.0014864146918606486,-0.002181661564992912,14.180287977264111,8.065981520054395,-21.0625
1772919990.5593684,0.0128299094374285,0.9399678685883202,-7.388435495006825,0.7604565185003178,1.019392045656213,9.781857068894602,-0.0008255784781702463,0.002972829383721297,0.001090830782496456,14.180287977264111,8.065981520054395,-21.0625
1772919990.5916874,0.0128299094374285,0.9399678685883202,-7.388435495006825,0.7646439593196664,1.0202360000955828,9.78123585860454,0.0018992039309457718,-0.0010736254527755255,-0.001090830782496456,14.180287977264111,8.065981520054395,-21.0625
1772919990.613144,0.0128299094374285,0.9399678685883202,-7.388435495006825,0.7646439593196664,1.0202360000955828,9.78123585860454,0.0018992039309457718,-0.0010736254527755255,-0.001090830782496456,14.180287977264111,8.065981520054395,-21.0625
1772919990.6618276,0.0128299094374285,0.9399678685883202,-7.388435495006825,0.770342677705423,1.01915146718944,9.780822450095876,-0.0005368127263877628,-0.0009496019654728859,0.001090830782496456,14.409692767161118,7.074755162267079,-21.5
1772919990.6949124,0.0128299094374285,0.9399678685883202,-7.388435495006825,0.7757812862902431,1.0213417459526872,9.780547331351436,0.0,0.0,0.001090830782496456,14.409692767161118,7.074755162267079,-21.5
1772919990.7223215,0.0128299094374285,0.9399678685883202,-7.388435495006825,0.7757812862902431,1.0213417459526872,9.780547331351436,0.0,0.0,0.001090830782496456,14.409692767161118,7.074755162267079,-21.5
1772919990.7757819,0.0128299094374285,0.9399678685883202,-7.388435495006825,0.7719303977977298,1.0231796790212615,9.777019131192969,0.0,0.0,-0.002181661564992912,14.636871523124311,8.238645111033291,-21.5
1772919990.8115904,0.0128299094374285,0.9399678685883202,-7.388435495006825,0.767662210811504,1.0252167782569557,9.775334734881431,0.00041278923908512317,-0.0014864146918606486,-0.001090830782496456,14.778778010492276,7.727653380334168,-21.0625
1772919990.8556023,0.0128299094374285,0.9399678685883202,-7.388435495006825,0.7665272437626447,1.0257584697328048,9.773550206470698,-0.0001240234873026396,-0.0024360166573335344,0.0,14.778778010492276,7.727653380334168,-21.0625
1772919990.8758235,0.0128299094374285,0.9399678685883202,-7.388435495006825,0.7665272437626447,1.0257584697328048,9.773550206470698,-0.0001240234873026396,-0.0024360166573335344,0.0,14.778778010492276,7.727653380334168,-21.0625
1772919990.899549,0.0128299094374285,0.9399678685883202,-7.388435495006825,0.7657719358700416,1.0261189593588924,9.769017511040525,-0.0020232274182484114,-0.001362391204558009,0.001090830782496456,14.409692767161118,7.074755162267079,-22.0
1772919990.913883,0.0128299094374285,0.9399678685883202,-7.388435495006825,0.7636231117469017,1.0234468378808617,9.76600105286527,0.0024360166573335344,-0.00012402348730263966,0.001090830782496456,14.409692767161118,7.074755162267079,-22.0
1772919990.9382582,0.006669586649803246,0.931023575952695,-7.3836269694479215,0.7634589414361946,1.0171103724315715,9.767338745353005,-0.008959206928341096,0.006317729229350514,-0.016362461737446838,14.409692767161118,7.074755162267079,-22.0
1772919990.9661403,0.006669586649803246,0.931023575952695,-7.3836269694479215,0.7634589414361946,1.0171103724315715,9.767338745353005,-0.008959206928341096,0.006317729229350514,-0.016362461737446838,14.409692767161118,7.074755162267079,-22.0
1772919990.9909575,-0.02903024514004379,0.9305191206358854,-7.390804519812189,0.7633496879283217,1.0128935254580258,9.8050251935411,-0.0009496019654728859,0.0005368127263877628,-0.014180800172453928,15.159635304364745,7.512353655057659,-21.0625
1772919991.0291326,0.00017019075183781701,0.9256240467321505,-7.392320471057724,0.7511236936482341,1.0361706034943747,9.830105103825067,-0.00032948452895968856,0.012716896013055435,0.018544123302439753,15.159635304364745,7.512353655057659,-21.0625
1772919991.055552,0.00017019075183781701,0.9256240467321505,-7.392320471057724,0.7511236936482341,1.0361706034943747,9.830105103825067,-0.00032948452895968856,0.012716896013055435,0.018544123302439753,15.159635304364745,7.512353655057659,-21.0625
1772919991.0786104,-0.0002514471828324385,0.9323747108126909,-7.39054800328056,0.7429874310281406,1.0516612389055657,9.816689498592218,-0.0017344616664659277,-0.005284822553752192,-0.007635815477475192,14.364830598929691,8.39243062908794,-21.875
1772919991.0993097,-0.0002514471828324385,0.9323747108126909,-7.39054800328056,0.7260496130367954,1.041585920649165,9.807761563171887,0.0009496019654728859,-0.0005368127263877628,-0.001090830782496456,14.364830598929691,8.39243062908794,-21.875
1772919991.1184158,-0.0002514471828324385,0.9323747108126909,-7.39054800328056,0.7260496130367954,1.041585920649165,9.807761563171887,0.0009496019654728859,-0.0005368127263877628,-0.001090830782496456,14.364830598929691,8.39243062908794,-21.875
1772919991.136977,-0.0005029832331305226,0.9373532149287174,-7.382023956638089,0.7409858940467099,1.0200653324766193,9.80182012188123,-0.009083230415643736,0.003881712572016979,0.002181661564992912,13.700053350175917,7.978483217525354,-21.875
1772919991.1508334,-0.0010941002229507297,0.9458760991570248,-7.38700320096536,0.736365705723322,1.0139744972382845,9.791175935657906,-0.012840919500358074,-0.0027655011862932222,-0.008726646259971648,13.700053350175917,7.978483217525354,-21.875
1772919991.1634743,-0.0010941002229507297,0.9458760991570248,-7.38700320096536,0.736365705723322,1.0139744972382845,9.791175935657906,-0.012840919500358074,-0.0027655011862932222,-0.008726646259971648,13.700053350175917,7.978483217525354,-21.875
1772919991.1802151,-0.0010941002229507297,0.9458760991570248,-7.38700320096536,0.7408861108408191,0.9825719236949797,9.784092348629635,-0.0020232274182484114,-0.001362391204558009,-0.006544984694978736,13.700053350175917,7.978483217525354,-21.875
1772919991.196077,-0.0010941002229507297,0.9458760991570248,-7.38700320096536,0.7408861108408191,0.9825719236949797,9.784092348629635,-0.0020232274182484114,-0.001362391204558009,-0.006544984694978736,13.700053350175917,7.978483217525354,-21.875
1772919991.224113,-0.0010941002229507297,0.9458760991570248,-7.38700320096536,0.7264222501667262,0.9715509127393687,9.779378300591173,0.007596815723783087,-0.004294501811102102,0.006544984694978736,14.180287977264111,8.065981520054395,-21.0625
1772919991.2512386,0.005657430156939444,0.9462971441144491,-7.386832811623579,0.7664317013653712,0.9976395245536752,9.74279003720775,-0.002187969682728255,0.004996056801969709,0.008726646259971648,14.180287977264111,8.065981520054395,-21.0625
1772919991.2805738,-0.0010941002229507297,0.9458760991570248,-7.38700320096536,0.7493771947443313,1.0396938316565245,9.718440956643764,0.0026840636319388138,0.00474800982736443,-0.009817477042468103,14.636871523124311,8.238645111033291,-21.5
1772919991.3008335,-0.0010941002229507297,0.9458760991570248,-7.38700320096536,0.7432158707399228,1.0224788457225953,9.72565269747672,0.0005368127263877628,0.0009496019654728859,0.006544984694978736,14.636871523124311,8.238645111033291,-21.5
1772919991.3355525,-0.00961772209561113,0.9452847379708953,-7.386752416117192,0.7391155784414879,1.0110224648875585,9.730452030440627,0.002311993170030895,-0.002560040144636174,-0.009817477042468103,14.636871523124311,8.238645111033291,-21.5
1772919991.3644178,-0.023371686075879576,0.9494227808918819,-7.378569944247117,0.7627256822474175,1.0499907441741434,9.723610597794089,-0.00701928422021812,-0.0035503608872862647,-0.01090830782496456,13.853838868230568,8.250524141719975,-21.0625
1772919991.3989763,-0.023371686075879576,0.9494227808918819,-7.378569944247117,0.7627256822474175,1.0499907441741434,9.723610597794089,-0.00701928422021812,-0.0035503608872862647,-0.01090830782496456,13.853838868230568,8.250524141719975,-21.0625
1772919991.4266346,-0.02303137558453978,0.9458811380464187,-7.365065925603773,0.7638778261018286,1.0841545745249361,9.719057700791627,-0.012344825551147517,0.0069785654430409155,0.004363323129985824,13.853838868230568,8.250524141719975,-21.0625
1772919991.457729,-0.01679033550721009,0.9516144431448708,-7.385151294815791,0.7244659831719783,1.0092588603971901,9.753010155965411,0.004996056801969709,0.002187969682728255,0.006544984694978736,14.180287977264111,8.065981520054395,-21.5
1772919991.4847941,-0.03721699396672262,0.9521216669138401,-7.392415252137959,0.7525962132236107,1.0413468633340839,9.748658113462016,0.007513511013657652,-0.015524983132296888,-0.014180800172453928,14.180287977264111,8.065981520054395,-21.5
1772919991.5110755,-0.03721699396672262,0.9521216669138401,-7.392415252137959,0.7525962132236107,1.0413468633340839,9.748658113462016,0.007513511013657652,-0.015524983132296888,-0.014180800172453928,14.180287977264111,8.065981520054395,-21.5
1772919991.5328166,-0.03907321191460133,0.9808970342963751,-7.392087104815297,0.769545524846404,1.086757911257479,9.745761877791507,-0.004005736059319618,-0.01151924707297727,-0.006544984694978736,14.298543383404082,7.640155077805126,-21.875
1772919991.5539148,-0.06186654858695511,0.9897504205396115,-7.403919569978039,0.7874098030269744,1.1286265495648904,9.78063069408637,-0.0022712743928536908,-0.006234424519225078,-0.022907446432425576,14.298543383404082,7.640155077805126,-21.875
1772919991.5878136,0.07617480939649739,0.8616112926318749,-7.322903045509752,0.8448802651512154,1.169148142048182,9.837286618893595,0.011071340524028014,0.09273337524315416,0.07090400086226964,14.452328901458731,7.912196001999746,-21.0625
1772919991.6092427,0.07617480939649739,0.8616112926318749,-7.322903045509752,0.8448802651512154,1.169148142048182,9.837286618893595,0.011071340524028014,0.09273337524315416,0.07090400086226964,14.452328901458731,7.912196001999746,-21.0625
1772919991.6417725,0.5377125496182524,0.8504184268989422,-7.032614280250908,0.8831262157077711,1.196114809189965,9.955273184940319,-0.13170217313740662,0.12833335891653944,0.28034351110158917,14.452328901458731,7.912196001999746,-21.0625
1772919991.6705873,2.145660869701796,1.1315260411110737,-6.225898849401862,1.0241796051061873,1.2486190517152806,10.033791926648112,-0.2635765571623772,0.1477475232439374,0.5279620987282847,14.083243658127573,7.259297783932658,-21.0625
1772919991.6905375,2.7885059854929204,1.2019252782729983,-5.939255243513848,1.167939508921871,1.3514220955626686,10.173018176533137,-0.2068484862086093,0.11066672634600457,-0.001090830782496456,14.083243658127573,7.259297783932658,-21.0625
1772919991.7223165,2.7885059854929204,1.2019252782729983,-5.939255243513848,1.167939508921871,1.3514220955626686,10.173018176533137,-0.2068484862086093,0.11066672634600457,-0.001090830782496456,14.083243658127573,7.259297783932658,-21.0625
1772919991.764304,4.980816598056731,1.3516788340085655,-5.4420070556256785,1.3467986722576513,1.4650323046227565,10.466378393011668,-0.10532064630159386,0.09963610459915373,0.6501351463678877,14.638990576912752,4.432298206242419,-25.5
1772919991.7957482,6.200502641293578,1.485632004495295,-5.343894701882996,1.4658274474698447,1.540638629643054,10.66160634002979,-0.030637177025508656,-0.01651343671917595,0.7548549014875475,14.638990576912752,4.432298206242419,-25.5
1772919991.8430316,6.200502641293578,1.485632004495295,-5.343894701882996,1.4658274474698447,1.540638629643054,10.66160634002979,-0.030637177025508656,-0.01651343671917595,0.7548549014875475,14.638990576912752,4.432298206242419,-25.5
1772919991.867627,9.156151236578872,2.1923217170708114,-6.121904268211938,1.5390908540571464,1.6212150083946117,10.533954756467695,0.06861191986556894,-0.149056125580921,0.7755806863549802,12.346312870713511,-1.020399308336673,-30.6875
1772919991.9180868,10.976305040025894,2.580614191248034,-7.339167587623835,1.5840492883172068,1.6885122837222861,10.425588271617507,0.20288160177069584,-0.15979984873176037,0.856302164259718,12.346312870713511,-1.020399308336673,-30.6875
1772919991.9407208,13.001998153077201,2.8680370837772133,-8.044528409934577,1.6081445775041416,1.7365902190089393,10.266498682092356,0.2533363965838325,-0.15699549592406098,0.9086620418195478,11.116028726276317,-3.196726701893636,-35.75
1772919991.9673345,14.43869976432741,3.082580280011803,-8.401291584528744,1.536177511655729,1.6876846825071767,10.0870338798495,0.19673234911736723,-0.1174786823687946,0.856302164259718,11.116028726276317,-3.196726701893636,-35.75
1772919991.981729,14.43869976432741,3.082580280011803,-8.401291584528744,1.536177511655729,1.6876846825071767,10.0870338798495,0.19673234911736723,-0.1174786823687946,0.856302164259718,11.116028726276317,-3.196726701893636,-35.75
1772919992.0094175,15.38012535781047,3.1999025507388206,-8.583915942868908,1.422062625690169,1.619564253523427,9.967602058710078,0.16828687608612888,-0.08134935459210568,0.8639379797371931,11.116028726276317,-3.196726701893636,-35.75
1772919992.0397377,17.988045068619964,3.3975045583227033,-8.914778922231612,1.2975015688941425,1.590187426467334,9.911537297833886,0.11073322665419076,-0.04129572831045155,0.9828385350293068,8.040318365183333,-8.637545185786044,-44.5
1772919992.0728722,-70.88795637805102,3.2679687125577894,7.590328172410005,1.2146075770345626,1.5706374762221644,9.874226825755196,0.09987294863913286,-0.0627237842772428,0.9566585962493919,8.040318365183333,-8.637545185786044,-44.5
1772919992.1045077,21.142643971988548,3.921408930985302,-9.129365825962727,1.1627349017544837,1.5634512493157755,9.625274638981711,0.123033599116619,-0.0971186503874658,0.9457502884244273,8.040318365183333,-8.637545185786044,-44.5
1772919992.1380646,23.352873844110118,4.345198840247284,-9.314765741414929,1.1198584729382148,1.571077642811324,9.275618595759536,0.11683989337457114,-0.10364184065847336,1.0242901047641721,4.976380054631659,-14.94656161302205,-54.0
1772919992.1629333,23.352873844110118,4.345198840247284,-9.314765741414929,1.1198584729382148,1.571077642811324,9.275618595759536,0.11683989337457114,-0.10364184065847336,1.0242901047641721,4.976380054631659,-14.94656161302205,-54.0
1772919992.1776474,25.17371922170409,4.618002127058322,-9.410224019363092,1.0822082916116538,1.5736212262116052,9.042926404909107,0.07708063431201258,-0.07865968949285379,1.1464631524037752,4.976380054631659,-14.94656161302205,-54.0
1772919992.1956632,27.166335239147255,4.951386145905963,-9.349473873539027,0.9843462083188499,1.5280915186093031,8.91148813319147,0.057760977629366196,-0.026387128303125812,1.210822168571066,4.976380054631659,-14.94656161302205,-54.0
1772919992.2105937,27.166335239147255,4.951386145905963,-9.349473873539027,0.9843462083188499,1.5280915186093031,8.91148813319147,0.057760977629366196,-0.026387128303125812,1.210822168571066,4.976380054631659,-14.94656161302205,-54.0
1772919992.2333517,29.232045532392057,5.249420665319088,-9.162390494953673,0.7984249631311389,1.4200586246633817,8.870848995527554,0.0015290006248088802,0.020437735224141163,1.2479104151759457,0.6256303610154282,-19.59480142541322,-61.0625
1772919992.2481978,30.621523530161166,5.449426719169775,-8.97340852454316,0.6549423494396547,1.3132196609817626,8.987643906795865,-0.037528703446882083,0.0400110403487059,1.2675453692608818,0.6256303610154282,-19.59480142541322,-61.0625
1772919992.2783878,32.05153145677683,5.651489346222072,-8.769998978529157,0.571104366022823,1.2355348234892511,9.249350759462846,-0.04623986340061789,0.05120080289272348,1.3035427850832648,0.6256303610154282,-19.59480142541322,-61.0625
1772919992.3033648,32.05153145677683,5.651489346222072,-8.769998978529157,0.571104366022823,1.2355348234892511,9.249350759462846,-0.04623986340061789,0.05120080289272348,1.3035427850832648,0.6256303610154282,-19.59480142541322,-61.0625
1772919992.337246,35.026295267498035,6.025673915929169,-8.227848476812865,0.5153111245905605,1.1838364319344798,9.493761092309331,-0.08265422261754725,0.0843165825085139,1.3537210010781018,-3.289746873744039,-22.837867468454483,-66.25
1772919992.384321,39.645093502127615,6.654871101335007,-7.223970456644168,0.3654922324277028,1.11322732792583,9.656413438576356,-0.11073322665419076,0.04129572831045155,1.090830782496456,-3.289746873744039,-22.837867468454483,-66.25
1772919992.4163523,42.10052854322726,7.060880498721209,-6.689867788375529,0.24831729349645115,1.0761148089111736,9.406729805388128,-0.12031441817481607,0.006613963604217103,1.1224648751888533,-5.073551903032596,-24.342311590874736,-70.5625
1772919992.452277,44.05986362507509,7.3619776219568855,-6.446026101283618,0.2180777601482165,1.1358655177014296,9.240568136650298,0.03125169299470878,-0.05776471194090825,1.1955505376161157,-5.073551903032596,-24.342311590874736,-70.5625
1772919992.4668696,44.05986362507509,7.3619776219568855,-6.446026101283618,0.2180777601482165,1.1358655177014296,9.240568136650298,0.03125169299470878,-0.05776471194090825,1.1955505376161157,-5.073551903032596,-24.342311590874736,-70.5625
1772919992.4826121,46.00692012291072,7.586679909795847,-6.390598049670536,0.19795368850268735,1.175628946942194,9.380872780301685,0.11097940647302502,-0.06524310564470177,1.1704614296186973,-6.211564736637,-26.35541442991493,-73.25
1772919992.5277445,47.895206975508195,7.720331076219458,-6.358000930488378,0.144042751628281,1.1711997897014161,9.490969511882716,0.161891443613966,-0.01508081089488971,1.1301006906663285,-6.211564736637,-26.35541442991493,-73.25
1772919992.6055195,53.646268120349745,7.61915296471752,-6.692896065229144,-0.14178208616814775,1.0380831618524338,9.596271230394972,0.3197827526359255,0.04477736308399522,1.090830782496456,-10.010912599190311,-27.869190608651934,-77.25
1772919992.636547,56.050378948262086,7.229213052956995,-7.001168368063916,-0.2105684149531088,0.967872465628074,9.617589215724855,0.4010450682063637,0.14419493655109472,1.0395617357191225,-11.18678855878858,-30.07627510581983,-79.1875
1772919992.6516309,56.050378948262086,7.229213052956995,-7.001168368063916,-0.2105684149531088,0.967872465628074,9.617589215724855,0.4010450682063637,0.14419493655109472,1.0395617357191225,-11.18678855878858,-30.07627510581983,-79.1875
1772919992.6655822,57.235874789631865,6.937464369489451,-7.162590710177602,-0.22431269209601246,0.9030401048581298,9.668572325604908,0.43792040406263943,0.21607592017525157,1.0133817969392076,-11.18678855878858,-30.07627510581983,-79.1875
1772919992.6825182,57.235874789631865,6.937464369489451,-7.162590710177602,-0.22431269209601246,0.9030401048581298,9.668572325604908,0.43792040406263943,0.21607592017525157,1.0133817969392076,-11.18678855878858,-30.07627510581983,-79.1875
1772919992.7133446,61.949386638633044,3.7220589358672482,-7.128768933073481,-0.12326062577304898,0.8806424358422363,9.725080179969016,0.4132752060490637,0.2788774076953067,0.9872018581592926,-11.86843180682353,-35.21917555035581,-81.5625
1772919992.7504387,61.949386638633044,3.7220589358672482,-7.128768933073481,-0.12326062577304898,0.8806424358422363,9.725080179969016,0.4132752060490637,0.2788774076953067,0.9872018581592926,-11.86843180682353,-35.21917555035581,-81.5625
1772919992.7638035,63.11386427856075,3.0352886510148167,-7.071906588662185,-0.09454500654448152,0.8698012631430183,9.740106361556649,0.3323517107864403,0.31083999145973823,0.9915651812892785,-11.86843180682353,-35.21917555035581,-81.5625
1772919992.7863944,64.85730486290673,2.1363065493324065,-6.912752836727102,-0.09290722250590819,0.87246363476325,9.70661966535462,0.27240089631857484,0.31340376591591645,0.9981101659842572,-11.86843180682353,-35.21917555035581,-81.5625
1772919992.8035367,64.85730486290673,2.1363065493324065,-6.912752836727102,-0.09290722250590819,0.87246363476325,9.70661966535462,0.27240089631857484,0.31340376591591645,0.9981101659842572,-11.86843180682353,-35.21917555035581,-81.5625
1772919992.8241236,66.02027350653944,1.6138558395900011,-6.844407367970802,-0.09675582099734764,0.8654993434440977,9.674299307981117,0.2801624543068378,0.30275081609828663,1.0013826583317467,-10.257718289095362,-39.86307027502472,-82.375
1772919992.855827,67.78531564552661,0.9675814198363583,-6.865887934499868,-0.09058095040996171,0.8559261598935698,9.6527904711911,0.265629659072962,0.3147254383432973,1.0199267816341864,-10.257718289095362,-39.86307027502472,-82.375
1772919992.8892457,70.02508692182502,0.3973349765069806,-6.864247888916309,-0.009487463375256603,0.8905733735084936,9.638476580576794,0.16996417322326374,0.31617673572529376,0.9653852425093635,-8.862197516498327,-43.236591695328755,-82.25
1772919992.9316382,71.8895041481288,-0.06775403797082309,-6.964098876694726,0.09626570453803623,0.9304670599640972,9.67578241017208,0.21042125296514788,0.22814691722078484,0.7832165018324554,-8.862197516498327,-43.236591695328755,-82.25
1772919992.9740765,73.48980854512325,-0.5489731591784067,-7.094911765620103,0.19196594499871802,0.954228706444719,9.70060902303432,0.18573160186285284,0.24210404810686667,0.681769239060285,-5.969231663718603,-46.882261019972795,-81.5
1772919993.0012927,74.87138271618299,-1.0115072203685636,-7.110243935586144,0.25071486050970565,0.9613057468508129,9.723821079977341,0.14336971672270987,0.24474926011739928,0.5835944686356039,-5.969231663718603,-46.882261019972795,-81.5
1772919993.0308323,74.87138271618299,-1.0115072203685636,-7.110243935586144,0.25071486050970565,0.9613057468508129,9.723821079977341,0.14336971672270987,0.24474926011739928,0.5835944686356039,-5.969231663718603,-46.882261019972795,-81.5
1772919993.088569,76.35125861298164,-1.5258435015592593,-7.007244657720014,0.30791953425138063,0.9980476944551951,9.739268444577258,0.06380674550887347,0.2458692058146651,0.49414634447089456,-5.155548885359302,-48.490962464057894,-80.6875
1772919993.1442444,77.41854628000213,-1.8327798461895313,-6.841629708352109,0.3010366822416135,0.9633730630856313,9.749548493160132,0.054967827756292956,0.19698413040351456,0.4690572364734761,-5.155548885359302,-48.490962464057894,-80.6875
1772919993.1838744,79.43586175092612,-2.1812636741548217,-6.313340542890432,0.3383655283331833,0.9396616962962526,9.833327319924715,-0.09585787680095811,0.21834008459480653,0.5115996369908379,0.5264464389714224,-53.426097126281796,-78.6875
1772919993.2051806,80.17019456170381,-2.241552816227664,-5.887178817950663,0.3582689329427262,0.9151459766794667,9.919187198631603,-0.19342256658160215,0.22086500742957857,0.4134248665661568,0.5264464389714224,-53.426097126281796,-78.6875
1772919993.2440748,81.24457969779904,-2.1220964583275816,-5.126045949604914,0.37645295184864297,0.9075671090248045,9.976325988793347,-0.2651425422528212,0.19374307398149207,0.37088246604879505,1.7967127631909243,-54.862134979387996,-79.875
1772919993.2911541,82.14208607206459,-1.5502885480559812,-4.571979380327004,0.5242081806807944,0.993510842029878,10.106511533051288,-0.2546266860128912,-0.002667259229999572,0.26070855701665296,3.133373283081404,-53.89466668297405,-79.0625
1772919993.3311615,82.14208607206459,-1.5502885480559812,-4.571979380327004,0.5242081806807944,0.993510842029878,10.106511533051288,-0.2546266860128912,-0.002667259229999572,0.26070855701665296,3.133373283081404,-53.89466668297405,-79.0625
1772919993.3467212,82.59061707564132,-0.9460872966689438,-4.196369480770261,0.6409826196806626,1.1031621213569982,10.141129581287556,-0.3523654538368702,-0.13788094163328626,0.20943951023931956,3.133373283081404,-53.89466668297405,-79.0625
1772919993.359874,82.76983763371234,-0.5641873644308636,-4.002795083454998,0.7302179304848011,1.1965179859449608,10.18758328763109,-0.2932865380916652,-0.21513565398863382,0.17889624832941878,3.133373283081404,-53.89466668297405,-79.0625
1772919993.3724272,82.76983763371234,-0.5641873644308636,-4.002795083454998,0.7302179304848011,1.1965179859449608,10.18758328763109,-0.2932865380916652,-0.21513565398863382,0.17889624832941878,3.133373283081404,-53.89466668297405,-79.0625
1772919993.386347,82.94271041492429,-0.1814903121455649,-3.944140208479993,0.8027724342648549,1.281941457352983,10.218497710280811,-0.18313271009681048,-0.2774059302496143,0.17562375598192942,2.9607096921025096,-53.43808313711385,-78.6875
1772919993.4089189,83.1770823585792,0.4032731514971035,-4.429669836564006,0.837887244779932,1.3154936369542503,10.202274684436958,-0.14246456784595624,-0.2941304294777604,0.16689710972195776,2.9607096921025096,-53.43808313711385,-78.6875
1772919993.4317946,83.1770823585792,0.4032731514971035,-4.429669836564006,0.837887244779932,1.3154936369542503,10.202274684436958,-0.14246456784595624,-0.2941304294777604,0.16689710972195776,2.9607096921025096,-53.43808313711385,-78.6875
1772919993.4854903,83.51052825107345,1.043553514327372,-4.533189580182478,0.8297286967517367,1.3364315224538308,10.12792131952188,-0.1325520246406002,-0.24334615013566407,0.17453292519943295,1.3473422198590346,-53.24399449884078,-81.5
1772919993.5114434,84.11437933464022,1.64882518846098,-4.623961709971347,0.6997066078105629,1.2863066645911871,10.051679092093847,-0.06186122133343742,-0.16927906398455,0.24216443371421323,1.3473422198590346,-53.24399449884078,-81.5
1772919993.554173,84.75269998852464,2.0098717259859438,-4.831729271685057,0.6131783600621135,1.2529491316149484,9.87382649654384,-0.03448563944343253,-0.1496687743943501,0.2552544031041707,0.18345227109282206,-53.01681574287758,-83.5
1772919993.5758204,84.92250395223175,2.200459909597642,-4.880479524920436,0.5730669175529345,1.2208730150995935,9.755467580948979,-0.03320655294899997,-0.16292248313379332,0.14944381720201447,0.18345227109282206,-53.01681574287758,-83.5
1772919993.6034558,85.08659879281932,2.3400215175411136,-5.020604068424845,0.5489048969158565,1.190410320961897,9.770364172581262,-0.023419900386717596,-0.14339363109794784,0.1090830782496456,0.18345227109282206,-53.01681574287758,-83.5
1772919993.625147,85.08659879281932,2.3400215175411136,-5.020604068424845,0.5489048969158565,1.190410320961897,9.770364172581262,-0.023419900386717596,-0.14339363109794784,0.1090830782496456,0.18345227109282206,-53.01681574287758,-83.5
1772919993.6613238,85.17790453586097,2.293568691533184,-5.227507520128166,0.5271261625781731,1.146461224907129,9.780277687906715,0.007261729727510316,-0.07803583774479855,0.055632369907319255,-2.740591625733955,-54.3792463977845,-86.5625
1772919993.698256,85.21777686805243,2.147772080521572,-5.431303484406321,0.5068086115663303,1.120505942742161,9.753423904541387,0.022499814263795753,-0.03778048473302941,0.02399827721492203,-2.740591625733955,-54.3792463977845,-86.5625
1772919993.7193742,85.2480541096419,2.0335206996011137,-5.572857687741917,0.4854369595587425,1.096143097667052,9.735553011688177,0.015978491148559214,-0.002767368342064249,0.008726646259971648,-2.894377143788604,-54.65128732197912,-89.5
1772919993.7703824,85.29231670181171,1.9361558008315476,-5.64958354941659,0.48932229062218796,1.1119621526902266,9.72366013212532,0.05219112363537357,0.03690858601036888,0.011999138607461015,-2.894377143788604,-54.65128732197912,-89.5
1772919993.7982347,85.29657163670632,1.8380011570827515,-5.6862441916088535,0.5015295260553502,1.1055226114161767,9.722435777043046,0.04744311380800914,0.039592649642307694,-0.006544984694978736,-2.894377143788604,-54.65128732197912,-89.5
1772919993.8254812,85.29657163670632,1.8380011570827515,-5.6862441916088535,0.5015295260553502,1.1055226114161767,9.722435777043046,0.04744311380800914,0.039592649642307694,-0.006544984694978736,-2.894377143788604,-54.65128732197912,-89.5
1772919993.856289,85.38326156224883,1.5674106385217037,-6.023953322092623,0.5204158769407462,1.1066808882085537,9.721620982412734,0.11474269702505242,0.027862340060360303,0.04363323129985824,-3.492867177016771,-54.31295918225889,-87.5
1772919993.8787534,85.48190277272802,1.4232403141054102,-6.217990066689709,0.5785665170327485,1.1201101898681252,9.734459192517392,0.0785319316940091,0.017005796356844457,0.037088246604879506,-3.492867177016771,-54.31295918225889,-87.5
1772919993.892684,85.51589314683339,1.3477133616962507,-6.325903200366061,0.6172651184287634,1.1290472401074407,9.773108883295713,0.10730875640997815,-0.0030210167839826037,0.028361600344907856,-3.492867177016771,-54.31295918225889,-87.5
1772919993.9093633,85.60458348859838,1.2297585984762383,-6.4792670344384335,0.6119967373002692,1.1141053900254965,9.808865155885309,0.11214007094746802,0.005525400905273369,0.04145156973486533,-3.478762112396271,-55.68504283391868,-87.75
1772919993.945486,85.64510070363194,1.1542681498136398,-6.562289987472925,0.5911434158107303,1.0870699429424608,9.832660555869948,0.07196615549005331,0.003174556113836291,0.019634954084936207,-3.478762112396271,-55.68504283391868,-87.75
1772919993.9648306,85.6588402024313,1.07287421268326,-6.625817810228179,0.5743537400090475,1.0707243300723874,9.84849612874769,0.044716464243122096,0.014819693829887228,0.014180800172453928,-3.478762112396271,-55.68504283391868,-87.75
1772919993.9841993,85.6588402024313,1.07287421268326,-6.625817810228179,0.5743537400090475,1.0707243300723874,9.84849612874769,0.044716464243122096,0.014819693829887228,0.014180800172453928,-3.478762112396271,-55.68504283391868,-87.75
1772919994.0010335,85.68466239672212,0.9901103742894022,-6.680053985651196,0.5631803983159954,1.0598465072998133,9.79882251487114,0.0380692504848119,0.018577382914601568,0.014180800172453928,-2.991528443070515,-57.1092016563382,-87.5
1772919994.048243,85.68361459456091,0.9284063398040104,-6.7902485823083,0.5694192595993144,1.0564049821758208,9.76576527972692,0.06023958021964796,-0.006486205805372414,-0.001090830782496456,-2.991528443070515,-57.1092016563382,-87.5
1772919994.0724206,85.68361459456091,0.9284063398040104,-6.7902485823083,0.5694192595993144,1.0564049821758208,9.76576527972692,0.06023958021964796,-0.006486205805372414,-0.001090830782496456,-2.991528443070515,-57.1092016563382,-87.5
1772919994.0994215,85.56706507171074,0.8516748694388181,-6.887958364487715,0.5910432918742696,1.0442376347024314,9.72369538876804,0.02295705659160013,0.009577457209083267,-0.025089107997418487,-4.110556223605301,-58.199698367195865,-87.5
1772919994.1183603,85.47660901660844,0.838182123103654,-6.875231598423016,0.616957069902666,1.05652456395788,9.672282564335141,-0.017588929327722505,-8.143755435440887e-05,-0.08508480103472356,-4.110556223605301,-58.199698367195865,-87.5
1772919994.1442568,85.32275442992182,0.8456374903652053,-6.836898351522766,0.6152089518465419,1.0446975420612257,9.638067903993928,-0.03769718002290398,-0.011269332942600964,-0.0916297857297023,-4.110556223605301,-58.199698367195865,-87.5
1772919994.1568642,85.32275442992182,0.8456374903652053,-6.836898351522766,0.6152089518465419,1.0446975420612257,9.638067903993928,-0.03769718002290398,-0.011269332942600964,-0.0916297857297023,-4.110556223605301,-58.199698367195865,-87.5
1772919994.1707554,85.23135556739405,0.8477351907246365,-6.8257985462185475,0.5965734590243961,1.0467038420532206,9.665475105349442,-0.01292422421048351,-0.01399598250748801,-0.07853981633974483,-1.8702746286019174,-58.17382125203406,-86.5625
1772919994.1917753,85.13834447429312,0.9565419768985179,-6.700176178919345,0.574294695775626,1.0305668725025003,9.737236079010145,-0.19153829989682458,-0.010763903214535272,-0.0272707695624114,-1.8702746286019174,-58.17382125203406,-86.5625
1772919994.2174582,85.13834447429312,0.9565419768985179,-6.700176178919345,0.574294695775626,1.0305668725025003,9.737236079010145,-0.19153829989682458,-0.010763903214535272,-0.0272707695624114,-1.8702746286019174,-58.17382125203406,-86.5625
1772919994.2683241,85.0206391273372,1.3465886435288115,-6.498785578689108,0.5565564044064026,1.0214740746862119,9.784992205358744,-0.15896680163050603,-0.09057678855874796,-0.0272707695624114,-2.251131922474384,-57.95852152675755,-88.5625
1772919994.2955096,84.85607900359467,1.5780462940790292,-6.489504864865763,0.7044078568971184,0.9443819275853388,9.856914714460682,-0.021929751383314884,-0.08534202056102812,-0.06763150851478027,-2.251131922474384,-57.95852152675755,-88.5625
1772919994.331208,84.85607900359467,1.5780462940790292,-6.489504864865763,0.7044078568971184,0.9443819275853388,9.856914714460682,-0.021929751383314884,-0.08534202056102812,-0.06763150851478027,-2.251131922474384,-57.95852152675755,-88.5625
1772919994.3704941,84.67171855152446,1.7866407220379088,-6.592143139607694,0.706704578111203,0.9474017450779163,9.767628760840859,-0.013549943114309789,-0.11263429774090757,-0.07526732399225546,-2.251131922474384,-57.95852152675755,-88.5625
1772919994.4057457,84.65709922141258,1.9501832555135248,-6.673833671378014,0.7082330204231194,0.9494113998856549,9.845359536096414,-0.002930243450773066,0.019199367506885792,0.03381575425739013,-1.406585060358782,-57.86158418776638,-88.5625
1772919994.4379437,84.69239357582386,1.9518566899366836,-6.647916623585806,0.717481057497653,0.9653089191971844,9.759938918719238,0.008918488151163893,0.002476735434510739,0.028361600344907856,-1.406585060358782,-57.86158418776638,-88.5625
