timestamp,yaw,pitch,roll,ax,ay,az,gx,gy,gz,mx,my,mz
1772913946.696555,0.0,0.0,0.0,-0.0747374986183033,-1.4550332419052654,9.143894429843575,-0.001090830782496456,0.004363323129985824,0.004363323129985824,-13.0625,55.875,-12.5625
1772913946.710634,0.0,0.0,0.0,-0.06980764070183433,-1.4734202365068743,9.323227731752514,0.0,0.003272492347489368,0.0,-13.0625,55.875,-12.5625
1772913946.721877,0.0,0.0,0.0,-0.06980764070183433,-1.4734202365068743,9.323227731752514,0.0,0.003272492347489368,0.0,-13.0625,55.875,-12.5625
1772913946.7329965,-0.035046372588186145,0.4532624843411584,-8.842483737442834,-0.06652687532854552,-1.4856565760180571,9.442572040888669,0.0,-0.001090830782496456,-0.001090830782496456,-13.0625,55.875,-12.5625
1772913946.74419,-0.035046372588186145,0.4532624843411584,-8.842483737442834,-0.06652687532854552,-1.4856565760180571,9.442572040888669,0.0,-0.001090830782496456,-0.001090830782496456,-13.0625,55.875,-12.5625
1772913946.7594674,-0.035046372588186145,0.4532624843411584,-8.842483737442834,-0.06768867432849174,-1.4971448349812002,9.545410127406731,-0.001090830782496456,0.001090830782496456,-0.003272492347489368,-13.0625,55.875,-12.5625
1772913946.7724884,-0.035046372588186145,0.4532624843411584,-8.842483737442834,-0.06846183858481075,-1.5014450312815912,9.6305732837444,-0.002181661564992912,0.002181661564992912,0.002181661564992912,-13.0625,55.875,-12.5625
1772913946.784859,-0.035046372588186145,0.4532624843411584,-8.842483737442834,-0.06846183858481075,-1.5014450312815912,9.6305732837444,-0.002181661564992912,0.002181661564992912,0.002181661564992912,-13.0625,55.875,-12.5625
1772913946.805068,-0.035046372588186145,0.4532624843411584,-8.842483737442834,-0.06846183858481075,-1.5014450312815912,9.6305732837444,-0.002181661564992912,0.002181661564992912,0.002181661564992912,-13.0625,55.875,-12.5625
1772913946.8193514,-0.035046372588186145,0.4532624843411584,-8.842483737442834,-0.0689763707605804,-1.5043067638831613,9.687248412952329,0.0,-0.001090830782496456,0.001090830782496456,-11.25,57.375,-11.375
1772913946.8354466,-0.035046372588186145,0.4532624843411584,-8.842483737442834,-0.0689763707605804,-1.5043067638831613,9.687248412952329,0.0,-0.001090830782496456,0.001090830782496456,-11.25,57.375,-11.375
1772913946.8465376,-0.035046372588186145,0.4532624843411584,-8.842483737442834,-0.0693187861758541,-1.5062112149618583,9.711584631508252,-0.001090830782496456,0.00545415391248228,-0.002181661564992912,-11.25,57.375,-11.375
1772913946.8599837,-0.035046372588186145,0.4532624843411584,-8.842483737442834,-0.0693187861758541,-1.5062112149618583,9.711584631508252,-0.001090830782496456,0.00545415391248228,-0.002181661564992912,-11.25,57.375,-11.375
1772913946.8823771,-0.035046372588186145,0.4532624843411584,-8.842483737442834,-0.06954665980968792,-1.5041334941732993,9.727780113103845,0.0,0.001090830782496456,0.0,-12.0,57.75,-10.1875
1772913946.8950882,-0.035046372588186145,0.4532624843411584,-8.842483737442834,-0.06954665980968792,-1.5041334941732993,9.727780113103845,0.0,0.001090830782496456,0.0,-12.0,57.75,-10.1875
1772913946.9173982,-0.035046372588186145,0.4532624843411584,-8.842483737442834,-0.06969830716748907,-1.5060959059054948,9.73855802519033,0.0,0.003272492347489368,-0.001090830782496456,-12.0,57.75,-10.1875
1772913946.9460971,-0.035046372588186145,0.4532624843411584,-8.842483737442834,-0.07314433849741311,-1.5074018689916955,9.745730605286717,0.0,0.001090830782496456,0.0,-11.25,57.5,-10.5625
1772913946.980761,-0.035046372588186145,0.4532624843411584,-8.842483737442834,-0.07314433849741311,-1.5074018689916955,9.745730605286717,0.0,0.001090830782496456,0.0,-11.25,57.5,-10.5625
1772913947.0087457,-0.035046372588186145,0.4532624843411584,-8.842483737442834,-0.07543763385278533,-1.5082709728369983,9.753848988925213,-0.001090830782496456,0.002181661564992912,0.001090830782496456,-11.25,57.5,-10.5625
1772913947.0424788,-12.57481721908018,0.4566367041624245,-8.840255251190056,-0.07696379629399787,-1.505504240030202,9.755906570841026,-0.001090830782496456,0.001090830782496456,0.002181661564992912,-12.375,58.5,-10.0625
1772913947.0575032,-12.57481721908018,0.4566367041624245,-8.840255251190056,-0.07696379629399787,-1.505504240030202,9.755906570841026,-0.001090830782496456,0.001090830782496456,0.002181661564992912,-12.375,58.5,-10.0625
1772913947.074923,-12.561366233315312,0.4577889083830728,-8.840610431154591,-0.0779794403502733,-1.5036630102537094,9.753930756913983,-0.001090830782496456,0.001090830782496456,-0.001090830782496456,-12.375,58.5,-10.0625
1772913947.109312,-12.561366233315312,0.4577889083830728,-8.840610431154591,-0.07865534012423708,-1.502437692405338,9.752615874816824,0.0,0.003272492347489368,0.0,-12.375,58.5,-10.0625
1772913947.157813,-12.525326029654584,0.4535207589554744,-8.839406114120106,-0.0791051438735148,-1.501622257064944,9.758431058883998,0.0,-0.001090830782496456,0.002181661564992912,-11.25,57.875,-11.0
1772913947.1707575,-12.525326029654584,0.4535207589554744,-8.839406114120106,-0.0791051438735148,-1.501622257064944,9.758431058883998,0.0,-0.001090830782496456,0.002181661564992912,-11.25,57.875,-11.0
1772913947.192182,-12.504777993109702,0.4552053073273888,-8.83967692878072,-0.07068733236274106,-1.5007184577171455,9.771566624199936,0.0,-0.001090830782496456,-0.001090830782496456,-12.0,57.0625,-11.25
1772913947.2623858,-12.469384808519314,0.4571139788041969,-8.84626478226529,-0.0704574120093986,-1.5004781255850619,9.777732794319357,0.0,0.002181661564992912,0.0,-12.0,57.0625,-11.25
1772913947.3139496,-12.441006130773022,0.45924677356638866,-8.845923949587608,-0.07364951428994722,-1.500318187235846,9.77849119994588,-0.002181661564992912,-0.004363323129985824,0.0,-11.25,57.875,-10.1875
1772913947.3302443,-12.441006130773022,0.45924677356638866,-8.845923949587608,-0.07364951428994722,-1.500318187235846,9.77849119994588,-0.002181661564992912,-0.004363323129985824,0.0,-11.25,57.875,-10.1875
1772913947.3676713,-12.434089561870438,0.45293334430882337,-8.845595047090589,-0.07577382269953342,-1.5035568617583905,9.772305687003744,-0.001090830782496456,0.001090830782496456,-0.001090830782496456,-11.25,57.875,-10.1875
1772913947.4035819,-12.434089561870438,0.45293334430882337,-8.845595047090589,-0.07718752621603324,-1.5023670517674597,9.76818929723746,-0.001090830782496456,0.001090830782496456,0.0,-11.6875,57.75,-9.75
1772913947.4182546,-12.434089561870438,0.45293334430882337,-8.845595047090589,-0.07718752621603324,-1.5023670517674597,9.76818929723746,-0.001090830782496456,0.001090830782496456,0.0,-11.6875,57.75,-9.75
1772913947.4381025,-12.419900870821131,0.45399974099187573,-8.84542547437422,-0.07478321840684146,-1.5015752465095435,9.772140109245724,0.001090830782496456,0.0,0.001090830782496456,-11.6875,57.75,-9.75
1772913947.4565678,-12.419900870821131,0.45399974099187573,-8.84542547437422,-0.07318317841770237,-1.5010483089554447,9.774769330503762,-0.001090830782496456,0.0,0.002181661564992912,-11.6875,57.75,-9.75
1772913947.4726706,-12.419900870821131,0.45399974099187573,-8.84542547437422,-0.07318317841770237,-1.5010483089554447,9.774769330503762,-0.001090830782496456,0.0,0.002181661564992912,-11.6875,57.75,-9.75
1772913947.4905796,-12.419900870821131,0.45399974099187573,-8.84542547437422,-0.0754634813858675,-1.50069763789947,9.773173936173341,0.0,-0.001090830782496456,0.001090830782496456,-12.375,58.5,-9.75
1772913947.516901,-12.412806792656758,0.45453293939235667,-8.84534068795746,-0.07698099753852819,-1.5004642702289714,9.772112219068168,-0.002181661564992912,0.0,0.001090830782496456,-12.375,58.5,-9.75
1772913947.5320942,-12.412806792656758,0.45453293939235667,-8.84534068795746,-0.07698099753852819,-1.5004642702289714,9.772112219068168,-0.002181661564992912,0.0,0.001090830782496456,-12.375,58.5,-9.75
1772913947.546193,-12.412806792656758,0.45453293939235667,-8.84534068795746,-0.07799088758635773,-1.5003089666511422,9.771405658194833,-0.001090830782496456,-0.002181661564992912,0.0,-12.375,58.5,-9.75
1772913947.560225,-12.412806792656758,0.45453293939235667,-8.84534068795746,-0.07799088758635773,-1.5003089666511422,9.771405658194833,-0.001090830782496456,-0.002181661564992912,0.0,-12.375,58.5,-9.75
1772913947.5755157,-12.391525626500574,0.45613253483017224,-8.84508632847288,-0.0753178464246579,-1.5002056138549515,9.77093544982643,0.001090830782496456,0.0,0.001090830782496456,-11.25,57.5,-9.375
1772913947.5899816,-12.391525626500574,0.45613253483017224,-8.84508632847288,-0.07688407909869231,-1.5034819454309323,9.77062253140983,-0.001090830782496456,0.0,0.0,-11.25,57.5,-9.375
1772913947.6172562,-12.398619170588518,0.45559933631145866,-8.84517111500679,-0.07458127773997748,-1.5090074192030452,9.767069175991791,0.0,0.0,-0.001090830782496456,-11.25,57.5,-9.375
1772913947.6572955,-12.398619170588518,0.45559933631145866,-8.84517111500679,-0.07304878915972945,-1.5126845602748,9.764704457654666,-0.001090830782496456,0.001090830782496456,0.002181661564992912,-12.6875,58.875,-9.75
1772913947.673171,-12.398619170588518,0.45559933631145866,-8.84517111500679,-0.07304878915972945,-1.5126845602748,9.764704457654666,-0.001090830782496456,0.001090830782496456,0.002181661564992912,-12.6875,58.875,-9.75
1772913947.695012,-12.412806792656758,0.45453293939235667,-8.84534068795746,-0.07202893512859351,-1.5151316565816957,9.763130764016944,0.001090830782496456,0.001090830782496456,0.002181661564992912,-12.6875,58.875,-9.75
1772913947.7262034,-12.405712892609897,0.4550661378322023,-8.84525590150165,-0.07135023366338854,-1.5134150601307583,9.76208348848035,-0.001090830782496456,0.0,0.001090830782496456,-11.6875,57.5,-9.75
1772913947.7415469,-12.405712892609897,0.4550661378322023,-8.84525590150165,-0.07135023366338854,-1.5134150601307583,9.76208348848035,-0.001090830782496456,0.0,0.001090830782496456,-11.6875,57.5,-9.75
1772913947.761376,-12.405712892609897,0.4550661378322023,-8.84525590150165,-0.07089856541988676,-1.508927572660979,9.754696314894943,-0.001090830782496456,0.002181661564992912,-0.001090830782496456,-11.6875,57.5,-9.75
1772913947.775184,-12.419900870821131,0.45399974099187573,-8.84542547437422,-0.0705979852493012,-1.5059411998783605,9.75312534510131,0.001090830782496456,0.0,-0.001090830782496456,-11.6875,57.5,-9.75
1772913947.7881958,-12.419900870821131,0.45399974099187573,-8.84542547437422,-0.0705979852493012,-1.5059411998783605,9.75312534510131,0.001090830782496456,0.0,-0.001090830782496456,-11.6875,57.5,-9.75
1772913947.8069935,-12.419900870821131,0.45399974099187573,-8.84542547437422,-0.07374306421079642,-1.507298913858817,9.752079882252529,0.0,0.0,0.0,-12.6875,58.1875,-9.75
1772913947.8216305,-12.434089561870438,0.45293334430882337,-8.845595047090589,-0.07583607912683747,-1.508202457346152,9.751384138405252,0.0,0.0,0.0,-12.6875,58.1875,-9.75
1772913947.8462715,-12.434089561870438,0.45293334430882337,-8.845595047090589,-0.07583607912683747,-1.508202457346152,9.751384138405252,0.0,0.0,0.0,-12.6875,58.1875,-9.75
1772913947.8610966,-12.434089561870438,0.45293334430882337,-8.845595047090589,-0.07722895717295422,-1.5088037554437315,9.750921128646857,0.0,0.001090830782496456,-0.001090830782496456,-12.375,58.1875,-10.1875
1772913947.8960474,-12.434089561870438,0.45293334430882337,-8.845595047090589,-0.07722895717295422,-1.5088037554437315,9.750921128646857,0.0,0.001090830782496456,-0.001090830782496456,-12.375,58.1875,-10.1875
1772913947.9121122,-12.434089561870438,0.45293334430882337,-8.845595047090589,-0.07481079024585827,-1.5058588009034113,9.753958112532121,-0.002181661564992912,0.003272492347489368,-0.001090830782496456,-12.375,58.1875,-10.1875
1772913947.9502313,-12.434089561870438,0.45293334430882337,-8.845595047090589,-0.07320152716857042,-1.5072440782614451,9.752634079675113,0.0,0.0,-0.002181661564992912,-12.0,58.1875,-9.375
1772913947.9781048,-12.434089561870438,0.45293334430882337,-8.845595047090589,-0.07213058056728183,-1.5081659648686547,9.75175295059919,0.001090830782496456,0.0,-0.001090830782496456,-12.0,58.1875,-9.375
1772913948.0638201,-12.434089561870438,0.45293334430882337,-8.845595047090589,-0.07141787756738167,-1.5087794701076045,9.75116656904202,-0.002181661564992912,0.001090830782496456,0.0,-12.0,58.1875,-9.0
1772913948.1010447,-12.434089561870438,0.45293334430882337,-8.845595047090589,-0.07094358168236228,-1.5091877509908231,9.750776338666034,0.001090830782496456,0.001090830782496456,0.0,-12.0,58.1875,-9.0
1772913948.1380618,-12.434089561870438,0.45293334430882337,-8.845595047090589,-0.07094358168236228,-1.5091877509908231,9.750776338666034,0.001090830782496456,0.001090830782496456,0.0,-12.0,58.1875,-9.0
1772913948.1658268,-12.434089561870438,0.45293334430882337,-8.845595047090589,-0.06728283136179468,-1.5094594573578088,9.750516644709975,0.001090830782496456,-0.003272492347489368,0.0,-12.6875,57.5,-10.5625
1772913948.1938355,-12.434089561870438,0.45293334430882337,-8.845595047090589,-0.06728283136179468,-1.5094594573578088,9.750516644709975,0.001090830782496456,-0.003272492347489368,0.0,-12.6875,57.5,-10.5625
1772913948.2058961,-12.434089561870438,0.45293334430882337,-8.845595047090589,-0.06819175462403684,-1.5096402749098787,9.74699870957587,0.0,-0.001090830782496456,0.001090830782496456,-12.6875,57.5,-10.5625
1772913948.2245924,-12.434089561870438,0.45293334430882337,-8.845595047090589,-0.06879663290172089,-1.5097606069709169,9.748002674749353,-0.001090830782496456,-0.002181661564992912,-0.001090830782496456,-13.0625,58.1875,-9.75
1772913948.2554028,-12.434089561870438,0.45293334430882337,-8.845595047090589,-0.06879663290172089,-1.5097606069709169,9.748002674749353,-0.001090830782496456,-0.002181661564992912,-0.001090830782496456,-13.0625,58.1875,-9.75
1772913948.287311,-12.434089561870438,0.45293334430882337,-8.845595047090589,-0.07254428434590592,-1.5098406866133405,9.752015914064598,0.001090830782496456,-0.001090830782496456,0.001090830782496456,-13.0625,58.1875,-9.75
1772913948.3026135,-12.434089561870438,0.45293334430882337,-8.845595047090589,-0.07254428434590592,-1.5098406866133405,9.752015914064598,0.001090830782496456,-0.001090830782496456,0.001090830782496456,-13.0625,58.1875,-9.75
1772913948.3376296,-12.434089561870438,0.45293334430882337,-8.845595047090589,-0.07503830451800136,-1.5065488670135059,9.754686679998073,0.0,-0.002181661564992912,-0.001090830782496456,-13.0625,57.875,-9.75
1772913948.3675423,-12.434089561870438,0.45293334430882337,-8.845595047090589,-0.07503830451800136,-1.5065488670135059,9.754686679998073,0.0,-0.002181661564992912,-0.001090830782496456,-13.0625,57.875,-9.75
1772913948.4224436,-12.434089561870438,0.45293334430882337,-8.845595047090589,-0.0766980470825001,-1.5077033095491696,9.756464044892391,-0.001090830782496456,0.001090830782496456,-0.001090830782496456,-13.0625,57.875,-9.75
1772913948.477037,-12.434089561870438,0.45293334430882337,-8.845595047090589,-0.07780258721863473,-1.5118166898680052,9.757646861375093,-0.001090830782496456,-0.001090830782496456,0.0,-12.0,57.875,-9.0
1772913948.5216923,-12.434089561870438,0.45293334430882337,-8.845595047090589,-0.07853764634071055,-1.5145540985207213,9.755088900824086,-0.001090830782496456,-0.003272492347489368,0.0,-12.0,57.875,-9.0
1772913948.5501335,-12.434089561870438,0.45293334430882337,-8.845595047090589,-0.07853764634071055,-1.5145540985207213,9.755088900824086,-0.001090830782496456,-0.003272492347489368,0.0,-12.0,57.875,-9.0
1772913948.571299,-12.434089561870438,0.45293334430882337,-8.845595047090589,-0.08237193168262298,-1.5163758134002456,9.753386606651683,0.0,0.0,0.0,-12.375,58.5,-9.75
1772913948.602261,-12.434089561870438,0.45293334430882337,-8.845595047090589,-0.07823338233125321,-1.5175881443026804,9.75225374889582,-0.001090830782496456,-0.001090830782496456,0.001090830782496456,-12.375,58.5,-9.75
1772913948.6225357,-12.434089561870438,0.45293334430882337,-8.845595047090589,-0.07823338233125321,-1.5175881443026804,9.75225374889582,-0.001090830782496456,-0.001090830782496456,0.001090830782496456,-12.375,58.5,-9.75
1772913948.658398,-12.434089561870438,0.45293334430882337,-8.845595047090589,-0.07364636234412256,-1.5155867367796894,9.74765301819558,0.001090830782496456,-0.003272492347489368,-0.001090830782496456,-12.0,57.875,-11.0
1772913948.7036211,-12.434089561870438,0.45293334430882337,-8.845595047090589,-0.07364636234412256,-1.5155867367796894,9.74765301819558,0.001090830782496456,-0.003272492347489368,-0.001090830782496456,-12.0,57.875,-11.0
1772913948.741812,-12.434089561870438,0.45293334430882337,-8.845595047090589,-0.07161488411562823,-1.5091291164774518,9.748960579537101,0.0,0.0,0.001090830782496456,-11.6875,58.1875,-10.1875
1772913948.7681262,-12.434089561870438,0.45293334430882337,-8.845595047090589,-0.07161488411562823,-1.5091291164774518,9.748960579537101,0.0,0.0,0.001090830782496456,-11.6875,58.1875,-10.1875
1772913948.7944183,-12.434089561870438,0.45293334430882337,-8.845595047090589,-0.07107468733951303,-1.5094204367441506,9.749308277293029,0.001090830782496456,0.0,0.0,-11.6875,58.1875,-10.1875
1772913948.836718,-12.434089561870438,0.45293334430882337,-8.845595047090589,-0.07107468733951303,-1.5094204367441506,9.749308277293029,0.001090830782496456,0.0,0.0,-11.6875,58.1875,-10.1875
1772913948.8925438,-12.434089561870438,0.45293334430882337,-8.845595047090589,-0.07382106427320843,-1.5097433257017416,9.756383876456633,0.0,-0.001090830782496456,-0.001090830782496456,-11.25,57.0625,-10.1875
1772913948.949286,-12.434089561870438,0.45293334430882337,-8.845595047090589,-0.07588798729705488,-1.5098291861217488,9.760938621883955,0.0,0.001090830782496456,0.001090830782496456,-11.6875,57.875,-10.1875
1772913948.9701529,-12.434089561870438,0.45293334430882337,-8.845595047090589,-0.07726350148038166,-1.5132314369794593,9.767314865793317,0.001090830782496456,-0.002181661564992912,0.001090830782496456,-11.6875,57.875,-10.1875
1772913948.983572,-12.434089561870438,0.45293334430882337,-8.845595047090589,-0.07726350148038166,-1.5132314369794593,9.767314865793317,0.001090830782496456,-0.002181661564992912,0.001090830782496456,-11.6875,57.875,-10.1875
1772913949.0089962,-12.434089561870438,0.45293334430882337,-8.845595047090589,-0.0781788908038854,-1.5154955969196333,9.768213073180366,0.002181661564992912,-0.001090830782496456,0.0,-11.6875,57.875,-10.1875
1772913949.0239894,-12.434089561870438,0.45293334430882337,-8.845595047090589,-0.0787880721731084,-1.513657258360176,9.768810820162814,0.0,-0.002181661564992912,0.001090830782496456,-12.0,58.1875,-9.75
1772913949.053815,0.0006545176193905878,0.45290931443990606,-8.845127611150488,-0.0787880721731084,-1.513657258360176,9.768810820162814,0.0,-0.002181661564992912,0.001090830782496456,-12.0,58.1875,-9.75
1772913949.3927548,0.0006545176193905878,0.45290931443990606,-8.845127611150488,0.25375212495330207,-1.4879977614797124,9.755906577447723,0.0,0.0,-0.001090830782496456,-25.06665851114139,54.762221579623876,-9.375
1772913949.6971216,0.0006545176193905878,0.45290931443990606,-8.845127611150488,0.2515550762582263,-1.4960771534171153,9.743654264162913,0.0,0.0,0.0,-24.676397563678872,52.992234957390345,-9.0
1772913949.7316277,0.0006545176193905878,0.45290931443990606,-8.845127611150488,0.2515550762582263,-1.4960771534171153,9.743654264162913,0.0,0.0,0.0,-24.676397563678872,52.992234957390345,-9.0
1772913949.8136284,0.0006545176193905878,0.45290931443990606,-8.845127611150488,0.2500327551704627,-1.4946488294385392,9.755812318808891,0.00023487374052322716,-0.001065244630145798,0.001090830782496456,-24.314540630819188,54.54404746544065,-11.375
1772913949.8607,0.0006545176193905878,0.45290931443990606,-8.845127611150488,0.2490196674919968,-1.493698295786221,9.75721314494678,-0.0005954971490993437,-0.002365363000814823,0.003272492347489368,-24.314540630819188,54.54404746544065,-11.375
1772913949.8821182,0.0006545176193905878,0.45290931443990606,-8.845127611150488,0.2490196674919968,-1.493698295786221,9.75721314494678,-0.0005954971490993437,-0.002365363000814823,0.003272492347489368,-24.314540630819188,54.54404746544065,-11.375
1772913949.9558723,0.0006545176193905878,0.45290931443990606,-8.845127611150488,0.24741747413942078,-1.4904708392766088,9.763218039451809,0.001065244630145798,0.00023487374052322716,0.0,-24.314540630819188,54.54404746544065,-9.75
1772913950.0105255,0.0006545176193905878,0.45290931443990606,-8.845127611150488,0.24741747413942078,-1.4904708392766088,9.763218039451809,0.001065244630145798,0.00023487374052322716,0.0,-24.314540630819188,54.54404746544065,-9.75
1772913950.0404737,0.0006545176193905878,0.45290931443990606,-8.845127611150488,0.24838680596016496,-1.496655966213686,9.755853944269933,0.0004697474810464543,-0.002130489260291596,0.0,-24.17996789031487,53.93370725087737,-10.5625
1772913950.079823,0.0006545176193905878,0.45290931443990606,-8.845127611150488,0.2519112139540899,-1.4975804154447927,9.753895734518798,-0.00023487374052322716,0.001065244630145798,0.001090830782496456,-24.17996789031487,53.93370725087737,-10.5625
1772913950.1268575,0.0006545176193905878,0.45290931443990606,-8.845127611150488,0.25425666810382996,-1.4981956260813196,9.755937679511373,-0.0005954971490993437,-0.002365363000814823,0.001090830782496456,-23.837820580301447,55.86518116171607,-10.1875
1772913950.165017,0.0006545176193905878,0.45290931443990606,-8.845127611150488,0.2511103770053583,-1.4927919994161833,9.753951459386592,-0.0004697474810464543,0.002130489260291596,0.0,-23.837820580301447,55.86518116171607,-10.1875
1772913950.1988993,0.0006545176193905878,0.45290931443990606,-8.845127611150488,0.24901655542569995,-1.4891959462330002,9.749284540373765,-0.0015349921111922525,0.001895615519768369,0.0,-23.874797783033227,54.000993621129524,-9.375
1772913950.221711,0.0006545176193905878,0.45290931443990606,-8.845127611150488,0.2490636552731474,-1.4933361128411249,9.746178757903628,-0.0007046212215696815,0.0031957338904373945,0.001090830782496456,-23.874797783033227,54.000993621129524,-9.375
1772913950.235083,0.0006545176193905878,0.45290931443990606,-8.845127611150488,0.2490636552731474,-1.4933361128411249,9.746178757903628,-0.0007046212215696815,0.0031957338904373945,0.001090830782496456,-23.874797783033227,54.000993621129524,-9.375
1772913950.2514958,0.0006545176193905878,0.45290931443990606,-8.845127611150488,0.24909499969548393,-1.4960913474701407,9.747457006070936,-0.0013001183706690253,0.0008303708896225709,0.001090830782496456,-23.874797783033227,54.000993621129524,-9.375
1772913950.2679121,0.0006545176193905878,0.45290931443990606,-8.845127611150488,0.24911585905840875,-1.4979249253377633,9.748307665947312,-0.0007046212215696815,0.0031957338904373945,-0.1407171709420428,-24.17996789031487,53.93370725087737,-9.375
1772913950.3090193,0.0006545176193905878,0.45290931443990606,-8.845127611150488,0.24768922601223034,-1.4926118510952722,9.752218882299866,0.0015349921111922525,-0.001895615519768369,0.001090830782496456,-24.17996789031487,53.93370725087737,-9.375
1772913950.3308597,0.0006545176193905878,0.45290931443990606,-8.845127611150488,0.24768922601223034,-1.4926118510952722,9.752218882299866,0.0015349921111922525,-0.001895615519768369,0.001090830782496456,-24.17996789031487,53.93370725087737,-9.375
1772913950.3612344,0.0006545176193905878,0.45290931443990606,-8.845127611150488,0.2467398176565339,-1.4890760595378225,9.751476641384022,-0.002365363000814823,0.0005954971490993437,-0.001090830782496456,-24.09922424601228,53.56750312213939,-9.375
1772913950.389464,0.0006545176193905878,0.45290931443990606,-8.845127611150488,0.24610799700140418,-1.4867230297537193,9.75432780005322,-0.0004697474810464543,0.002130489260291596,-0.001090830782496456,-24.09922424601228,53.56750312213939,-9.375
1772913950.4275138,0.0006545176193905878,0.45290931443990606,-8.845127611150488,0.24712804213250508,-1.4916904145484509,9.752880102590725,-0.00023487374052322716,0.001065244630145798,-0.002181661564992912,-24.09922424601228,53.56750312213939,-9.375
1772913950.445308,0.0006545176193905878,0.45290931443990606,-8.845127611150488,0.247806870772602,-1.4949961536400207,9.755261787808593,-0.0007046212215696815,0.0031957338904373945,0.0,-24.09922424601228,53.56750312213939,-10.1875
1772913950.4658945,-169.2917921427678,-53.05598623558483,174.66077277286345,0.24753836628997844,-1.4939294361624413,9.753501661008597,-0.00023487374052322716,0.001065244630145798,0.0,-24.09922424601228,53.56750312213939,-10.1875
1772913950.4956732,-169.2917921427678,-53.05598623558483,174.66077277286345,0.24753836628997844,-1.4939294361624413,9.753501661008597,-0.00023487374052322716,0.001065244630145798,0.0,-24.09922424601228,53.56750312213939,-10.1875
1772913950.511202,0.0006545176193905878,0.45290931443990606,-8.845127611150488,0.24735967955618407,-1.4932195475971275,9.748985204577785,-0.0015349921111922525,0.001895615519768369,-0.002181661564992912,-23.874797783033227,54.000993621129524,-10.5625
1772913950.5457668,0.0006545176193905878,0.45290931443990606,-8.845127611150488,0.24735967955618407,-1.4932195475971275,9.748985204577785,-0.0015349921111922525,0.001895615519768369,-0.002181661564992912,-23.874797783033227,54.000993621129524,-10.5625
1772913950.5709283,0.0006545176193905878,0.45290931443990606,-8.845127611150488,0.24652050817131024,-1.4894804747713923,9.745979553275204,0.0,0.0,0.001090830782496456,-23.874797783033227,54.000993621129524,-10.5625
1772913950.5953045,0.0006545176193905878,0.45290931443990606,-8.845127611150488,0.24740256370802588,-1.493525463405033,9.74732443761598,-0.0015349921111922525,0.001895615519768369,0.001090830782496456,-23.874797783033227,54.000993621129524,-10.5625
1772913950.6185021,0.0006545176193905878,0.45290931443990606,-8.845127611150488,0.25053595437040244,-1.4922304508801483,9.748219443121425,-0.0013001183706690253,0.0008303708896225709,0.001090830782496456,-24.314540630819188,54.54404746544065,-9.75
1772913950.6562698,0.0006545176193905878,0.45290931443990606,-8.845127611150488,0.25334144821354215,-1.494635284426569,9.748815059287432,0.00023487374052322716,-0.001065244630145798,0.001090830782496456,-24.314540630819188,54.54404746544065,-9.75
1772913950.6841986,0.0006545176193905878,0.45290931443990606,-8.845127611150488,0.2519418231112384,-1.4969559316475562,9.749211435192441,0.0013001183706690253,-0.0008303708896225709,0.0,-24.17996789031487,53.93370725087737,-9.75
1772913950.7122757,0.0006545176193905878,0.45290931443990606,-8.845127611150488,0.2519418231112384,-1.4969559316475562,9.749211435192441,0.0013001183706690253,-0.0008303708896225709,0.0,-24.17996789031487,53.93370725087737,-9.75
1772913950.746485,0.0006545176193905878,0.45290931443990606,-8.845127611150488,0.2510103882404921,-1.498500296449795,9.749475218929415,0.0008303708896225709,0.0013001183706690253,0.002181661564992912,-24.17996789031487,53.93370725087737,-9.75
1772913950.7886915,0.0006545176193905878,0.45290931443990606,-8.845127611150488,0.2496702713792244,-1.4962614040585065,9.756340987474353,0.0013001183706690253,-0.0008303708896225709,-0.001090830782496456,-24.24725426056703,54.23887735815901,-11.0
1772913950.8501296,0.0006545176193905878,0.45290931443990606,-8.845127611150488,0.25362550275482243,-1.4925803152727848,9.760605647904272,-0.0007046212215696815,0.0031957338904373945,0.001090830782496456,-23.942084153285386,54.306163728411164,-9.0
1772913950.9016116,0.0006545176193905878,0.45290931443990606,-8.845127611150488,0.2586641580663504,-1.4941478579120318,9.747022605085485,0.0,0.0,-0.001090830782496456,-23.942084153285386,54.306163728411164,-9.0
1772913950.932895,0.0006545176193905878,0.45290931443990606,-8.845127611150488,0.2586641580663504,-1.4941478579120318,9.747022605085485,0.0,0.0,-0.001090830782496456,-23.942084153285386,54.306163728411164,-9.0
1772913950.9640076,0.0006545176193905878,0.45290931443990606,-8.845127611150488,0.2540435123405268,-1.4900982549160555,9.737983241822112,0.0003606234085761166,0.0034306076309606214,0.001090830782496456,-24.54617201905284,53.852963606574775,-10.1875
1772913950.9892511,0.0006545176193905878,0.45290931443990606,-8.845127611150488,0.2531292963047718,-1.4972032391057435,9.7420029816686,-0.0013001183706690253,0.0008303708896225709,0.0,-24.54617201905284,53.852963606574775,-10.1875
1772913951.020629,0.0006545176193905878,0.45290931443990606,-8.845127611150488,0.2518006383858438,-1.4986648768006137,9.74802318534032,-0.001065244630145798,-0.00023487374052322716,0.0,-24.17996789031487,53.93370725087737,-10.5625
1772913951.0661163,0.0006545176193905878,0.45290931443990606,-8.845127611150488,0.2509164313828788,-1.4996375803589868,9.75202956363377,0.001895615519768369,0.0015349921111922525,-0.001090830782496456,-24.17996789031487,53.93370725087737,-10.5625
1772913951.0911179,0.0006545176193905878,0.45290931443990606,-8.845127611150488,0.2503280014996449,-1.5002849037112733,9.754695763633881,0.0,0.0,-0.001090830782496456,-24.17996789031487,53.93370725087737,-10.5625
1772913951.1074872,0.0006545176193905878,0.45290931443990606,-8.845127611150488,0.2499364079855452,-1.5007156901711443,9.753124978243232,-0.001065244630145798,-0.00023487374052322716,-0.003272492347489368,-23.942084153285386,54.306163728411164,-9.375
1772913951.1316166,0.0006545176193905878,0.45290931443990606,-8.845127611150488,0.2499364079855452,-1.5007156901711443,9.753124978243232,-0.001065244630145798,-0.00023487374052322716,-0.003272492347489368,-23.942084153285386,54.306163728411164,-9.375
1772913951.1572611,0.0006545176193905878,0.45290931443990606,-8.845127611150488,0.2496758068762981,-1.5010023737479885,9.752079638112576,0.0013001183706690253,-0.0008303708896225709,0.001090830782496456,-23.942084153285386,54.306163728411164,-9.375
1772913951.1751242,0.0006545176193905878,0.45290931443990606,-8.845127611150488,0.24950237974919925,-1.5011931584659128,9.75472908764016,0.0,0.0,0.0,-24.09922424601228,53.56750312213939,-9.375
1772913951.1930213,0.0006545176193905878,0.45290931443990606,-8.845127611150488,0.25520000840481477,-1.4966129589298025,9.756492266704475,0.00023487374052322716,-0.001065244630145798,0.0,-24.09922424601228,53.56750312213939,-9.375
1772913951.2190733,0.0006545176193905878,0.45290931443990606,-8.845127611150488,0.25899171662844445,-1.493564887302702,9.750975419261138,0.0004697474810464543,-0.002130489260291596,0.0,-24.09922424601228,53.56750312213939,-9.375
1772913951.244049,0.0006545176193905878,0.45290931443990606,-8.845127611150488,0.25899171662844445,-1.493564887302702,9.750975419261138,0.0004697474810464543,-0.002130489260291596,0.0,-24.09922424601228,53.56750312213939,-9.375
1772913951.261046,0.0006545176193905878,0.45290931443990606,-8.845127611150488,0.25824840617962036,-1.4922566870436536,9.747304018914821,0.0004697474810464543,-0.002130489260291596,0.0,-22.906410941445344,53.38249590485287,-8.5625
1772913951.2751732,0.0006545176193905878,0.45290931443990606,-8.845127611150488,0.2577537413792496,-1.4913860943848107,9.744860742996577,0.0004697474810464543,-0.002130489260291596,0.001090830782496456,-22.906410941445344,53.38249590485287,-8.5625
1772913951.2965984,0.0006545176193905878,0.45290931443990606,-8.845127611150488,0.2577537413792496,-1.4913860943848107,9.744860742996577,0.0004697474810464543,-0.002130489260291596,0.001090830782496456,-22.906410941445344,53.38249590485287,-8.5625
1772913951.3218088,0.0006545176193905878,0.45290931443990606,-8.845127611150488,0.2548781549244726,-1.494793631970597,9.749924993580803,-0.0003606234085761166,-0.0034306076309606214,0.002181661564992912,-23.514846003091087,54.40036464676419,-9.75
1772913951.338467,0.0006545176193905878,0.45290931443990606,-8.845127611150488,0.2548781549244726,-1.494793631970597,9.749924993580803,-0.0003606234085761166,-0.0034306076309606214,0.002181661564992912,-23.514846003091087,54.40036464676419,-9.75
1772913951.378332,0.0006545176193905878,0.45290931443990606,-8.845127611150488,0.25296448426122387,-1.497061310169249,9.753295195773221,0.001065244630145798,0.00023487374052322716,0.0,-23.514846003091087,54.40036464676419,-9.75
1772913951.408472,0.0006545176193905878,0.45290931443990606,-8.845127611150488,0.25169095781193385,-1.4985704246788265,9.75219291597733,-0.0026002367413380505,0.0016607417792451418,-0.002181661564992912,-24.54617201905284,53.852963606574775,-9.0
1772913951.4346623,0.0006545176193905878,0.45290931443990606,-8.845127611150488,0.25338983274205223,-1.4955878162519478,9.751459361086436,-0.0004697474810464543,0.002130489260291596,0.001090830782496456,-24.54617201905284,53.852963606574775,-9.0
1772913951.4476478,0.0006545176193905878,0.45290931443990606,-8.845127611150488,0.25452041503036954,-1.4936029236617794,9.754316300208211,0.0013001183706690253,-0.0008303708896225709,0.0,-24.54617201905284,53.852963606574775,-9.0
1772913951.4622755,0.0006545176193905878,0.45290931443990606,-8.845127611150488,0.25452041503036954,-1.4936029236617794,9.754316300208211,0.0013001183706690253,-0.0008303708896225709,0.0,-24.54617201905284,53.852963606574775,-9.0
1772913951.48408,0.0006545176193905878,0.45290931443990606,-8.845127611150488,0.25527280491381305,-1.4922819998157253,9.75956267298697,0.0,0.0,0.001090830782496456,-23.447559632838928,54.09519453948255,-10.5625
1772913951.5184128,0.0006545176193905878,0.45290931443990606,-8.845127611150488,0.255773511976499,-1.4914029397518627,9.759708963758092,0.001065244630145798,0.00023487374052322716,0.001090830782496456,-23.447559632838928,54.09519453948255,-10.5625
1772913951.552813,0.0006545176193905878,0.45290931443990606,-8.845127611150488,0.2568269842930474,-1.4940845850145996,9.759806318632098,-0.0008303708896225709,-0.0013001183706690253,0.002181661564992912,-24.9859148668388,54.3960174508859,-10.5625
1772913951.5808911,0.0006545176193905878,0.45290931443990606,-8.845127611150488,0.25426140843615996,-1.4965894473406063,9.756525995505905,-0.0003606234085761166,-0.0034306076309606214,0.001090830782496456,-24.9859148668388,54.3960174508859,-10.5625
1772913951.5988631,0.0006545176193905878,0.45290931443990606,-8.845127611150488,0.2518337890031663,-1.4949897553219245,9.750997865401715,-0.0004697474810464543,0.002130489260291596,-0.001090830782496456,-24.9859148668388,54.3960174508859,-10.5625
1772913951.6358473,0.0006545176193905878,0.45290931443990606,-8.845127611150488,0.2518337890031663,-1.4949897553219245,9.750997865401715,-0.0004697474810464543,0.002130489260291596,-0.001090830782496456,-24.9859148668388,54.3960174508859,-10.5625
1772913951.6630368,0.0006545176193905878,0.45290931443990606,-8.845127611150488,0.2502182353887949,-1.4939251781532223,9.747318956570634,0.0015349921111922525,-0.001895615519768369,0.0,-23.514846003091087,54.40036464676419,-10.1875
1772913951.6828384,0.0006545176193905878,0.45290931443990606,-8.845127611150488,0.2524097524208406,-1.492496456579962,9.748215795546974,0.0,0.0,-0.002181661564992912,-23.514846003091087,54.40036464676419,-10.1875
1772913951.700581,0.0006545176193905878,0.45290931443990606,-8.845127611150488,0.2524097524208406,-1.492496456579962,9.748215795546974,0.0,0.0,-0.002181661564992912,-23.514846003091087,54.40036464676419,-10.1875
1772913951.746387,0.0006545176193905878,0.45290931443990606,-8.845127611150488,0.25458843988441304,-1.4948123082483165,9.74881263186738,0.0013001183706690253,-0.0008303708896225709,0.001090830782496456,-23.514846003091087,54.40036464676419,-10.1875
1772913951.7742853,0.0006545176193905878,0.45290931443990606,-8.845127611150488,0.2553180746942916,-1.4930868317483548,9.749209819771513,-0.00012574966805288946,-0.004495852261106419,-0.001090830782496456,-23.942084153285386,54.306163728411164,-10.1875
1772913951.8005,0.0006545176193905878,0.45290931443990606,-8.845127611150488,0.25253698859421736,-1.492658803772061,9.746129032177514,0.00023487374052322716,-0.001065244630145798,0.0,-23.942084153285386,54.306163728411164,-10.1875
1772913951.8205698,0.0006545176193905878,0.45290931443990606,-8.845127611150488,0.25253698859421736,-1.492658803772061,9.746129032177514,0.00023487374052322716,-0.001065244630145798,0.0,-23.942084153285386,54.306163728411164,-10.1875
1772913951.8546536,0.0006545176193905878,0.45290931443990606,-8.845127611150488,0.2506862068613852,-1.4923739559352232,9.747423914155679,-0.0008303708896225709,-0.0013001183706690253,-0.002181661564992912,-23.942084153285386,54.306163728411164,-10.1875
1772913951.8735447,0.0006545176193905878,0.45290931443990606,-8.845127611150488,0.2487342749331768,-1.4889177429662728,9.751630755354688,0.00023487374052322716,-0.001065244630145798,0.001090830782496456,-23.874797783033227,54.000993621129524,-9.375
1772913951.8919036,0.0006545176193905878,0.45290931443990606,-8.845127611150488,0.24887580075865295,-1.493150971674852,9.754430361179134,0.0004697474810464543,-0.002130489260291596,-0.001090830782496456,-23.874797783033227,54.000993621129524,-9.375
1772913951.9313912,0.0006545176193905878,0.45290931443990606,-8.845127611150488,0.2489699846145603,-1.4959681380921486,9.756293467581656,-0.00023487374052322716,0.001065244630145798,0.0,-23.081355504100955,54.175938183785135,-10.1875
1772913951.9659328,0.0006545176193905878,0.45290931443990606,-8.845127611150488,0.2489699846145603,-1.4959681380921486,9.756293467581656,-0.00023487374052322716,0.001065244630145798,0.0,-23.081355504100955,54.175938183785135,-10.1875
1772913951.9939015,0.0006545176193905878,0.45290931443990606,-8.845127611150488,0.2497529202781593,-1.5011095807885417,9.757533344080272,0.0013001183706690253,-0.0008303708896225709,0.0,-23.081355504100955,54.175938183785135,-10.1875
1772913952.0170112,0.0006545176193905878,0.45290931443990606,-8.845127611150488,0.25027395521632,-1.5045311534693135,9.761703579747092,0.0008303708896225709,0.0013001183706690253,0.0,-23.447559632838928,54.09519453948255,-9.0
1772913952.038288,0.0006545176193905878,0.45290931443990606,-8.845127611150488,0.2491801834281338,-1.5002748720359087,9.764478824998776,-0.001065244630145798,-0.00023487374052322716,0.0,-23.447559632838928,54.09519453948255,-9.0
1772913952.053803,0.0006545176193905878,0.45290931443990606,-8.845127611150488,0.2491801834281338,-1.5002748720359087,9.764478824998776,-0.001065244630145798,-0.00023487374052322716,0.0,-23.447559632838928,54.09519453948255,-9.0
1772913952.0787356,0.0006545176193905878,0.45290931443990606,-8.845127611150488,0.24773203316173203,-1.4941757143722634,9.762980608004932,0.0013001183706690253,-0.0008303708896225709,0.001090830782496456,-23.447559632838928,54.09519453948255,-9.0
1772913952.127144,0.0006545176193905878,0.45290931443990606,-8.845127611150488,0.2533016051673272,-1.488676278359972,9.761983561331709,-0.001065244630145798,-0.00023487374052322716,-0.001090830782496456,-24.918628496586642,54.09084734360426,-11.0
1772913952.1459281,0.0006545176193905878,0.45290931443990606,-8.845127611150488,0.25700809312085493,-1.4850164651265179,9.76132003790842,-0.0004697474810464543,0.002130489260291596,0.0,-24.918628496586642,54.09084734360426,-11.0
1772913952.1626987,0.0006545176193905878,0.45290931443990606,-8.845127611150488,0.25700809312085493,-1.4850164651265179,9.76132003790842,-0.0004697474810464543,0.002130489260291596,0.0,-24.918628496586642,54.09084734360426,-11.0
1772913952.185564,0.0006545176193905878,0.45290931443990606,-8.845127611150488,0.25294141961875716,-1.4840214150216369,9.764223582189583,0.0,0.0,-0.002181661564992912,-24.918628496586642,54.09084734360426,-11.0
1772913952.2259195,0.0006545176193905878,0.45290931443990606,-8.845127611150488,0.24939271070462302,-1.4872663751528683,9.76744176675631,0.00023487374052322716,-0.001065244630145798,0.003272492347489368,-23.874797783033227,54.000993621129524,-9.75
1772913952.2719781,0.0006545176193905878,0.45290931443990606,-8.845127611150488,0.24939271070462302,-1.4872663751528683,9.76744176675631,0.00023487374052322716,-0.001065244630145798,0.003272492347489368,-23.874797783033227,54.000993621129524,-9.75
1772913952.2942276,0.0006545176193905878,0.45290931443990606,-8.845127611150488,0.25003423976893624,-1.4953186547575121,9.764952412646343,-0.001065244630145798,-0.00023487374052322716,-0.002181661564992912,-24.680744759557157,54.46330382113806,-10.1875
1772913952.3145857,0.0006545176193905878,0.45290931443990606,-8.845127611150488,0.24902065547569688,-1.4941440570535585,9.763295775294067,0.0,0.0,0.001090830782496456,-24.680744759557157,54.46330382113806,-10.1875
1772913952.351969,0.0006545176193905878,0.45290931443990606,-8.845127611150488,0.24902065547569688,-1.4941440570535585,9.763295775294067,0.0,0.0,0.001090830782496456,-24.680744759557157,54.46330382113806,-10.1875
1772913952.4027884,0.0006545176193905878,0.45290931443990606,-8.845127611150488,0.2556301153376792,-1.4968422292201926,9.758114506034634,0.0008303708896225709,0.0013001183706690253,-0.001090830782496456,-24.17996789031487,53.93370725087737,-10.5625
1772913952.4690094,0.0006545176193905878,0.45290931443990606,-8.845127611150488,0.25999820534725177,-1.4969841140353335,9.748709889706438,-0.002365363000814823,0.0005954971490993437,0.001090830782496456,-23.514846003091087,54.40036464676419,-9.0
1772913952.501539,0.0006545176193905878,0.45290931443990606,-8.845127611150488,0.2621848630942645,-1.4938118868793588,9.742451222596472,-0.00023487374052322716,0.001065244630145798,0.001090830782496456,-23.514846003091087,54.40036464676419,-9.0
1772913952.5523522,0.0006545176193905878,0.45290931443990606,-8.845127611150488,0.2636400593983339,-1.491700805143157,9.74497637296332,-0.0016607417792451418,-0.0026002367413380505,-0.001090830782496456,-24.17996789031487,53.93370725087737,-9.75
1772913952.5812259,0.0006545176193905878,0.45290931443990606,-8.845127611150488,0.2636400593983339,-1.491700805143157,9.74497637296332,-0.0016607417792451418,-0.0026002367413380505,-0.001090830782496456,-24.17996789031487,53.93370725087737,-9.75
1772913952.6103718,0.0006545176193905878,0.45290931443990606,-8.845127611150488,0.26460847628308426,-1.490295903830043,9.74665683232468,0.0004697474810464543,-0.002130489260291596,-0.001090830782496456,-24.17996789031487,53.93370725087737,-9.75
1772913952.6611316,0.0006545176193905878,0.45290931443990606,-8.845127611150488,0.2652529469019602,-1.4893609576999416,9.747775159257705,-0.001065244630145798,-0.00023487374052322716,0.001090830782496456,-23.514846003091087,54.40036464676419,-10.5625
1772913952.6803873,0.0006545176193905878,0.45290931443990606,-8.845127611150488,0.2652529469019602,-1.4893609576999416,9.747775159257705,-0.001065244630145798,-0.00023487374052322716,0.001090830782496456,-23.514846003091087,54.40036464676419,-10.5625
1772913952.7038243,0.0006545176193905878,0.45290931443990606,-8.845127611150488,0.2624151849841201,-1.489459018853987,9.748519393339102,0.0013001183706690253,-0.0008303708896225709,0.0,-23.514846003091087,54.40036464676419,-10.5625
1772913952.7370656,0.0006545176193905878,0.45290931443990606,-8.845127611150488,0.25980642876807986,-1.4862576275410955,9.752359784513951,0.0013001183706690253,-0.0008303708896225709,-0.001090830782496456,-23.794054138730637,53.634789492391555,-11.0
1772913952.7942915,0.0006545176193905878,0.45290931443990606,-8.845127611150488,0.25480368073252796,-1.4848473947438459,9.754915521940834,0.001065244630145798,0.00023487374052322716,0.0,-23.794054138730637,53.634789492391555,-11.0
1772913952.8364472,0.0006545176193905878,0.45290931443990606,-8.845127611150488,0.25474105771471894,-1.4831886432110135,9.756616336648966,0.0003606234085761166,0.0034306076309606214,-0.001090830782496456,-24.24725426056703,54.23887735815901,-9.75
1772913952.860453,0.0006545176193905878,0.45290931443990606,-8.845127611150488,0.25215299024001375,-1.486071669870471,9.751057986423245,0.0008303708896225709,0.0013001183706690253,-0.001090830782496456,-24.24725426056703,54.23887735815901,-9.75
1772913952.8866768,0.0006545176193905878,0.45290931443990606,-8.845127611150488,0.25215299024001375,-1.486071669870471,9.751057986423245,0.0008303708896225709,0.0013001183706690253,-0.001090830782496456,-24.24725426056703,54.23887735815901,-9.75
1772913952.9065275,0.0006545176193905878,0.45290931443990606,-8.845127611150488,0.25369731016169894,-1.4872700345472267,9.747358966438867,-0.00023487374052322716,0.001065244630145798,0.001090830782496456,-24.17996789031487,53.93370725087737,-8.5625
1772913952.9433196,0.0006545176193905878,0.45290931443990606,-8.845127611150488,0.25145838790290304,-1.4887877902125923,9.751587533374662,-0.0013001183706690253,0.0008303708896225709,0.0,-24.17996789031487,53.93370725087737,-8.5625
1772913952.9786923,0.0006545176193905878,0.45290931443990606,-8.845127611150488,0.25323506006556834,-1.4890775822938564,9.754401597434248,0.001065244630145798,0.00023487374052322716,0.001090830782496456,-24.009370523537545,54.61133383569281,-10.1875
1772913952.9967778,0.0006545176193905878,0.45290931443990606,-8.845127611150488,0.25323506006556834,-1.4890775822938564,9.754401597434248,0.001065244630145798,0.00023487374052322716,0.001090830782496456,-24.009370523537545,54.61133383569281,-10.1875
1772913953.0187728,0.0006545176193905878,0.45290931443990606,-8.845127611150488,0.2511507656276,-1.4899906930463431,9.756274325630747,0.001065244630145798,0.00023487374052322716,0.001090830782496456,-24.009370523537545,54.61133383569281,-10.1875
1772913953.040255,0.0006545176193905878,0.45290931443990606,-8.845127611150488,0.2537505982373154,-1.4931447506079059,9.757520605325771,0.001065244630145798,0.00023487374052322716,0.001090830782496456,-24.009370523537545,54.61133383569281,-10.1875
1772913953.0682952,0.0006545176193905878,0.45290931443990606,-8.845127611150488,0.2522141078815543,-1.4959639980415897,9.755004878833635,0.002365363000814823,-0.0005954971490993437,0.001090830782496456,-23.081355504100955,54.175938183785135,-10.1875
1772913953.1114216,0.0006545176193905878,0.45290931443990606,-8.845127611150488,0.24975107599432655,-1.4913068758846617,9.753330690955623,0.00023487374052322716,-0.001065244630145798,0.0,-23.081355504100955,54.175938183785135,-10.1875
1772913953.1532123,0.0006545176193905878,0.45290931443990606,-8.845127611150488,0.2481119557872455,-1.4882076131126893,9.752216537624712,-0.00023487374052322716,0.001065244630145798,0.0,-22.849724115867303,54.867022042651016,-9.75
1772913953.2066863,0.0006545176193905878,0.45290931443990606,-8.845127611150488,0.24846165431879602,-1.4926783881899623,9.754820192736217,0.0003606234085761166,0.0034306076309606214,-0.001090830782496456,-22.849724115867303,54.867022042651016,-9.75
1772913953.2326453,0.0006545176193905878,0.45290931443990606,-8.845127611150488,0.24846165431879602,-1.4926783881899623,9.754820192736217,0.0003606234085761166,0.0034306076309606214,-0.001090830782496456,-22.849724115867303,54.867022042651016,-9.75
1772913953.2633338,0.0006545176193905878,0.45290931443990606,-8.845127611150488,0.2519610247006479,-1.4949333817024626,9.756552896128191,-0.0015349921111922525,0.001895615519768369,-0.001090830782496456,-24.613458389305,54.158133713856415,-11.0
1772913953.296918,0.0006545176193905878,0.45290931443990606,-8.845127611150488,0.2546400210068421,-1.491992166864706,9.75512825084907,0.0005954971490993437,0.002365363000814823,0.0,-24.613458389305,54.158133713856415,-11.0
1772913953.3191886,0.0006545176193905878,0.45290931443990606,-8.845127611150488,0.2546400210068421,-1.491992166864706,9.75512825084907,0.0005954971490993437,0.002365363000814823,0.0,-24.613458389305,54.158133713856415,-11.0
1772913953.339964,0.0006545176193905878,0.45290931443990606,-8.845127611150488,0.2520857514395756,-1.4919303165202005,9.753412793653741,0.00023487374052322716,-0.001065244630145798,0.001090830782496456,-24.613458389305,54.158133713856415,-11.375
1772913953.3592212,0.0006545176193905878,0.45290931443990606,-8.845127611150488,0.2520857514395756,-1.4919303165202005,9.753412793653741,0.00023487374052322716,-0.001065244630145798,0.001090830782496456,-24.613458389305,54.158133713856415,-11.375
1772913953.3886142,0.0006545176193905878,0.45290931443990606,-8.845127611150488,0.25110617093521576,-1.4951558057223393,9.752271176053162,-0.0004697474810464543,0.002130489260291596,0.001090830782496456,-24.613458389305,54.158133713856415,-11.375
1772913953.4077427,0.0006545176193905878,0.45290931443990606,-8.845127611150488,0.25110617093521576,-1.4951558057223393,9.752271176053162,-0.0004697474810464543,0.002130489260291596,0.001090830782496456,-24.613458389305,54.158133713856415,-11.375
1772913953.440602,0.0006545176193905878,0.45290931443990606,-8.845127611150488,0.2504542710521954,-1.4973023327552875,9.754856554,-0.0008303708896225709,-0.0013001183706690253,0.001090830782496456,-24.24725426056703,54.23887735815901,-10.5625
1772913953.4693305,0.0006545176193905878,0.45290931443990606,-8.845127611150488,0.2532870888777378,-1.498010565157841,9.753231982435738,-0.0004697474810464543,0.002130489260291596,-0.001090830782496456,-24.24725426056703,54.23887735815901,-10.5625
1772913953.4836462,0.0006545176193905878,0.45290931443990606,-8.845127611150488,0.2532870888777378,-1.498010565157841,9.753231982435738,-0.0004697474810464543,0.002130489260291596,-0.001090830782496456,-24.24725426056703,54.23887735815901,-10.5625
1772913953.52271,0.0006545176193905878,0.45290931443990606,-8.845127611150488,0.2544520401363925,-1.4952152359947728,9.758841071622012,-0.0004697474810464543,0.002130489260291596,0.0,-24.613458389305,54.158133713856415,-10.5625
1772913953.561458,0.0006545176193905878,0.45290931443990606,-8.845127611150488,0.25522730218566897,-1.4933549756626237,9.755883634403208,0.0,0.0,0.0,-24.613458389305,54.158133713856415,-10.5625
1772913953.6110299,0.0006545176193905878,0.45290931443990606,-8.845127611150488,0.2557432304192179,-1.4921169931920477,9.757260604678152,-0.0013001183706690253,0.0008303708896225709,0.001090830782496456,-24.17996789031487,53.93370725087737,-10.5625
1772913953.6458228,0.0006545176193905878,0.45290931443990606,-8.845127611150488,0.2557432304192179,-1.4921169931920477,9.757260604678152,-0.0013001183706690253,0.0008303708896225709,0.001090830782496456,-24.17996789031487,53.93370725087737,-10.5625
1772913953.7272365,0.0006545176193905878,0.45290931443990606,-8.845127611150488,0.2560865748953487,-1.49129312968705,9.754831851307042,0.0008303708896225709,0.0013001183706690253,0.0,-23.794054138730637,53.634789492391555,-10.5625
1772913953.7804983,0.0006545176193905878,0.45290931443990606,-8.845127611150488,0.2530484168933111,-1.4914651150872273,9.75321554306952,0.0004697474810464543,-0.002130489260291596,0.001090830782496456,-23.794054138730637,53.634789492391555,-10.5625
1772913953.8106163,0.0006545176193905878,0.45290931443990606,-8.845127611150488,0.2530484168933111,-1.4914651150872273,9.75321554306952,0.0004697474810464543,-0.002130489260291596,0.001090830782496456,-23.794054138730637,53.634789492391555,-10.5625
1772913953.8510194,0.0006545176193905878,0.45290931443990606,-8.845127611150488,0.25102655668140367,-1.4915795694498426,9.748794796285477,0.00023487374052322716,-0.001065244630145798,-0.001090830782496456,-23.582132373343246,54.705534754045836,-11.0
1772913953.9170887,0.0006545176193905878,0.45290931443990606,-8.845127611150488,0.24968103129603778,-1.4916557375496242,9.745852838683673,0.0,0.0,0.0,-23.582132373343246,54.705534754045836,-11.0
1772913953.9489977,0.0006545176193905878,0.45290931443990606,-8.845127611150488,0.25205224909807367,-1.49098616920958,9.743894998763492,0.0,0.0,-0.001090830782496456,-23.514846003091087,54.40036464676419,-10.5625
1772913953.981947,0.0006545176193905878,0.45290931443990606,-8.845127611150488,0.25363026805709016,-1.490540578958849,9.739246966459797,-0.00023487374052322716,0.001065244630145798,-0.002181661564992912,-23.514846003091087,54.40036464676419,-10.5625
1772913954.0191598,0.0006545176193905878,0.45290931443990606,-8.845127611150488,0.25363026805709016,-1.490540578958849,9.739246966459797,-0.00023487374052322716,0.001065244630145798,-0.002181661564992912,-23.514846003091087,54.40036464676419,-10.5625
1772913954.077406,0.0006545176193905878,0.45290931443990606,-8.845127611150488,0.2565788683823821,-1.4954872716154863,9.745237746164507,0.001065244630145798,0.00023487374052322716,-0.001090830782496456,-24.851342126334483,53.78567723632262,-9.375
1772913954.101242,0.0006545176193905878,0.45290931443990606,-8.845127611150488,0.2573629399847421,-1.496802662244865,9.746830773270341,-0.001065244630145798,-0.00023487374052322716,0.0,-24.851342126334483,53.78567723632262,-9.375
1772913954.1271117,0.0006545176193905878,0.45290931443990606,-8.845127611150488,0.25788473087745895,-1.4976780400148402,9.747890915013995,0.0004697474810464543,-0.002130489260291596,0.0,-24.851342126334483,53.78567723632262,-9.75
1772913954.1634383,0.0006545176193905878,0.45290931443990606,-8.845127611150488,0.25823197688777577,-1.4982605941421483,9.748596427501838,-0.0004697474810464543,0.002130489260291596,-0.001090830782496456,-24.851342126334483,53.78567723632262,-9.75
1772913954.1924052,0.0006545176193905878,0.45290931443990606,-8.845127611150488,0.25823197688777577,-1.4982605941421483,9.748596427501838,-0.0004697474810464543,0.002130489260291596,-0.001090830782496456,-24.851342126334483,53.78567723632262,-9.75
1772913954.2101588,0.0006545176193905878,0.45290931443990606,-8.845127611150488,0.2584630652286496,-1.4986482774063161,9.752411049888725,0.00023487374052322716,-0.001065244630145798,0.003272492347489368,-23.874797783033227,54.000993621129524,-10.5625
1772913954.265422,0.0006545176193905878,0.45290931443990606,-8.845127611150488,0.2578965945784799,-1.49563962637242,9.754949638475074,0.00023487374052322716,-0.001065244630145798,0.0,-23.874797783033227,54.000993621129524,-10.5625
1772913954.2964587,0.0006545176193905878,0.45290931443990606,-8.845127611150488,0.2575196146886838,-1.4936374027181967,9.753293929114077,-0.0013001183706690253,0.0008303708896225709,0.002181661564992912,-24.09922424601228,53.56750312213939,-9.75
1772913954.3544686,0.0006545176193905878,0.45290931443990606,-8.845127611150488,0.2587092535023563,-1.4988382450736017,9.7488469613225,-0.001065244630145798,-0.00023487374052322716,0.001090830782496456,-24.09922424601228,53.56750312213939,-9.75
1772913954.387221,0.0006545176193905878,0.45290931443990606,-8.845127611150488,0.25604089931253543,-1.5020562800522606,9.750608324788823,0.0013001183706690253,-0.0008303708896225709,0.001090830782496456,-23.272615070183313,53.30175226055027,-10.5625
1772913954.4424412,-169.2917921427678,-53.05598623558483,174.66077277286345,0.25229776294358325,-1.4953612215075138,9.753749945058848,0.0,0.0,-0.001090830782496456,-24.851342126334483,53.78567723632262,-9.75
1772913954.4863582,0.0006545176193905878,0.45290931443990606,-8.845127611150488,0.2530733974191121,-1.4901854774750942,9.755840658254352,-0.0008303708896225709,-0.0013001183706690253,0.002181661564992912,-24.851342126334483,53.78567723632262,-9.75
1772913954.5297546,0.0006545176193905878,0.45290931443990606,-8.845127611150488,0.2530733974191121,-1.4901854774750942,9.755840658254352,-0.0008303708896225709,-0.0013001183706690253,0.002181661564992912,-24.851342126334483,53.78567723632262,-9.75
1772913954.5618525,0.0006545176193905878,0.45290931443990606,-8.845127611150488,0.25358957349817185,-1.486741077638368,9.757232004531163,0.0,0.0,0.002181661564992912,-24.005023327659256,53.14026497194509,-9.375
1772913954.6078076,0.0006545176193905878,0.45290931443990606,-8.845127611150488,0.25465334027231673,-1.4877155179389876,9.758157929936024,-0.0008303708896225709,-0.0013001183706690253,0.001090830782496456,-24.005023327659256,53.14026497194509,-9.375
1772913954.6541793,137.09758796809905,3.925745194663355,-1.3159815593302833,0.2553612651774566,-1.4883639970738385,9.758774122949696,0.00023487374052322716,-0.001065244630145798,0.001090830782496456,-24.090114167840134,54.97753796443078,-9.75
1772913954.68849,0.0006545176193905878,0.45290931443990606,-8.845127611150488,0.25583238129378794,-1.4887955526940952,9.759184192516967,-0.00023487374052322716,0.001065244630145798,0.0,-24.090114167840134,54.97753796443078,-9.75
1772913954.7123241,0.0006545176193905878,0.45290931443990606,-8.845127611150488,0.2561459038064945,-1.4890827481385838,9.762802200940527,0.0026002367413380505,-0.0016607417792451418,0.002181661564992912,-24.314540630819188,54.54404746544065,-10.1875
1772913954.7448437,0.0006545176193905878,0.45290931443990606,-8.845127611150488,0.25635454953642484,-1.4892738734987077,9.765209945130604,0.0015349921111922525,-0.001895615519768369,0.0,-24.314540630819188,54.54404746544065,-10.1875
1772913954.7722652,0.0006545176193905878,0.45290931443990606,-8.845127611150488,0.25635454953642484,-1.4892738734987077,9.765209945130604,0.0015349921111922525,-0.001895615519768369,0.0,-24.314540630819188,54.54404746544065,-10.1875
1772913954.802134,0.0006545176193905878,0.45290931443990606,-8.845127611150488,0.25322675102347436,-1.4901213226504553,9.766812271992835,0.0013001183706690253,-0.0008303708896225709,-0.001090830782496456,-24.46542837475025,53.486759477836806,-9.75
1772913954.8385699,0.0006545176193905878,0.45290931443990606,-8.845127611150488,0.2518654934124999,-1.4939519405098096,9.764533490913168,0.00023487374052322716,-0.001065244630145798,-0.001090830782496456,-24.46542837475025,53.486759477836806,-9.75
1772913954.8654902,0.0006545176193905878,0.45290931443990606,-8.845127611150488,0.2518654934124999,-1.4939519405098096,9.764533490913168,0.00023487374052322716,-0.001065244630145798,-0.001090830782496456,-24.46542837475025,53.486759477836806,-9.75
1772913954.9131799,0.0006545176193905878,0.45290931443990606,-8.845127611150488,0.25095959167864024,-1.4965011739044047,9.759671875852982,0.002130489260291596,0.0004697474810464543,0.001090830782496456,-23.514846003091087,54.40036464676419,-11.0
1772913954.9503505,0.0006545176193905878,0.45290931443990606,-8.845127611150488,0.25218285939064505,-1.4909441030611223,9.756436525338227,0.0003606234085761166,0.0034306076309606214,-0.002181661564992912,-23.514846003091087,54.40036464676419,-11.0
1772913954.980301,10.396110110219842,5.359786419329811,125.38549629854894,0.24973028047269505,-1.487966191851062,9.75428343571189,0.0004697474810464543,-0.002130489260291596,0.0,-24.54617201905284,53.852963606574775,-11.0
1772913955.0368748,10.396110110219842,5.359786419329811,125.38549629854894,0.24973028047269505,-1.487966191851062,9.75428343571189,0.0004697474810464543,-0.002130489260291596,0.0,-24.54617201905284,53.852963606574775,-11.0
1772913955.0738065,0.0006545176193905878,0.45290931443990606,-8.845127611150488,0.24809811659990091,-1.4859844252062147,9.752850578617151,0.0008303708896225709,0.0013001183706690253,0.001090830782496456,-23.619109576075026,52.84134721345928,-10.5625
1772913955.0939004,0.0006545176193905878,0.45290931443990606,-8.845127611150488,0.24701192977502154,-1.4846655816418526,9.751897028226665,-0.001065244630145798,-0.00023487374052322716,0.0,-23.619109576075026,52.84134721345928,-10.5625
1772913955.126443,0.0006545176193905878,0.45290931443990606,-8.845127611150488,0.24955573449205973,-1.4830676486226224,9.751262451093652,-0.00023487374052322716,0.001065244630145798,0.0,-23.619109576075026,52.84134721345928,-10.5625
1772913955.1510427,0.0006545176193905878,0.45290931443990606,-8.845127611150488,0.24955573449205973,-1.4830676486226224,9.751262451093652,-0.00023487374052322716,0.001065244630145798,0.0,-23.619109576075026,52.84134721345928,-10.5625
1772913955.2202518,0.0006545176193905878,0.45290931443990606,-8.845127611150488,0.2519688654746833,-1.4852708919638995,9.754185258807642,0.0,0.0,0.0,-23.942084153285386,54.306163728411164,-9.75
1772913955.2947097,0.0006545176193905878,0.45290931443990606,-8.845127611150488,0.2542950345467752,-1.4900037757111724,9.752785242984082,-0.0015349921111922525,0.001895615519768369,-0.003272492347489368,-23.794054138730637,53.634789492391555,-9.375
1772913955.329866,0.0006545176193905878,0.45290931443990606,-8.845127611150488,0.2542950345467752,-1.4900037757111724,9.752785242984082,-0.0015349921111922525,0.001895615519768369,-0.003272492347489368,-23.794054138730637,53.634789492391555,-9.375
1772913955.3899653,0.0006545176193905878,0.45290931443990606,-8.845127611150488,0.25512281671964604,-1.4898868070597133,9.755198659800023,-0.001065244630145798,-0.00023487374052322716,0.0,-23.794054138730637,53.634789492391555,-9.375
1772913955.4523606,0.0006545176193905878,0.45290931443990606,-8.845127611150488,0.2560403008546828,-1.4897571631926099,9.752302358444203,0.0009394949620929086,-0.004260978520583192,0.0,-24.770598482031893,53.41947310758464,-10.1875
1772913955.532883,0.0006545176193905878,0.45290931443990606,-8.845127611150488,0.2562842719516564,-1.489722689183452,9.751532193825588,-0.0005954971490993437,-0.002365363000814823,0.001090830782496456,-24.009370523537545,54.61133383569281,-11.0
1772913955.5664122,0.0006545176193905878,0.45290931443990606,-8.845127611150488,0.2564466319913566,-1.4896997471154576,9.747674546167882,-0.0008303708896225709,-0.0013001183706690253,0.001090830782496456,-24.009370523537545,54.61133383569281,-11.0
1772913955.6071386,0.0006545176193905878,0.45290931443990606,-8.845127611150488,0.2564466319913566,-1.4896997471154576,9.747674546167882,-0.0008303708896225709,-0.0013001183706690253,0.001090830782496456,-24.009370523537545,54.61133383569281,-11.0
1772913955.6895351,0.0006545176193905878,0.45290931443990606,-8.845127611150488,0.2559063286890857,-1.4864076690328694,9.743398867564862,-0.002365363000814823,0.0005954971490993437,0.0,-23.942084153285386,54.306163728411164,-9.375
1772913955.7265518,0.0006545176193905878,0.45290931443990606,-8.845127611150488,0.2522082076969298,-1.484947245680548,9.745607020103897,0.001065244630145798,0.00023487374052322716,0.001090830782496456,-24.54617201905284,53.852963606574775,-8.5625
1772913955.774224,0.0006545176193905878,0.45290931443990606,-8.845127611150488,0.24974714948736837,-1.483975350253576,9.747076520951945,-0.002130489260291596,-0.0004697474810464543,0.0,-24.54617201905284,53.852963606574775,-8.5625
1772913955.828258,0.0006545176193905878,0.45290931443990606,-8.845127611150488,0.25137599265622035,-1.482608307344114,9.74805445735092,-0.00023487374052322716,0.001065244630145798,-0.001090830782496456,-24.314540630819188,54.54404746544065,-9.0
1772913955.8519158,0.0006545176193905878,0.45290931443990606,-8.845127611150488,0.25245996958972095,-1.4816985555587372,9.748705263100172,-0.001065244630145798,-0.00023487374052322716,0.0,-24.314540630819188,54.54404746544065,-9.0
1772913955.8854115,0.0006545176193905878,0.45290931443990606,-8.845127611150488,0.2531813441301498,-1.4810931259081621,9.752483478763642,0.0,0.0,-0.001090830782496456,-23.699853220377616,53.207551342197256,-9.375
1772913955.99906,0.0006545176193905878,0.45290931443990606,-8.845127611150488,0.2531813441301498,-1.4810931259081621,9.752483478763642,0.0,0.0,-0.001090830782496456,-23.699853220377616,53.207551342197256,-9.375
1772913956.0659215,0.0006545176193905878,0.45290931443990606,-8.845127611150488,0.2562732013278022,-1.485621724161894,9.756671117787034,0.0,0.0,0.0,-23.447559632838928,54.09519453948255,-10.5625
1772913956.1355672,0.0006545176193905878,0.45290931443990606,-8.845127611150488,0.2562732013278022,-1.485621724161894,9.756671117787034,0.0,0.0,0.0,-23.447559632838928,54.09519453948255,-10.5625
1772913956.1912172,0.0006545176193905878,0.45290931443990606,-8.845127611150488,0.25643926461484856,-1.4869706007043917,9.757784666073322,-0.0007046212215696815,0.0031957338904373945,-0.001090830782496456,-23.447559632838928,54.09519453948255,-10.5625
1772913956.2614777,0.0006545176193905878,0.45290931443990606,-8.845127611150488,0.25654977787732947,-1.4878682629754856,9.755180608311377,-0.00023487374052322716,0.001065244630145798,0.003272492347489368,-24.613458389305,54.158133713856415,-10.5625
1772913956.2919145,0.0006545176193905878,0.45290931443990606,-8.845127611150488,0.2573435805785918,-1.4917322971048474,9.753447636960034,-0.0017698658517154796,0.0029608601499141675,-0.002181661564992912,-24.613458389305,54.158133713856415,-10.5625
1772913956.3417706,0.0006545176193905878,0.45290931443990606,-8.845127611150488,0.25787184740892466,-1.4943037686538485,9.748949252176955,-0.0004697474810464543,0.002130489260291596,-0.001090830782496456,-24.613458389305,54.158133713856415,-9.375
1772913956.3712618,0.0006545176193905878,0.45290931443990606,-8.845127611150488,0.25787184740892466,-1.4943037686538485,9.748949252176955,-0.0004697474810464543,0.002130489260291596,-0.001090830782496456,-24.613458389305,54.158133713856415,-9.375
1772913956.4248962,0.0006545176193905878,0.45290931443990606,-8.845127611150488,0.25750314572378874,-1.4927484043289958,9.745955627354066,-0.00023487374052322716,0.001065244630145798,0.0,-24.613458389305,54.158133713856415,-9.375
1772913956.4881976,0.0006545176193905878,0.45290931443990606,-8.845127611150488,0.25399112895550496,-1.4924335841049596,9.743963403475414,-0.0015349921111922525,0.001895615519768369,0.001090830782496456,-24.009370523537545,54.61133383569281,-9.75
1772913956.5268552,0.0006545176193905878,0.45290931443990606,-8.845127611150488,0.25165392102801,-1.4922240747626356,9.742637600738771,0.00023487374052322716,-0.001065244630145798,0.0,-24.009370523537545,54.61133383569281,-9.75
1772913956.5652537,0.0006545176193905878,0.45290931443990606,-8.845127611150488,0.25165392102801,-1.4922240747626356,9.742637600738771,0.00023487374052322716,-0.001065244630145798,0.0,-24.009370523537545,54.61133383569281,-9.75
1772913956.617361,0.0006545176193905878,0.45290931443990606,-8.845127611150488,0.2500985352605853,-1.4920846486356918,9.745100405535041,-0.002130489260291596,-0.0004697474810464543,0.001090830782496456,-24.613458389305,54.158133713856415,-10.1875
1772913956.681724,0.0006545176193905878,0.45290931443990606,-8.845127611150488,0.2523300933226552,-1.4912716047461072,9.746739374615625,-0.002130489260291596,-0.0004697474810464543,-0.001090830782496456,-24.613458389305,54.158133713856415,-10.1875
1772913956.7189062,0.0006545176193905878,0.45290931443990606,-8.845127611150488,0.2530949129252305,-1.4874638832043905,9.747830090230272,-0.001895615519768369,-0.0015349921111922525,0.0,-23.215928244605273,54.78627839834842,-9.75
1772913956.7647963,0.0006545176193905878,0.45290931443990606,-8.845127611150488,0.25033724191165607,-1.4856501444130101,9.751901060995046,0.0008303708896225709,0.0013001183706690253,0.0,-23.215928244605273,54.78627839834842,-9.75
1772913956.7814238,0.0006545176193905878,0.45290931443990606,-8.845127611150488,0.24922230001692122,-1.4877097714236296,9.75461024656328,0.0,0.0,0.0,-24.24725426056703,54.23887735815901,-9.375
1772913956.8017101,0.0006545176193905878,0.45290931443990606,-8.845127611150488,0.24922230001692122,-1.4877097714236296,9.75461024656328,0.0,0.0,0.0,-24.24725426056703,54.23887735815901,-9.375
1772913956.832803,0.0006545176193905878,0.45290931443990606,-8.845127611150488,0.2484803186406922,-1.4890804301916556,9.756413179295354,-0.0013001183706690253,0.0008303708896225709,0.0,-24.24725426056703,54.23887735815901,-9.375
1772913956.8591518,0.0006545176193905878,0.45290931443990606,-8.845127611150488,0.2472662809636916,-1.486725938375022,9.75761301088847,0.0,0.0,0.0,-24.26505873049575,55.770980243363056,-9.75
1772913956.956048,0.0006545176193905878,0.45290931443990606,-8.845127611150488,0.24645835245133715,-1.4851590503724492,9.758411485410692,-0.001065244630145798,-0.00023487374052322716,0.0,-23.514846003091087,54.40036464676419,-10.1875
1772913957.01714,0.0006545176193905878,0.45290931443990606,-8.845127611150488,0.24645835245133715,-1.4851590503724492,9.758411485410692,-0.001065244630145798,-0.00023487374052322716,0.0,-23.514846003091087,54.40036464676419,-10.1875
1772913957.0604355,0.0006545176193905878,0.45290931443990606,-8.845127611150488,0.24664094241111337,-1.4873829538255163,9.755597749578367,0.0,0.0,-0.001090830782496456,-23.514846003091087,54.40036464676419,-10.1875
1772913957.0875375,0.0006545176193905878,0.45290931443990606,-8.845127611150488,0.24676245398968094,-1.4888629367309032,9.753725239813443,-0.001895615519768369,-0.0015349921111922525,0.0,-24.090114167840134,54.97753796443078,-10.5625
1772913957.1257446,0.0006545176193905878,0.45290931443990606,-8.845127611150488,0.24684331858784436,-1.4898478488219458,9.752479105482191,-0.0016607417792451418,-0.0026002367413380505,-0.001090830782496456,-24.090114167840134,54.97753796443078,-10.5625
1772913957.1712713,0.0006545176193905878,0.45290931443990606,-8.845127611150488,0.24684331858784436,-1.4898478488219458,9.752479105482191,-0.0016607417792451418,-0.0026002367413380505,-0.001090830782496456,-24.090114167840134,54.97753796443078,-10.5625
1772913957.2066264,0.0006545176193905878,0.45290931443990606,-8.845127611150488,0.24689713307460542,-1.4905032968163456,9.751649817004976,-0.00023487374052322716,0.001065244630145798,-0.001090830782496456,-23.942084153285386,54.306163728411164,-9.0
1772913957.2533453,0.0006545176193905878,0.45290931443990606,-8.845127611150488,0.2501995959298912,-1.4902192327751898,9.74440771137251,-0.0015349921111922525,0.001895615519768369,-0.002181661564992912,-23.942084153285386,54.306163728411164,-9.0
1772913957.2792912,0.0006545176193905878,0.45290931443990606,-8.845127611150488,0.25239734806915665,-1.4900301913290037,9.746278394388362,-0.0013001183706690253,0.0008303708896225709,0.001090830782496456,-24.918628496586642,54.09084734360426,-10.5625
1772913957.325098,0.0006545176193905878,0.45290931443990606,-8.845127611150488,0.2603932273983249,-1.4884638716391076,9.747523313038513,-0.0013001183706690253,0.0008303708896225709,-0.001090830782496456,-24.918628496586642,54.09084734360426,-10.5625
1772913957.3505597,0.0006545176193905878,0.45290931443990606,-8.845127611150488,0.26499413841246644,-1.4841548534669258,9.748351792493537,0.0017698658517154796,-0.0029608601499141675,0.0,-24.770598482031893,53.41947310758464,-10.5625
1772913957.3880072,0.0006545176193905878,0.45290931443990606,-8.845127611150488,0.2647893433813405,-1.4820075073678207,9.748903136316134,0.0,0.0,-0.002181661564992912,-24.770598482031893,53.41947310758464,-10.5625
1772913957.4016292,0.0006545176193905878,0.45290931443990606,-8.845127611150488,0.2613864046603431,-1.4812987298858893,9.752615161178477,0.00023487374052322716,-0.001065244630145798,-0.001090830782496456,-24.770598482031893,53.41947310758464,-10.5625
1772913957.4198377,0.0006545176193905878,0.45290931443990606,-8.845127611150488,0.2613864046603431,-1.4812987298858893,9.752615161178477,0.00023487374052322716,-0.001065244630145798,-0.001090830782496456,-24.770598482031893,53.41947310758464,-10.5625
1772913957.4382756,0.0006545176193905878,0.45290931443990606,-8.845127611150488,0.25912178695483545,-1.4808270463892272,9.755085472258331,-0.0008303708896225709,-0.0013001183706690253,-0.001090830782496456,-24.314540630819188,54.54404746544065,-11.0
1772913957.4668443,0.0006545176193905878,0.45290931443990606,-8.845127611150488,0.25434805925376397,-1.4812334036508439,9.756729436686792,0.0005954971490993437,0.002365363000814823,0.0,-24.314540630819188,54.54404746544065,-11.0
1772913957.5065467,0.0006545176193905878,0.45290931443990606,-8.845127611150488,0.25434805925376397,-1.4812334036508439,9.756729436686792,0.0005954971490993437,0.002365363000814823,0.0,-24.314540630819188,54.54404746544065,-11.0
1772913957.5455272,0.0006545176193905878,0.45290931443990606,-8.845127611150488,0.25013821845641476,-1.4814454064021378,9.758551548023698,-0.0008303708896225709,-0.0013001183706690253,0.001090830782496456,-23.794054138730637,53.634789492391555,-9.75
1772913957.5844133,0.0006545176193905878,0.45290931443990606,-8.845127611150488,0.25490289460208765,-1.480204400612711,9.75569095968272,-0.0008303708896225709,-0.0013001183706690253,-0.001090830782496456,-24.46542837475025,53.486759477836806,-9.75
1772913957.609513,0.0006545176193905878,0.45290931443990606,-8.845127611150488,0.24899404096522756,-1.4848059471170703,9.753787270096666,-0.0013001183706690253,0.0008303708896225709,-0.001090830782496456,-24.46542837475025,53.486759477836806,-9.75
1772913957.640449,0.0006545176193905878,0.45290931443990606,-8.845127611150488,0.25159506470710435,-1.4864277101938883,9.752520385942752,0.0,0.0,0.0,-24.46542837475025,53.486759477836806,-9.75
1772913957.665099,0.0006545176193905878,0.45290931443990606,-8.845127611150488,0.25159506470710435,-1.4864277101938883,9.752520385942752,0.0,0.0,0.0,-24.46542837475025,53.486759477836806,-9.75
1772913957.6923666,0.0006545176193905878,0.45290931443990606,-8.845127611150488,0.25332601695198437,-1.4875069754052301,9.758367512104984,0.0,0.0,-0.001090830782496456,-24.24725426056703,54.23887735815901,-11.375
1772913957.7313554,0.0006545176193905878,0.45290931443990606,-8.845127611150488,0.25447794633494847,-1.4882252143471957,9.755568485834631,0.00023487374052322716,-0.001065244630145798,0.001090830782496456,-24.24725426056703,54.23887735815901,-11.375
1772913957.7590795,0.0006545176193905878,0.45290931443990606,-8.845127611150488,0.2519778925559231,-1.489423451699414,9.753705765118884,-0.0015349921111922525,0.001895615519768369,0.001090830782496456,-23.942084153285386,54.306163728411164,-11.375
1772913957.7987888,0.0006545176193905878,0.45290931443990606,-8.845127611150488,0.2519778925559231,-1.489423451699414,9.753705765118884,-0.0015349921111922525,0.001895615519768369,0.001090830782496456,-23.942084153285386,54.306163728411164,-11.375
1772913957.814029,0.0006545176193905878,0.45290931443990606,-8.845127611150488,0.25031413469341246,-1.4902208652721274,9.752466145290509,-0.0015349921111922525,0.001895615519768369,0.001090830782496456,-23.942084153285386,54.306163728411164,-11.375
1772913957.8268483,0.0006545176193905878,0.45290931443990606,-8.845127611150488,0.25031413469341246,-1.4902208652721274,9.752466145290509,-0.0015349921111922525,0.001895615519768369,0.001090830782496456,-23.942084153285386,54.306163728411164,-11.375
1772913957.8400826,0.0006545176193905878,0.45290931443990606,-8.845127611150488,0.2459402725058111,-1.4914717924566703,9.751641192142186,0.001065244630145798,0.00023487374052322716,-0.001090830782496456,-22.634407731060396,53.89047769934976,-10.1875
1772913957.8601031,0.0006545176193905878,0.45290931443990606,-8.845127611150488,0.24230925871960915,-1.4890376206087175,9.757782418451946,0.0,0.0,0.002181661564992912,-22.634407731060396,53.89047769934976,-10.1875
1772913957.8760605,0.0006545176193905878,0.45290931443990606,-8.845127611150488,0.24230925871960915,-1.4890376206087175,9.757782418451946,0.0,0.0,0.002181661564992912,-22.634407731060396,53.89047769934976,-10.1875
1772913957.8965135,0.0006545176193905878,0.45290931443990606,-8.845127611150488,0.2464261594369605,-1.4859771917161957,9.75852422425178,-0.0013001183706690253,0.0008303708896225709,-0.002181661564992912,-22.634407731060396,53.89047769934976,-10.1875
1772913957.9155667,0.0006545176193905878,0.45290931443990606,-8.845127611150488,0.24916591087556353,-1.483940510475453,9.759017887725054,-0.0004697474810464543,0.002130489260291596,-0.001090830782496456,-24.09922424601228,53.56750312213939,-9.75
1772913957.942467,0.0006545176193905878,0.45290931443990606,-8.845127611150488,0.24772253493743138,-1.4833053792205544,9.759346415251937,0.00023487374052322716,-0.001065244630145798,0.002181661564992912,-24.09922424601228,53.56750312213939,-9.75
1772913957.9714675,0.0006545176193905878,0.45290931443990606,-8.845127611150488,0.24820249909336067,-1.4894160062962873,9.759565046651185,0.0008303708896225709,0.0013001183706690253,0.0,-24.09922424601228,53.56750312213939,-9.75
1772913957.9932423,0.0006545176193905878,0.45290931443990606,-8.845127611150488,0.24820249909336067,-1.4894160062962873,9.759565046651185,0.0008303708896225709,0.0013001183706690253,0.0,-24.09922424601228,53.56750312213939,-9.75
1772913958.0291982,0.0006545176193905878,0.45290931443990606,-8.845127611150488,0.24873447418642688,-1.4961888066547058,9.759807369869543,-0.0026002367413380505,0.0016607417792451418,0.0,-24.24725426056703,54.23887735815901,-9.75
1772913958.0569072,0.0006545176193905878,0.45290931443990606,-8.845127611150488,0.24873447418642688,-1.4961888066547058,9.759807369869543,-0.0026002367413380505,0.0016607417792451418,0.0,-24.24725426056703,54.23887735815901,-9.75
1772913958.0772896,0.0006545176193905878,0.45290931443990606,-8.845127611150488,0.2507020685557681,-1.4907362261458186,9.756526695092681,-0.00023487374052322716,0.001065244630145798,-0.001090830782496456,-24.24725426056703,54.23887735815901,-9.75
1772913958.097162,0.0006545176193905878,0.45290931443990606,-8.845127611150488,0.24874483071360187,-1.4878278520860646,9.754343442676218,0.0008303708896225709,0.0013001183706690253,-0.001090830782496456,-23.582132373343246,54.705534754045836,-9.75
1772913958.137475,0.0006545176193905878,0.45290931443990606,-8.845127611150488,0.24816256815301477,-1.4891590115534588,9.752890512581589,0.0003606234085761166,0.0034306076309606214,0.0,-23.582132373343246,54.705534754045836,-9.75
1772913958.1536949,0.0006545176193905878,0.45290931443990606,-8.845127611150488,0.24816256815301477,-1.4891590115534588,9.752890512581589,0.0003606234085761166,0.0034306076309606214,0.0,-23.582132373343246,54.705534754045836,-9.75
1772913958.1842318,0.0006545176193905878,0.45290931443990606,-8.845127611150488,0.24777507892324308,-1.490044883308984,9.755268715541225,-0.0008303708896225709,-0.0013001183706690253,0.001090830782496456,-23.874797783033227,54.000993621129524,-9.75
1772913958.2215283,0.0006545176193905878,0.45290931443990606,-8.845127611150488,0.2475172091693683,-1.4906344210664502,9.756851383044596,-0.0026002367413380505,0.0016607417792451418,-0.001090830782496456,-23.874797783033227,54.000993621129524,-9.75
1772913958.2679572,0.0006545176193905878,0.45290931443990606,-8.845127611150488,0.244078949813265,-1.491747009218071,9.757904630588534,-0.0008303708896225709,-0.0013001183706690253,0.0,-23.794054138730637,53.634789492391555,-9.375
1772913958.2955272,0.0006545176193905878,0.45290931443990606,-8.845127611150488,0.2450574765351454,-1.4917671668449555,9.7619506667708,-0.0004697474810464543,0.002130489260291596,-0.002181661564992912,-23.794054138730637,53.634789492391555,-9.375
1772913958.3121827,0.0006545176193905878,0.45290931443990606,-8.845127611150488,0.2450574765351454,-1.4917671668449555,9.7619506667708,-0.0004697474810464543,0.002130489260291596,-0.002181661564992912,-23.794054138730637,53.634789492391555,-9.375
1772913958.349111,0.0006545176193905878,0.45290931443990606,-8.845127611150488,0.24642893249729236,-1.495047231435965,9.76464325865291,-0.0008303708896225709,-0.0013001183706690253,0.001090830782496456,-23.000611859798365,53.809734055047166,-10.5625
1772913958.3652525,0.0006545176193905878,0.45290931443990606,-8.845127611150488,0.24734162111993427,-1.4972300777805596,9.766435148472233,-0.0005954971490993437,-0.002365363000814823,0.0,-23.000611859798365,53.809734055047166,-10.5625
1772913958.400043,0.0006545176193905878,0.45290931443990606,-8.845127611150488,0.24734162111993427,-1.4972300777805596,9.766435148472233,-0.0005954971490993437,-0.002365363000814823,0.0,-23.000611859798365,53.809734055047166,-10.5625
1772913958.4314737,0.0006545176193905878,0.45290931443990606,-8.845127611150488,0.2479490052029025,-1.498682737638896,9.764282519422952,0.00023487374052322716,-0.001065244630145798,-0.001090830782496456,-24.54617201905284,53.852963606574775,-11.0
1772913958.4692035,0.0006545176193905878,0.45290931443990606,-8.845127611150488,0.2548865123561802,-1.4982089518281545,9.762849968837099,-0.0008303708896225709,-0.0013001183706690253,-0.001090830782496456,-24.54617201905284,53.852963606574775,-11.0
1772913958.4940014,0.0006545176193905878,0.45290931443990606,-8.845127611150488,0.25806283115046325,-1.4913603528326531,9.761896622424851,-0.001065244630145798,-0.00023487374052322716,-0.001090830782496456,-24.613458389305,54.158133713856415,-9.0
1772913958.5314906,0.0006545176193905878,0.45290931443990606,-8.845127611150488,0.25806283115046325,-1.4913603528326531,9.761896622424851,-0.001065244630145798,-0.00023487374052322716,-0.001090830782496456,-24.613458389305,54.158133713856415,-9.0
1772913958.5685956,0.0006545176193905878,0.45290931443990606,-8.845127611150488,0.2576302432703545,-1.4907895939800992,9.761262181037077,0.001895615519768369,0.0015349921111922525,0.0,-24.613458389305,54.158133713856415,-9.0
1772913958.61819,0.0006545176193905878,0.45290931443990606,-8.845127611150488,0.2573423608684654,-1.4904097603395188,9.760839967380688,-0.001065244630145798,-0.00023487374052322716,-0.001090830782496456,-24.680744759557157,54.46330382113806,-9.375
1772913958.6544993,0.0006545176193905878,0.45290931443990606,-8.845127611150488,0.2538841284303718,-1.4908772426543278,9.760558988908798,0.001065244630145798,0.00023487374052322716,0.0,-24.680744759557157,54.46330382113806,-9.375
1772913958.6767023,0.0006545176193905878,0.45290931443990606,-8.845127611150488,0.25086245601421275,-1.4879216969972198,9.75702688916717,-0.0009394949620929086,0.004260978520583192,0.0,-23.874797783033227,54.000993621129524,-9.375
1772913958.7092698,0.0006545176193905878,0.45290931443990606,-8.845127611150488,0.24885156677555148,-1.4859548143780226,9.758021427952576,-0.00023487374052322716,0.001065244630145798,-0.001090830782496456,-23.874797783033227,54.000993621129524,-9.375
1772913958.7461302,0.0006545176193905878,0.45290931443990606,-8.845127611150488,0.24751334245032702,-1.4846458759664654,9.755338170697218,-0.001065244630145798,-0.00023487374052322716,-0.001090830782496456,-24.770598482031893,53.41947310758464,-10.5625
1772913958.7816274,0.0006545176193905878,0.45290931443990606,-8.845127611150488,0.24751334245032702,-1.4846458759664654,9.755338170697218,-0.001065244630145798,-0.00023487374052322716,-0.001090830782496456,-24.770598482031893,53.41947310758464,-10.5625
1772913958.807618,0.0006545176193905878,0.45290931443990606,-8.845127611150488,0.24988941902632894,-1.483054534715779,9.756897604675045,0.0,0.0,0.0,-24.770598482031893,53.41947310758464,-10.5625
1772913958.8306906,0.0006545176193905878,0.45290931443990606,-8.845127611150488,0.25147067144514373,-1.4819955148898938,9.757935390567269,0.00023487374052322716,-0.001065244630145798,-0.001090830782496456,-24.24725426056703,54.23887735815901,-10.1875
1772913958.8746014,0.0006545176193905878,0.45290931443990606,-8.845127611150488,0.25252297726611805,-1.4812907490257938,9.761971137193035,-0.001895615519768369,-0.0015349921111922525,0.0,-24.24725426056703,54.23887735815901,-10.1875
1772913958.9172378,0.0006545176193905878,0.45290931443990606,-8.845127611150488,0.25067688247905195,-1.4848086424910745,9.76131176978292,-0.0015349921111922525,0.001895615519768369,-0.002181661564992912,-23.874797783033227,54.000993621129524,-10.5625
1772913958.950604,0.0006545176193905878,0.45290931443990606,-8.845127611150488,0.24944832702048944,-1.487149761294774,9.760872968137104,0.00023487374052322716,-0.001065244630145798,0.0,-23.874797783033227,54.000993621129524,-10.5625
1772913958.975215,0.0006545176193905878,0.45290931443990606,-8.845127611150488,0.24863073708667982,-1.4887077497066254,9.760580950543549,0.0,0.0,-0.002181661564992912,-24.46542837475025,53.486759477836806,-10.1875
1772913958.9983208,0.0006545176193905878,0.45290931443990606,-8.845127611150488,0.25135329003430107,-1.4890243162312464,9.760386616097088,0.001065244630145798,0.00023487374052322716,-0.001090830782496456,-24.46542837475025,53.486759477836806,-10.1875
1772913959.023004,0.0006545176193905878,0.45290931443990606,-8.845127611150488,0.25135329003430107,-1.4890243162312464,9.760386616097088,0.001065244630145798,0.00023487374052322716,-0.001090830782496456,-24.46542837475025,53.486759477836806,-10.1875
1772913959.0631216,0.0006545176193905878,0.45290931443990606,-8.845127611150488,0.25437087028440164,-1.489375187237584,9.753480999337,0.00023487374052322716,-0.001065244630145798,0.001090830782496456,-24.09922424601228,53.56750312213939,-10.5625
1772913959.0782394,0.0006545176193905878,0.45290931443990606,-8.845127611150488,0.25437087028440164,-1.489375187237584,9.753480999337,0.00023487374052322716,-0.001065244630145798,0.001090830782496456,-24.09922424601228,53.56750312213939,-10.5625
1772913959.0974436,0.0006545176193905878,0.45290931443990606,-8.845127611150488,0.25190663464040214,-1.4901887458119287,9.748971454466144,-0.001065244630145798,-0.00023487374052322716,-0.001090830782496456,-24.09922424601228,53.56750312213939,-10.5625
1772913959.1245008,0.0006545176193905878,0.45290931443990606,-8.845127611150488,0.25026671334663625,-1.4907301599551104,9.752660626144145,-0.002365363000814823,0.0005954971490993437,0.0,-23.794054138730637,53.634789492391555,-10.5625
1772913959.1459517,0.0006545176193905878,0.45290931443990606,-8.845127611150488,0.2491753640447562,-1.4910904650194057,9.755115728685107,-0.002365363000814823,0.0005954971490993437,-0.001090830782496456,-23.794054138730637,53.634789492391555,-10.5625
1772913959.1688812,0.0006545176193905878,0.45290931443990606,-8.845127611150488,0.25099547583142384,-1.487343336739734,9.756749572000825,-0.001065244630145798,-0.00023487374052322716,-0.001090830782496456,-23.794054138730637,53.634789492391555,-10.5625
1772913959.189784,0.0006545176193905878,0.45290931443990606,-8.845127611150488,0.25099547583142384,-1.487343336739734,9.756749572000825,-0.001065244630145798,-0.00023487374052322716,-0.001090830782496456,-23.794054138730637,53.634789492391555,-10.5625
1772913959.208719,0.0006545176193905878,0.45290931443990606,-8.845127611150488,0.24894008997797676,-1.4855699220873733,9.757836876476208,-0.00023487374052322716,0.001065244630145798,-0.001090830782496456,-23.874797783033227,54.000993621129524,-9.75
1772913959.2245784,0.0006545176193905878,0.45290931443990606,-8.845127611150488,0.2508389035681656,-1.4836694770869716,9.748525130336631,0.0,0.0,0.001090830782496456,-23.874797783033227,54.000993621129524,-9.75
1772913959.2381575,0.0006545176193905878,0.45290931443990606,-8.845127611150488,0.2508389035681656,-1.4836694770869716,9.748525130336631,0.0,0.0,0.001090830782496456,-23.874797783033227,54.000993621129524,-9.75
1772913959.2524264,0.0006545176193905878,0.45290931443990606,-8.845127611150488,0.24955615024540045,-1.4863916594436548,9.749018490714402,0.00012574966805288946,0.004495852261106419,-0.002181661564992912,-23.874797783033227,54.000993621129524,-9.75
1772913959.2696416,0.0006545176193905878,0.45290931443990606,-8.845127611150488,0.25124888479429197,-1.4842163341181693,9.749346816534612,-0.0003606234085761166,-0.0034306076309606214,0.002181661564992912,-24.24725426056703,54.23887735815901,-11.0
1772913959.2864964,0.0006545176193905878,0.45290931443990606,-8.845127611150488,0.25124888479429197,-1.4842163341181693,9.749346816534612,-0.0003606234085761166,-0.0034306076309606214,0.002181661564992912,-24.24725426056703,54.23887735815901,-11.0
1772913959.31797,24.450640999948718,-2.2790823038099495,8.403205915579937,0.2498289881715972,-1.4867555866891236,9.749565313700321,-0.001065244630145798,-0.00023487374052322716,0.0,-24.24725426056703,54.23887735815901,-11.0
1772913959.3399773,0.0006545176193905878,0.45290931443990606,-8.845127611150488,0.24816380547088307,-1.4851787809942905,9.74302049770869,0.00023487374052322716,-0.001065244630145798,-0.001090830782496456,-24.613458389305,54.158133713856415,-10.1875
1772913959.3536773,0.0006545176193905878,0.45290931443990606,-8.845127611150488,0.24777590234446265,-1.4873960843339462,9.738664995776643,-0.00023487374052322716,0.001065244630145798,-0.002181661564992912,-24.613458389305,54.158133713856415,-10.1875
1772913959.3735206,0.0006545176193905878,0.45290931443990606,-8.845127611150488,0.24777590234446265,-1.4873960843339462,9.738664995776643,-0.00023487374052322716,0.001065244630145798,-0.002181661564992912,-24.613458389305,54.158133713856415,-10.1875
1772913959.3965693,0.0006545176193905878,0.45290931443990606,-8.845127611150488,0.24751775714699173,-1.4888716749375859,9.74580179301697,-0.0004697474810464543,0.002130489260291596,0.001090830782496456,-24.613458389305,54.158133713856415,-10.1875
1772913959.4230547,0.0006545176193905878,0.45290931443990606,-8.845127611150488,0.25133287167683444,-1.4924000565567792,9.750551251857157,-0.001065244630145798,-0.00023487374052322716,-0.001090830782496456,-24.851342126334483,53.78567723632262,-10.5625
1772913959.4556098,0.0006545176193905878,0.45290931443990606,-8.845127611150488,0.25133287167683444,-1.4924000565567792,9.750551251857157,-0.001065244630145798,-0.00023487374052322716,-0.001090830782496456,-24.851342126334483,53.78567723632262,-10.5625
1772913959.4789379,0.0006545176193905878,0.45290931443990606,-8.845127611150488,0.25484115072355,-1.4930441385512743,9.750244135876752,0.0005954971490993437,0.002365363000814823,0.0,-24.851342126334483,53.78567723632262,-10.5625
1772913959.520194,0.0006545176193905878,0.45290931443990606,-8.845127611150488,0.2554862509347722,-1.4919101345667227,9.750162469698802,-0.0005954971490993437,-0.002365363000814823,0.0,-24.009370523537545,54.61133383569281,-10.5625
1772913959.5985477,0.0006545176193905878,0.45290931443990606,-8.845127611150488,0.255915557919099,-1.4911554675826582,9.756798345184286,-0.0004697474810464543,0.002130489260291596,-0.001090830782496456,-24.009370523537545,54.61133383569281,-10.5625
1772913959.641407,0.0006545176193905878,0.45290931443990606,-8.845127611150488,0.25620125692149526,-1.490653245134946,9.76121444619229,0.00023487374052322716,-0.001065244630145798,-0.002181661564992912,-24.851342126334483,53.78567723632262,-10.1875
1772913959.6570458,0.0006545176193905878,0.45290931443990606,-8.845127611150488,0.2556711290565278,-1.4870523717906923,9.760808200374715,0.00023487374052322716,-0.001065244630145798,0.0,-24.851342126334483,53.78567723632262,-10.1875
1772913959.6729841,0.0006545176193905878,0.45290931443990606,-8.845127611150488,0.2520516849688145,-1.4853762881640775,9.760537848321183,-0.0005954971490993437,-0.002365363000814823,0.0,-24.851342126334483,53.78567723632262,-10.1875
1772913959.6931505,0.0006545176193905878,0.45290931443990606,-8.845127611150488,0.24964298536028112,-1.4842608732336462,9.760357932049589,0.0,0.0,0.0,-24.090114167840134,54.97753796443078,-9.0
1772913959.7135935,0.0006545176193905878,0.45290931443990606,-8.845127611150488,0.24876028003733505,-1.4867852269729391,9.763583311487958,-0.00023487374052322716,0.001065244630145798,0.001090830782496456,-24.090114167840134,54.97753796443078,-9.0
1772913959.747881,0.0006545176193905878,0.45290931443990606,-8.845127611150488,0.2488931068649742,-1.491731806103053,9.755694430352385,-0.0003606234085761166,-0.0034306076309606214,0.0,-24.090114167840134,54.97753796443078,-9.0
1772913959.7658246,0.0006545176193905878,0.45290931443990606,-8.845127611150488,0.2489815016349952,-1.495023699257234,9.760479803203197,-0.002365363000814823,0.0005954971490993437,0.0,-24.17996789031487,53.93370725087737,-9.75
1772913959.7857516,0.0006545176193905878,0.45290931443990606,-8.845127611150488,0.2489815016349952,-1.495023699257234,9.760479803203197,-0.002365363000814823,0.0005954971490993437,0.0,-24.17996789031487,53.93370725087737,-9.75
1772913959.8028636,0.0006545176193905878,0.45290931443990606,-8.845127611150488,0.24832007000741466,-1.4939477674629924,9.760319303671974,0.001065244630145798,0.00023487374052322716,0.0,-24.17996789031487,53.93370725087737,-9.75
1772913959.8165424,0.0006545176193905878,0.45290931443990606,-8.845127611150488,0.24832007000741466,-1.4939477674629924,9.760319303671974,0.001065244630145798,0.00023487374052322716,0.0,-24.17996789031487,53.93370725087737,-9.75
1772913959.843358,0.0006545176193905878,0.45290931443990606,-8.845127611150488,0.24787989464793517,-1.4932317468728702,9.760212493026843,-0.00023487374052322716,0.001065244630145798,0.001090830782496456,-25.644784405266755,53.610732673667,-9.75
1772913959.8633416,0.0006545176193905878,0.45290931443990606,-8.845127611150488,0.24830722022287782,-1.4960218930841114,9.756796300028343,-0.0004697474810464543,0.002130489260291596,0.001090830782496456,-25.644784405266755,53.610732673667,-9.75
1772913959.8838634,0.0006545176193905878,0.45290931443990606,-8.845127611150488,0.24830722022287782,-1.4960218930841114,9.756796300028343,-0.0004697474810464543,0.002130489260291596,0.001090830782496456,-25.644784405266755,53.610732673667,-9.75
1772913959.9085207,0.0006545176193905878,0.45290931443990606,-8.845127611150488,0.24859160061946267,-1.497878704219717,9.751177750041897,0.0008303708896225709,0.0013001183706690253,-0.001090830782496456,-25.644784405266755,53.610732673667,-9.75
1772913959.9352672,0.0006545176193905878,0.45290931443990606,-8.845127611150488,0.251327245152551,-1.4951274840134343,9.747438667789233,-0.0017698658517154796,0.0029608601499141675,-0.003272492347489368,-24.9859148668388,54.3960174508859,-10.1875
1772913959.9742942,0.0006545176193905878,0.45290931443990606,-8.845127611150488,0.249881136114676,-1.4940168350588918,9.744950350318371,-0.002130489260291596,-0.0004697474810464543,-0.002181661564992912,-24.9859148668388,54.3960174508859,-10.1875
1772913959.9878001,0.0006545176193905878,0.45290931443990606,-8.845127611150488,0.249881136114676,-1.4940168350588918,9.744950350318371,-0.002130489260291596,-0.0004697474810464543,-0.002181661564992912,-24.9859148668388,54.3960174508859,-10.1875
1772913960.0043776,0.0006545176193905878,0.45290931443990606,-8.845127611150488,0.2489187667040666,-1.4932777105864057,9.749984626252479,-0.0004697474810464543,0.002130489260291596,0.001090830782496456,-22.849724115867303,54.867022042651016,-9.75
1772913960.0197747,0.0006545176193905878,0.45290931443990606,-8.845127611150488,0.2489187667040666,-1.4932777105864057,9.749984626252479,-0.0004697474810464543,0.002130489260291596,0.001090830782496456,-22.849724115867303,54.867022042651016,-9.75
1772913960.0546112,0.0006545176193905878,0.45290931443990606,-8.845127611150488,0.2482783206116767,-1.4927858315065274,9.749989768942761,-0.0015349921111922525,0.001895615519768369,-0.001090830782496456,-22.849724115867303,54.867022042651016,-9.75
1772913960.072189,0.0006545176193905878,0.45290931443990606,-8.845127611150488,0.24458546097594935,-1.493178748833113,9.753338303053015,-0.0008303708896225709,-0.0013001183706690253,0.001090830782496456,-23.191871425880723,52.935548131812304,-11.0
1772913960.0856397,0.0006545176193905878,0.45290931443990606,-8.845127611150488,0.24212790414031787,-1.4934402309247816,9.752221603390494,-0.0004697474810464543,0.002130489260291596,0.0,-23.191871425880723,52.935548131812304,-11.0
1772913960.1001306,0.0006545176193905878,0.45290931443990606,-8.845127611150488,0.24212790414031787,-1.4934402309247816,9.752221603390494,-0.0004697474810464543,0.002130489260291596,0.0,-23.191871425880723,52.935548131812304,-11.0
1772913960.1230974,0.0006545176193905878,0.45290931443990606,-8.845127611150488,0.24375907743440728,-1.4928939869762454,9.751478452239438,0.00023487374052322716,-0.001065244630145798,0.0,-23.191871425880723,52.935548131812304,-11.0
1772913960.1490252,0.0006545176193905878,0.45290931443990606,-8.845127611150488,0.2448446050402242,-1.4925304677304394,9.750983893449952,-0.00023487374052322716,0.001065244630145798,-0.001090830782496456,-24.009370523537545,54.61133383569281,-10.1875
1772913960.1647935,0.0006545176193905878,0.45290931443990606,-8.845127611150488,0.24628726889535268,-1.495555199648625,9.750654770100134,0.0,0.0,0.0,-24.009370523537545,54.61133383569281,-10.1875
1772913960.1812744,0.0006545176193905878,0.45290931443990606,-8.845127611150488,0.24628726889535268,-1.495555199648625,9.750654770100134,0.0,0.0,0.0,-24.009370523537545,54.61133383569281,-10.1875
1772913960.2029405,0.0006545176193905878,0.45290931443990606,-8.845127611150488,0.245806830856139,-1.491034825120721,9.750435742187378,0.00023487374052322716,-0.001065244630145798,0.0,-24.009370523537545,54.61133383569281,-10.1875
1772913960.2328465,0.0006545176193905878,0.45290931443990606,-8.845127611150488,0.2462073620674821,-1.4912932162837866,9.75028998155814,0.0004697474810464543,-0.002130489260291596,0.0,-24.676397563678872,52.992234957390345,-9.75
1772913960.2643442,0.0006545176193905878,0.45290931443990606,-8.845127611150488,0.24647391111440412,-1.4914651727163883,9.746847867780316,-0.00023487374052322716,0.001065244630145798,-0.002181661564992912,-24.676397563678872,52.992234957390345,-9.75
1772913960.2932582,0.0006545176193905878,0.45290931443990606,-8.845127611150488,0.24647391111440412,-1.4914651727163883,9.746847867780316,-0.00023487374052322716,0.001065244630145798,-0.002181661564992912,-24.676397563678872,52.992234957390345,-9.75
1772913960.3166006,0.0006545176193905878,0.45290931443990606,-8.845127611150488,0.2466512965275828,-1.4915796078014056,9.744557179512105,-0.001065244630145798,-0.00023487374052322716,0.001090830782496456,-24.676397563678872,52.992234957390345,-9.75
1772913960.342412,0.0006545176193905878,0.45290931443990606,-8.845127611150488,0.24931573709442656,-1.487668855797072,9.743032752058275,0.002130489260291596,0.0004697474810464543,-0.001090830782496456,-24.17996789031487,53.93370725087737,-9.75
1772913960.357189,0.0006545176193905878,0.45290931443990606,-8.845127611150488,0.2510888925279097,-1.4850662940241504,9.74870848603136,-0.0015349921111922525,0.001895615519768369,0.001090830782496456,-24.17996789031487,53.93370725087737,-9.75
1772913960.3706043,0.0006545176193905878,0.45290931443990606,-8.845127611150488,0.25226890766144877,-1.4833343182367908,9.752485623588345,-0.0031957338904373945,-0.0007046212215696815,0.0,-24.17996789031487,53.93370725087737,-9.75
1772913960.3874905,0.0006545176193905878,0.45290931443990606,-8.845127611150488,0.25226890766144877,-1.4833343182367908,9.752485623588345,-0.0031957338904373945,-0.0007046212215696815,0.0,-24.17996789031487,53.93370725087737,-9.75
1772913960.4127698,0.0006545176193905878,0.45290931443990606,-8.845127611150488,0.25305419455118633,-1.4821817076977406,9.758344378146449,0.0004697474810464543,-0.002130489260291596,-0.001090830782496456,-24.851342126334483,53.78567723632262,-10.1875
1772913960.4335523,0.0006545176193905878,0.45290931443990606,-8.845127611150488,0.25357679420407725,-1.4814146582595058,9.762243313858288,0.0013001183706690253,-0.0008303708896225709,-0.001090830782496456,-24.851342126334483,53.78567723632262,-10.1875
1772913960.45812,0.0006545176193905878,0.45290931443990606,-8.845127611150488,0.25357679420407725,-1.4814146582595058,9.762243313858288,0.0013001183706690253,-0.0008303708896225709,-0.001090830782496456,-24.851342126334483,53.78567723632262,-10.1875
1772913960.4757283,0.0006545176193905878,0.45290931443990606,-8.845127611150488,0.2553650931544461,-1.4874374952578515,9.761492900313232,0.0,0.0,-0.001090830782496456,-23.081355504100955,54.175938183785135,-9.375
1772913960.5095184,0.0006545176193905878,0.45290931443990606,-8.845127611150488,0.25328853621381486,-1.4921658833603482,9.760993508481667,-0.0008303708896225709,-0.0013001183706690253,0.001090830782496456,-23.081355504100955,54.175938183785135,-9.375
1772913960.528533,0.0006545176193905878,0.45290931443990606,-8.845127611150488,0.2504660960472951,-1.4887792729920164,9.760661168796332,0.0008303708896225709,0.0013001183706690253,0.0,-23.081355504100955,54.175938183785135,-9.375
1772913960.546582,0.0006545176193905878,0.45290931443990606,-8.845127611150488,0.25185444356069225,-1.4858052642632131,9.76044000044822,-0.0004697474810464543,0.002130489260291596,0.001090830782496456,-24.613458389305,54.158133713856415,-11.0
1772913960.5624485,0.0006545176193905878,0.45290931443990606,-8.845127611150488,0.25185444356069225,-1.4858052642632131,9.76044000044822,-0.0004697474810464543,0.002130489260291596,0.001090830782496456,-24.613458389305,54.158133713856415,-11.0
1772913960.578107,0.0006545176193905878,0.45290931443990606,-8.845127611150488,0.25421888804119075,-1.490359394507036,9.760292815383163,0.0013001183706690253,-0.0008303708896225709,0.0,-24.613458389305,54.158133713856415,-11.0
1772913960.5944521,0.0006545176193905878,0.45290931443990606,-8.845127611150488,0.25421888804119075,-1.490359394507036,9.760292815383163,0.0013001183706690253,-0.0008303708896225709,0.0,-24.613458389305,54.158133713856415,-11.0
1772913960.6216652,0.0006545176193905878,0.45290931443990606,-8.845127611150488,0.2525257495148934,-1.494110374670927,9.760194865366532,-0.00023487374052322716,0.001065244630145798,-0.003272492347489368,-24.613458389305,54.158133713856415,-11.0
1772913960.663478,0.0006545176193905878,0.45290931443990606,-8.845127611150488,0.25139898473923916,-1.4966066100688025,9.760129680724638,0.0,0.0,-0.001090830782496456,-24.46542837475025,53.486759477836806,-10.1875
1772913960.682078,0.0006545176193905878,0.45290931443990606,-8.845127611150488,0.25139898473923916,-1.4966066100688025,9.760129680724638,0.0,0.0,-0.001090830782496456,-24.46542837475025,53.486759477836806,-10.1875
1772913960.7115889,0.0006545176193905878,0.45290931443990606,-8.845127611150488,0.2513693927274238,-1.501534476756806,9.760086301073619,0.0,0.0,-0.001090830782496456,-24.46542837475025,53.486759477836806,-10.1875
1772913960.7525785,0.0006545176193905878,0.45290931443990606,-8.845127611150488,0.2513496995741251,-1.5048139169897943,9.763402544107766,-0.0004697474810464543,0.002130489260291596,-0.001090830782496456,-22.906410941445344,53.38249590485287,-9.375
1772913960.7740254,0.0006545176193905878,0.45290931443990606,-8.845127611150488,0.25061633664099653,-1.5037296979156067,9.76226435509481,0.0007046212215696815,-0.0031957338904373945,-0.001090830782496456,-22.906410941445344,53.38249590485287,-9.375
1772913960.7944756,0.0006545176193905878,0.45290931443990606,-8.845127611150488,0.2494080344416049,-1.4997415123177622,9.758161791313773,-0.0003606234085761166,-0.0034306076309606214,0.0,-22.906410941445344,53.38249590485287,-9.375
1772913960.811366,0.0006545176193905878,0.45290931443990606,-8.845127611150488,0.2494080344416049,-1.4997415123177622,9.758161791313773,-0.0003606234085761166,-0.0034306076309606214,0.0,-22.906410941445344,53.38249590485287,-9.375
1772913960.829526,0.0006545176193905878,0.45290931443990606,-8.845127611150488,0.251150315381428,-1.49310051207826,9.755431580946134,-0.00023487374052322716,0.001065244630145798,-0.001090830782496456,-23.514846003091087,54.40036464676419,-11.0
1772913960.8489025,0.0006545176193905878,0.45290931443990606,-8.845127611150488,0.24976339132842867,-1.4926679078787934,9.756959768152237,-0.001065244630145798,-0.00023487374052322716,-0.14180800172453928,-23.514846003091087,54.40036464676419,-11.0
1772913960.8683302,0.0006545176193905878,0.45290931443990606,-8.845127611150488,0.24976339132842867,-1.4926679078787934,9.756959768152237,-0.001065244630145798,-0.00023487374052322716,-0.14180800172453928,-23.514846003091087,54.40036464676419,-11.0
1772913960.8821304,0.0006545176193905878,0.45290931443990606,-8.845127611150488,0.25138680142001274,-1.4883931073414653,9.75797675966693,0.0013001183706690253,-0.0008303708896225709,-0.002181661564992912,-23.514846003091087,54.40036464676419,-11.0
1772913960.895871,0.0006545176193905878,0.45290931443990606,-8.845127611150488,0.25138680142001274,-1.4883931073414653,9.75797675966693,0.0013001183706690253,-0.0008303708896225709,-0.002181661564992912,-23.514846003091087,54.40036464676419,-11.0
1772913960.9130518,0.0006545176193905878,0.45290931443990606,-8.845127611150488,0.24920051278578942,-1.4862685326961196,9.758653556159416,0.0009394949620929086,-0.004260978520583192,-0.002181661564992912,-23.874797783033227,54.000993621129524,-9.75
1772913960.9404383,0.0006545176193905878,0.45290931443990606,-8.845127611150488,0.25101221203765156,-1.4841343946431005,9.755758844957535,0.00023487374052322716,-0.001065244630145798,0.0,-23.874797783033227,54.000993621129524,-9.75
1772913960.9623325,0.0006545176193905878,0.45290931443990606,-8.845127611150488,0.24568457782077208,-1.484154664327891,9.757177558696046,0.0,0.0,0.0,-23.794054138730637,53.634789492391555,-9.75
1772913960.9885483,0.0006545176193905878,0.45290931443990606,-8.845127611150488,0.24568457782077208,-1.484154664327891,9.757177558696046,0.0,0.0,0.0,-23.794054138730637,53.634789492391555,-9.75
1772913961.0040214,0.0006545176193905878,0.45290931443990606,-8.845127611150488,0.24867239659399956,-1.4827276388575013,9.758121696840954,0.0015349921111922525,-0.001895615519768369,0.001090830782496456,-23.794054138730637,53.634789492391555,-9.75
1772913961.0226634,0.0006545176193905878,0.45290931443990606,-8.845127611150488,0.24811436405556161,-1.4857648766229647,9.758750010229676,-0.001065244630145798,-0.00023487374052322716,0.0,-23.794054138730637,53.634789492391555,-9.75
1772913961.0455449,0.0006545176193905878,0.45290931443990606,-8.845127611150488,0.24811436405556161,-1.4857648766229647,9.758750010229676,-0.001065244630145798,-0.00023487374052322716,0.0,-23.794054138730637,53.634789492391555,-9.75
1772913961.0717504,0.0006545176193905878,0.45290931443990606,-8.845127611150488,0.24702274227526774,-1.484519474512218,9.75916814577115,-0.001065244630145798,-0.00023487374052322716,0.001090830782496456,-24.24725426056703,54.23887735815901,-10.1875
1772913961.0869884,0.0006545176193905878,0.45290931443990606,-8.845127611150488,0.247736794893887,-1.4902239731505567,9.759446410303122,0.0008303708896225709,0.0013001183706690253,-0.001090830782496456,-24.24725426056703,54.23887735815901,-10.1875
1772913961.1084793,0.0006545176193905878,0.45290931443990606,-8.845127611150488,0.25003812413139076,-1.4867666960803634,9.75963159224073,-0.0008303708896225709,-0.0013001183706690253,0.001090830782496456,-24.24725426056703,54.23887735815901,-10.1875
1772913961.1356473,0.0006545176193905878,0.45290931443990606,-8.845127611150488,0.25003812413139076,-1.4867666960803634,9.75963159224073,-0.0008303708896225709,-0.0013001183706690253,0.001090830782496456,-24.24725426056703,54.23887735815901,-10.1875
1772913961.1753423,0.0006545176193905878,0.45290931443990606,-8.845127611150488,0.25426773890992266,-1.4905492618790106,9.759836841272925,0.0,0.0,-0.002181661564992912,-24.680744759557157,54.46330382113806,-9.75
1772913961.2064059,0.0006545176193905878,0.45290931443990606,-8.845127611150488,0.25426773890992266,-1.4905492618790106,9.759836841272925,0.0,0.0,-0.002181661564992912,-24.680744759557157,54.46330382113806,-9.75
1772913961.2399077,0.0006545176193905878,0.45290931443990606,-8.845127611150488,0.2551046517782329,-1.49024982201093,9.756546307982415,0.00023487374052322716,-0.001065244630145798,-0.001090830782496456,-24.680744759557157,54.46330382113806,-9.75
1772913961.2760623,0.0006545176193905878,0.45290931443990606,-8.845127611150488,0.255661607943164,-1.4900505481236848,9.754356494835246,-0.0008303708896225709,-0.0013001183706690253,0.0,-24.54617201905284,53.852963606574775,-9.75
1772913961.3058314,0.0006545176193905878,0.45290931443990606,-8.845127611150488,0.2560322560493176,-1.4899179335777581,9.75289919864762,-0.001895615519768369,-0.0015349921111922525,0.001090830782496456,-24.54617201905284,53.852963606574775,-9.75
1772913961.3409674,0.0006545176193905878,0.45290931443990606,-8.845127611150488,0.2562789182235522,-1.4898296800788455,9.75192938431382,-0.0013001183706690253,0.0008303708896225709,-0.001090830782496456,-24.24725426056703,54.23887735815901,-10.1875
1772913961.3636436,0.0006545176193905878,0.45290931443990606,-8.845127611150488,0.2562789182235522,-1.4898296800788455,9.75192938431382,-0.0013001183706690253,0.0008303708896225709,-0.001090830782496456,-24.24725426056703,54.23887735815901,-10.1875
1772913961.390994,0.0006545176193905878,0.45290931443990606,-8.845127611150488,0.25644306914510834,-1.4897709483611754,9.751283983708213,-0.0013001183706690253,0.0008303708896225709,0.0,-24.24725426056703,54.23887735815901,-10.1875
1772913961.4328144,0.0006545176193905878,0.45290931443990606,-8.845127611150488,0.25400591719381965,-1.493718770334231,9.750854476814778,0.00023487374052322716,-0.001065244630145798,0.0,-24.24725426056703,54.23887735815901,-10.1875
1772913961.4702556,0.0006545176193905878,0.45290931443990606,-8.845127611150488,0.25238401979500824,-1.4963460017572385,9.750568644775104,-0.001065244630145798,-0.00023487374052322716,0.0,-24.24725426056703,54.23887735815901,-9.75
1772913961.5023963,0.0006545176193905878,0.45290931443990606,-8.845127611150488,0.25058440783428504,-1.4948277450056584,9.750378426745653,-0.001065244630145798,-0.00023487374052322716,-0.001090830782496456,-24.24725426056703,54.23887735815901,-9.75
1772913961.5308716,0.0006545176193905878,0.45290931443990606,-8.845127611150488,0.25058440783428504,-1.4948277450056584,9.750378426745653,-0.001065244630145798,-0.00023487374052322716,-0.001090830782496456,-24.24725426056703,54.23887735815901,-9.75
1772913961.5658813,0.0006545176193905878,0.45290931443990606,-8.845127611150488,0.25193317873330484,-1.4898304548224324,9.750251838771929,-0.001065244630145798,-0.00023487374052322716,-0.001090830782496456,-22.782437745615145,54.56185193536937,-10.5625
1772913961.5891867,0.0006545176193905878,0.45290931443990606,-8.845127611150488,0.25283077069984433,-1.4865048140288843,9.750167595889495,-0.00023487374052322716,0.001065244630145798,0.0,-22.782437745615145,54.56185193536937,-10.5625
1772913961.6276393,0.0006545176193905878,0.45290931443990606,-8.845127611150488,0.2566947580423107,-1.4835713798710248,9.75345664489961,0.001065244630145798,0.00023487374052322716,0.001090830782496456,-24.918628496586642,54.09084734360426,-9.75
1772913961.6743004,0.0006545176193905878,0.45290931443990606,-8.845127611150488,0.2566947580423107,-1.4835713798710248,9.75345664489961,0.001065244630145798,0.00023487374052322716,0.001090830782496456,-24.918628496586642,54.09084734360426,-9.75
1772913961.7167675,0.0006545176193905878,0.45290931443990606,-8.845127611150488,0.2534531559837634,-1.4863263768422599,9.755645470274755,0.001895615519768369,0.0015349921111922525,0.0,-24.918628496586642,54.09084734360426,-9.75
1772913961.7494662,0.0006545176193905878,0.45290931443990606,-8.845127611150488,0.2520161633844631,-1.491426446466778,9.757102109111134,-0.00023487374052322716,0.001065244630145798,-0.001090830782496456,-24.17996789031487,53.93370725087737,-10.1875
1772913961.765661,0.0006545176193905878,0.45290931443990606,-8.845127611150488,0.25105986086188786,-1.494820485830384,9.758071485985022,0.0003606234085761166,0.0034306076309606214,0.0,-24.17996789031487,53.93370725087737,-10.1875
1772913961.787716,0.0006545176193905878,0.45290931443990606,-8.845127611150488,0.25105986086188786,-1.494820485830384,9.758071485985022,0.0003606234085761166,0.0034306076309606214,0.0,-24.17996789031487,53.93370725087737,-10.1875
1772913961.8381047,0.0006545176193905878,0.45290931443990606,-8.845127611150488,0.2497031948561179,-1.4938125311974662,9.755371483758626,-0.0013001183706690253,0.0008303708896225709,-0.001090830782496456,-25.136802610769866,53.33872946328206,-10.5625
1772913961.8813546,0.0006545176193905878,0.45290931443990606,-8.845127611150488,0.24880034878423024,-1.4931417486488505,9.753574662437961,-0.0007046212215696815,0.0031957338904373945,0.0,-25.136802610769866,53.33872946328206,-10.5625
1772913961.929674,0.0006545176193905878,0.45290931443990606,-8.845127611150488,0.2481995148088405,-1.4926953503558789,9.755724009628187,-0.001895615519768369,-0.0015349921111922525,-0.001090830782496456,-24.851342126334483,53.78567723632262,-10.1875
1772913961.9574926,0.0006545176193905878,0.45290931443990606,-8.845127611150488,0.2481995148088405,-1.4926953503558789,9.755724009628187,-0.001895615519768369,-0.0015349921111922525,-0.001090830782496456,-24.851342126334483,53.78567723632262,-10.1875
1772913961.9810126,0.0006545176193905878,0.45290931443990606,-8.845127611150488,0.24779966650997387,-1.4923982772785018,9.757154376173501,-0.0007046212215696815,0.0031957338904373945,-0.002181661564992912,-24.851342126334483,53.78567723632262,-10.1875
1772913962.0059235,0.0006545176193905878,0.45290931443990606,-8.845127611150488,0.24779966650997387,-1.4923982772785018,9.757154376173501,-0.0007046212215696815,0.0031957338904373945,-0.002181661564992912,-24.851342126334483,53.78567723632262,-10.1875
1772913962.026598,0.0006545176193905878,0.45290931443990606,-8.845127611150488,0.2508002218491699,-1.4914803211044358,9.758106269131165,0.0,0.0,-0.001090830782496456,-24.54617201905284,53.852963606574775,-9.75
1772913962.0538068,0.0006545176193905878,0.45290931443990606,-8.845127611150488,0.24953040799351187,-1.4915896888844327,9.75873974326115,0.001065244630145798,0.00023487374052322716,-0.001090830782496456,-24.54617201905284,53.852963606574775,-9.75
1772913962.0710084,0.0006545176193905878,0.45290931443990606,-8.845127611150488,0.24953040799351187,-1.4915896888844327,9.75873974326115,0.001065244630145798,0.00023487374052322716,-0.001090830782496456,-24.54617201905284,53.852963606574775,-9.75
1772913962.1153362,0.0006545176193905878,0.45290931443990606,-8.845127611150488,0.2519520109728152,-1.490942214560707,9.759161313218286,0.002365363000814823,-0.0005954971490993437,0.0,-24.54617201905284,53.852963606574775,-9.75
1772913962.154116,0.0006545176193905878,0.45290931443990606,-8.845127611150488,0.24847520274570672,-1.4881575078637623,9.75962856627127,0.0008303708896225709,0.0013001183706690253,0.0,-24.009370523537545,54.61133383569281,-10.1875
1772913962.1812937,0.0006545176193905878,0.45290931443990606,-8.845127611150488,0.24726287639272704,-1.4861117438755267,9.759752815002717,-0.003069984222384505,0.003791231039536738,0.002181661564992912,-24.009370523537545,54.61133383569281,-10.1875
1772913962.21015,0.0006545176193905878,0.45290931443990606,-8.845127611150488,0.24726287639272704,-1.4861117438755267,9.759752815002717,-0.003069984222384505,0.003791231039536738,0.002181661564992912,-24.009370523537545,54.61133383569281,-10.1875
1772913962.230406,-0.007035173460227178,0.45233912398595966,-8.84563573518946,0.2464560867473918,-1.4847503107940372,9.749800166023586,-0.005670220963722555,0.00545197281878188,-0.007635815477475192,-25.136802610769866,53.33872946328206,-9.75
1772913962.2587996,-0.027894176571969083,0.4522395961640274,-8.83167792360342,0.24519891989125675,-1.4805776423710164,9.74317678930635,0.009587201671312183,0.0021138636647090444,-0.008726646259971648,-25.136802610769866,53.33872946328206,-9.75
1772913962.2919352,-0.027894176571969083,0.4522395961640274,-8.83167792360342,0.24519891989125675,-1.4805776423710164,9.74317678930635,0.009587201671312183,0.0021138636647090444,-0.008726646259971648,-25.136802610769866,53.33872946328206,-9.75
1772913962.3162239,-0.027894176571969083,0.4522395961640274,-8.83167792360342,0.25670863169435176,-1.4716530987933816,9.785600569991466,-0.003791231039536738,-0.003069984222384505,-0.002181661564992912,-25.217546255072456,53.704933592020026,-10.1875
1772913962.3546085,-0.027894176571969083,0.4522395961640274,-8.83167792360342,0.2643682163274063,-1.4657139147361498,9.81383312213273,-0.004151854448112854,-0.0065005918533451255,-0.002181661564992912,-25.217546255072456,53.704933592020026,-10.1875
1772913962.3777287,-0.027894176571969083,0.4522395961640274,-8.83167792360342,0.2643682163274063,-1.4657139147361498,9.81383312213273,-0.004151854448112854,-0.0065005918533451255,-0.002181661564992912,-25.217546255072456,53.704933592020026,-10.1875
1772913962.395835,-0.03482633554770518,0.451701281583267,-8.831646799891594,0.2650420729907064,-1.5038422825153988,9.805860676545914,0.0029608601499141675,0.0017698658517154796,-0.011999138607461015,-25.217546255072456,53.704933592020026,-9.75
1772913962.4179938,-0.04869037868591911,0.4506246850268086,-8.831584358316835,0.2654905170726605,-1.5292162853507134,9.800555103065939,0.0028517360774438292,0.007330962742967698,-0.017453292519943295,-25.217546255072456,53.704933592020026,-9.75
1772913962.4537814,-0.04869037868591911,0.4506246850268086,-8.831584358316835,0.2654905170726605,-1.5292162853507134,9.800555103065939,0.0028517360774438292,0.007330962742967698,-0.017453292519943295,-25.217546255072456,53.704933592020026,-9.75
1772913962.470482,-0.055590866675614546,0.44932577426902026,-8.838484846306528,0.292642408283296,-1.5436069918301625,9.820440085133392,-0.0067354655938683524,0.005217099078258653,0.008726646259971648,-25.284832625324615,54.010103699301666,-10.5625
1772913962.493596,-0.08404780786489349,0.44637704624443303,-8.845829039325551,0.31359271801585675,-1.566250445899486,9.833673318569476,-0.004982225337735426,-0.007800710224014152,-0.04036073895236887,-25.284832625324615,54.010103699301666,-10.5625
1772913962.5133433,-0.08404780786489349,0.44637704624443303,-8.845829039325551,0.31359271801585675,-1.566250445899486,9.833673318569476,-0.004982225337735426,-0.007800710224014152,-0.04036073895236887,-25.284832625324615,54.010103699301666,-10.5625
1772913962.5436635,-0.1577733820293028,0.31975468023065673,-8.790055265790913,0.251812412200599,-1.7350336437654559,9.875931004669482,0.0473498817064366,-0.05769883648267364,-0.05781403147231216,-25.284832625324615,54.010103699301666,-10.5625
1772913962.5743876,-0.03709694917202252,0.06129369452698489,-8.527822926358736,0.1540593824116821,-1.8701215587325952,9.904053022719753,0.17083513082543642,-0.08073822834377248,0.05345070834232634,-23.942084153285386,54.306163728411164,-9.75
1772913962.6184394,0.22659710368345604,-0.0393873515789026,-8.267751114367446,0.09783060747378697,-2.108795454911224,9.93280324671064,0.17207600191038278,-0.04583665488506692,0.14726215563702155,-23.942084153285386,54.306163728411164,-9.75
1772913962.653297,0.7474664158607488,0.31998061437220526,-8.568638169537602,0.017842569778514353,-2.33867434024799,10.045599327420472,0.11969401807946307,-0.026109376083483342,0.24107360293171676,-24.595653919376282,52.626030828652375,-7.75
1772913962.6748557,1.206879598290431,0.8572884856230488,-9.047157341018217,-0.04835320825547713,-2.432856472045317,10.14407964106932,0.031176844801499022,0.035916941302103704,0.21380283336930536,-24.595653919376282,52.626030828652375,-7.75
1772913962.6914852,1.4558688564212092,1.1164412875490288,-9.343387677134542,-0.08924107635557245,-2.5564940992307608,10.259793865315235,0.0008968732719527781,0.041527914980103574,0.2519819107566813,-24.595653919376282,52.626030828652375,-7.75
1772913962.716443,1.4558688564212092,1.1164412875490288,-9.343387677134542,-0.08924107635557245,-2.5564940992307608,10.259793865315235,0.0008968732719527781,0.041527914980103574,0.2519819107566813,-24.595653919376282,52.626030828652375,-7.75
1772913962.7362993,1.8738785640563276,1.3963607410763106,-9.502919295244178,-0.10780840751362854,-2.677973357985805,10.376941729426143,-0.042208655509483176,0.09010929727251148,0.2683443724941282,-23.385988721339398,50.33269998495398,-6.5625
1772913962.7517743,2.30255870454686,1.71954674878067,-9.593999221199024,-0.15293322533283044,-2.8276997491882696,10.47497299460848,-0.11700339826360474,0.15069312102379406,0.29561514205653955,-23.385988721339398,50.33269998495398,-6.5625
1772913962.7666655,2.30255870454686,1.71954674878067,-9.593999221199024,-0.15293322533283044,-2.8276997491882696,10.47497299460848,-0.11700339826360474,0.15069312102379406,0.29561514205653955,-23.385988721339398,50.33269998495398,-6.5625
1772913962.7875993,2.5929228564808566,2.0025923119277467,-9.696792967312112,-0.21910037096321355,-3.0586252767702073,10.54021170650634,-0.145337877486635,0.1880099342700621,0.30325095753401476,-23.385988721339398,50.33269998495398,-6.5625
1772913962.8205912,3.0652002328803856,2.448847213277022,-9.807252987269056,-0.26313386724478655,-3.2123036357688206,10.50668977124186,-0.10771031761853847,0.18960417366697702,0.33161255787892263,-22.19263852672926,46.371740939088454,-8.1875
