timestamp,yaw,pitch,roll,ax,ay,az,gx,gy,gz,mx,my,mz
1773080187.392221,-0.04298337673080366,0.6910816365393178,-7.117933084578367,-0.11860374524426603,-1.2246192886420675,9.767116871759846,0.0,0.0,0.001090830782496456,-7.6875,21.1875,15.375
1773080187.4062245,-0.04298337673080366,0.6910816365393178,-7.117933084578367,-0.12241591976456602,-1.2264191966977802,9.77142642207015,0.001090830782496456,0.003272492347489368,0.0,-7.6875,21.25,15.375
1773080187.4234726,-0.04298337673080366,0.6910816365393178,-7.117933084578367,-0.11826265590840723,-1.2242719036952472,9.774294379660825,0.0,0.004363323129985824,0.0,-7.6875,21.25,15.375
1773080187.4355276,-0.04298337673080366,0.6910816365393178,-7.117933084578367,-0.11826265590840723,-1.2242719036952472,9.774294379660825,0.0,0.004363323129985824,0.0,-7.6875,21.25,15.375
1773080187.449017,0.019986574909559584,0.688035151541127,-7.166794891070506,-0.11549870520713076,-1.2261880158962153,9.776202973400235,-0.05781403147231216,-0.018544123302439753,0.08617563181722002,-7.6875,21.25,15.375
1773080187.466697,0.019986574909559584,0.688035151541127,-7.166794891070506,-0.11549870520713076,-1.2261880158962153,9.776202973400235,-0.05781403147231216,-0.018544123302439753,0.08617563181722002,-7.6875,21.25,15.375
1773080187.4917235,0.34119595165884303,0.7013101730331369,-7.220748691028427,-0.05344731615903474,-1.3646127471616787,9.777473121213422,-0.020725784867432664,-0.008726646259971648,0.14508049407202864,-8.375,21.0,16.1875
1773080187.507561,0.34119595165884303,0.7013101730331369,-7.220748691028427,-0.05344731615903474,-1.3646127471616787,9.777473121213422,-0.020725784867432664,-0.008726646259971648,0.14508049407202864,-8.375,21.0,16.1875
1773080187.524021,0.45806626953842483,0.7367531085570129,-7.2270068521435595,-0.012152809906960292,-1.55374109902554,9.731486826492146,-0.007635815477475192,0.032724923474893676,0.08726646259971647,-8.375,21.0,16.1875
1773080187.5394857,-19.41843640192423,0.7488555132841174,-7.2071746266384995,-0.18203336801790826,-1.6796039044888191,9.700883461055708,0.007635815477475192,-0.008726646259971648,-0.05999569303730508,-8.375,21.0,16.1875
1773080187.557995,-19.41843640192423,0.7488555132841174,-7.2071746266384995,-0.18203336801790826,-1.6796039044888191,9.700883461055708,0.007635815477475192,-0.008726646259971648,-0.05999569303730508,-8.375,21.0,16.1875
1773080187.5791101,-19.41843640192423,0.7488555132841174,-7.2071746266384995,-0.18203336801790826,-1.6796039044888191,9.700883461055708,0.007635815477475192,-0.008726646259971648,-0.05999569303730508,-8.375,21.0,16.1875
1773080187.6182468,-19.582967131296833,0.7684756710835086,-7.199159947910386,-0.2950869817505679,-1.7299130784717767,9.657101481268516,0.026179938779914945,-0.004363323129985824,-0.018544123302439753,-7.6875,19.5,15.375
1773080187.633769,-19.582967131296833,0.7684756710835086,-7.199159947910386,-0.2950869817505679,-1.7299130784717767,9.657101481268516,0.026179938779914945,-0.004363323129985824,-0.018544123302439753,-7.6875,19.5,15.375
1773080187.6622741,-19.51924325469438,0.7656601001643335,-7.197722655687378,-0.16292597294423747,-1.6931459259134314,9.658071068162773,-0.007635815477475192,-0.003272492347489368,0.037088246604879506,-7.6875,19.5,15.375
1773080187.7091715,-19.47052021994349,0.781338093676786,-7.206637962228234,-0.07497429791882664,-1.4445553122114592,9.658716317409906,-0.004363323129985824,0.003272492347489368,0.030543261909900768,-8.375,12.0625,14.1875
1773080187.7705321,-19.420728777232082,0.7844358736447261,-7.2062177964137675,-0.039859222625236654,-1.228944360122114,9.659145723575968,-0.002181661564992912,-0.001090830782496456,0.030543261909900768,-8.375,12.0625,14.1875
1773080187.8171687,-19.343226474883693,0.7985774221577268,-7.193060752918956,-0.02987097910772316,-1.0854576800388034,9.696227717363213,0.01090830782496456,-0.001090830782496456,0.028361600344907856,-7.25,7.6875,13.375
1773080187.840293,-19.308931137819282,0.8030328482166544,-7.2218065271508145,-0.043294584866725105,-1.1739500411971664,9.720905369995611,-0.019634954084936207,-0.004363323129985824,0.016362461737446838,-7.25,7.6875,13.375
1773080187.9044168,-19.236884631279853,0.8005327541937294,-7.219833095538741,-0.05222784454783932,-1.232840719023612,9.73732807215503,-0.001090830782496456,0.0,0.0545415391248228,-6.875,3.6875,11.375
1773080187.9534428,-19.145624989504952,0.8075945845092323,-7.212595265465261,-0.08158861102580728,-1.2954475892163713,9.761637643817798,-0.00545415391248228,-0.00545415391248228,0.05235987755982989,-6.875,3.6875,11.375
1773080188.0413382,-19.145624989504952,0.8075945845092323,-7.212595265465261,-0.08158861102580728,-1.2954475892163713,9.761637643817798,-0.00545415391248228,-0.00545415391248228,0.05235987755982989,-6.875,3.6875,11.375
1773080188.071564,-18.953821136150193,0.8092489356214526,-7.230672925170031,-0.11413103380187958,-1.3057694099977781,9.777439010674776,-0.009817477042468103,-0.007635815477475192,0.037088246604879506,-7.6875,-1.5,7.0
1773080188.3226173,-18.860693641622753,0.8012679251260594,-7.227632115362825,-0.11413103380187958,-1.3057694099977781,9.777439010674776,-0.009817477042468103,-0.007635815477475192,0.037088246604879506,-7.6875,-1.5,7.0
1773080188.3516083,0.0,0.0,0.0,-0.10271382172652148,-1.2737334725391143,9.781640801919508,-0.003272492347489368,-0.004363323129985824,0.038179077387375956,-6.5,-11.6875,-4.5625
1773080188.3992634,-18.258032151051342,0.8308324096886,-7.144057145312894,-0.06835490097043118,-1.2524139140252433,9.791127270470433,0.04036073895236887,-0.018544123302439753,0.16471544815696484,-6.5,-11.6875,-4.5625
1773080188.4321089,-18.189197742257278,0.8672703476061272,-7.120417432943076,-0.07225031668010161,-0.7966712406231766,10.021562893710675,0.004363323129985824,0.019634954084936207,-0.01090830782496456,-6.5,-10.5625,-6.5625
1773080188.4640396,-18.189197742257278,0.8672703476061272,-7.120417432943076,-0.07225031668010161,-0.7966712406231766,10.021562893710675,0.004363323129985824,0.019634954084936207,-0.01090830782496456,-6.5,-10.5625,-6.5625
1773080188.4859035,-18.18119646851919,0.8303922431219123,-7.2207002408796,-0.07149756061292321,-0.4933795824533388,9.95079274245208,-0.04690572364734761,-0.017453292519943295,0.014180800172453928,-6.5,-10.5625,-6.5625
1773080188.5341911,-18.180992946610836,0.8438845875453037,-7.180145272653867,-0.23825219522502145,-0.8334504685168644,9.890315550514597,0.030543261909900768,0.00545415391248228,0.025089107997418487,-8.375,-11.375,-5.6875
1773080188.5668256,-18.202110090920463,0.8368188506478274,-7.172434347944097,-0.18196995642208086,-1.0597638443514326,9.8500686548547,-0.013089969389957472,0.00545415391248228,0.018544123302439753,-8.375,-11.375,-5.6875
1773080188.6166615,-18.202110090920463,0.8368188506478274,-7.172434347944097,-0.18196995642208086,-1.0597638443514326,9.8500686548547,-0.013089969389957472,0.00545415391248228,0.018544123302439753,-8.375,-11.375,-5.6875
1773080188.6404035,-18.138488069105932,0.8363650215780941,-7.199572455929325,-0.2615936649687049,-1.1903021976393657,9.78648856659981,-0.018544123302439753,-0.01090830782496456,0.04363323129985824,-6.5,-11.0,-5.1875
1773080188.6784623,-18.201859120765388,0.8277230672794178,-7.185203481658813,-0.17743277355128434,-1.190201109153229,9.797698515419413,0.018544123302439753,0.004363323129985824,-0.020725784867432664,-6.5,-11.0,-5.1875
1773080188.710686,-18.201859120765388,0.8277230672794178,-7.185203481658813,-0.17743277355128434,-1.190201109153229,9.797698515419413,0.018544123302439753,0.004363323129985824,-0.020725784867432664,-6.5,-11.0,-5.1875
1773080188.726557,-18.187273325653077,0.8296728633390777,-7.178021384130309,-0.15153064581762316,-1.1901338358949374,9.805158611135525,-0.003272492347489368,-0.004363323129985824,0.013089969389957472,-7.25,-11.0,-4.0
1773080188.7488046,-18.17314120611374,0.8272235576045923,-7.198622562438373,-0.13429306915659717,-1.190089066293036,9.810123221499868,-0.009817477042468103,-0.003272492347489368,0.008726646259971648,-7.25,-11.0,-4.0
1773080188.8152776,-18.209095813517152,0.8272982705861431,-7.185321660051792,-0.12951187785967128,-1.2736870653060643,9.753215103507259,0.013089969389957472,0.00545415391248228,-0.018544123302439753,-7.25,-11.375,-4.375
1773080188.8581393,-18.209095813517152,0.8272982705861431,-7.185321660051792,-0.12633004846097343,-1.3293205997983972,9.715343386688508,0.002181661564992912,0.0,0.001090830782496456,-7.25,-11.375,-4.375
1773080188.8975284,-18.180376884885966,0.8267979071022461,-7.198740737382225,-0.12086746483218391,-1.3094771965113146,9.726936410980938,-0.01090830782496456,0.0,0.014180800172453928,-6.5,-11.6875,-5.6875
1773080188.928017,-18.19496215329811,0.8248459777999587,-7.205923132460511,-0.1172321764482819,-1.2962716332891,9.734651439144985,0.004363323129985824,0.006544984694978736,-0.014180800172453928,-6.5,-11.6875,-5.6875
1773080188.9429135,-18.202198580389165,0.824419900621195,-7.2060413053693635,-0.11481293263762718,-1.287483478480523,9.739785704205646,0.006544984694978736,0.00545415391248228,-0.009817477042468103,-7.25,-11.0,-5.1875
1773080188.9625738,-18.19496215329811,0.8248459777999587,-7.205923132460511,-0.10316761778440241,-1.2113877137718294,9.78668895244517,-0.002181661564992912,-0.004363323129985824,0.009817477042468103,-7.25,-11.0,-5.1875
1773080188.988679,-18.19496215329811,0.8248459777999587,-7.205923132460511,-0.10316761778440241,-1.2113877137718294,9.78668895244517,-0.002181661564992912,-0.004363323129985824,0.009817477042468103,-7.25,-11.0,-5.1875
1773080189.0067666,-18.19496215329811,0.8248459777999587,-7.205923132460511,-0.09541779083627189,-1.1607468324035832,9.81790254020496,-0.007635815477475192,-0.001090830782496456,0.007635815477475192,-7.25,-11.0,-5.1875
1773080189.0318913,-18.19496215329811,0.8248459777999587,-7.205923132460511,-0.10029570269548858,-1.220709019353669,9.78180793515605,-0.002181661564992912,0.002181661564992912,0.002181661564992912,-7.25,-10.5625,-5.6875
1773080189.0558493,-18.19496215329811,0.8248459777999587,-7.205923132460511,-0.10029570269548858,-1.220709019353669,9.78180793515605,-0.002181661564992912,0.002181661564992912,0.002181661564992912,-7.25,-10.5625,-5.6875
1773080189.0914068,-18.194848995417484,0.8259466062344328,-7.198977087085214,-0.1035418985479515,-1.2606131849474342,9.757787378699156,0.006544984694978736,0.00545415391248228,-0.009817477042468103,-7.25,-10.5625,-5.6875
1773080189.1071606,-18.194848995417484,0.8259466062344328,-7.198977087085214,-0.10570220562538188,-1.2436825091961958,9.758527525240888,-0.002181661564992912,0.002181661564992912,0.003272492347489368,-6.5,-9.875,-4.875
1773080189.119482,-18.194848995417484,0.8259466062344328,-7.198977087085214,-0.10570220562538188,-1.2436825091961958,9.758527525240888,-0.002181661564992912,0.002181661564992912,0.003272492347489368,-6.5,-9.875,-4.875
1773080189.133309,-18.194848995417484,0.8259466062344328,-7.198977087085214,-0.10713986585320052,-1.2324153336117871,9.76905541961839,-0.00545415391248228,0.002181661564992912,0.009817477042468103,-6.5,-9.875,-4.875
1773080189.1452174,-18.194848995417484,0.8259466062344328,-7.198977087085214,-0.10713986585320052,-1.2324153336117871,9.76905541961839,-0.00545415391248228,0.002181661564992912,0.009817477042468103,-6.5,-9.875,-4.875
1773080189.1603696,-18.19496215329811,0.8248459777999587,-7.205923132460511,-0.11813194779705496,-1.2349524892449193,9.776061615722332,-0.003272492347489368,-0.001090830782496456,0.002181661564992912,-6.5,-9.875,-4.875
1773080189.183576,-18.195075311031825,0.8237453496698806,-7.212869280264156,-0.12879216724840864,-1.2734371667573967,9.76065349072125,0.00545415391248228,0.003272492347489368,-0.008726646259971648,-6.5,-11.0,-4.875
1773080189.1966724,-18.195075311031825,0.8237453496698806,-7.212869280264156,-0.12879216724840864,-1.2734371667573967,9.76065349072125,0.00545415391248228,0.003272492347489368,-0.008726646259971648,-6.5,-11.0,-4.875
1773080189.2111104,-18.19496215329811,0.8248459777999587,-7.205923132460511,-0.1358864242108306,-1.2990482897399342,9.750399555653065,0.002181661564992912,0.003272492347489368,-0.004363323129985824,-6.5,-11.0,-4.875
1773080189.2231014,-18.19496215329811,0.8248459777999587,-7.205923132460511,-0.1358864242108306,-1.2990482897399342,9.750399555653065,0.002181661564992912,0.003272492347489368,-0.004363323129985824,-6.5,-11.0,-4.875
1773080189.236984,-18.194370375851012,0.8190529544031618,-7.197855336895042,-0.11719179102004391,-1.242499748428797,9.78037190518966,-0.001090830782496456,-0.001090830782496456,0.004363323129985824,-6.5,-11.0,-4.875
1773080189.2582314,-18.194370375851012,0.8190529544031618,-7.197855336895042,-0.10475072146431143,-1.2048673258748317,9.800318168993183,-0.004363323129985824,0.001090830782496456,0.00545415391248228,-7.25,-11.6875,-4.875
1773080189.2818558,-18.194370375851012,0.8190529544031618,-7.197855336895042,-0.10475072146431143,-1.2048673258748317,9.800318168993183,-0.004363323129985824,0.001090830782496456,0.00545415391248228,-7.25,-11.6875,-4.875
1773080189.2986383,-18.194483128274655,0.8179523278685377,-7.204801370772906,-0.10650666377278264,-1.2166195978273855,9.790176402788825,0.002181661564992912,0.003272492347489368,-0.003272492347489368,-7.25,-11.6875,-4.875
1773080189.312143,-18.194483128274655,0.8179523278685377,-7.204801370772906,-0.10650666377278264,-1.2166195978273855,9.790176402788825,0.002181661564992912,0.003272492347489368,-0.003272492347489368,-7.25,-11.6875,-4.875
1773080189.3315878,-18.194483128274655,0.8179523278685377,-7.204801370772906,-0.10767522376390941,-1.2244406035303304,9.783427170670777,0.004363323129985824,0.002181661564992912,-0.004363323129985824,-7.25,-11.6875,-4.875
1773080189.3546016,-18.193892024441666,0.8121593144294214,-7.196733697511704,-0.10176266396969509,-1.2095747252153657,9.795661190626674,0.0,0.001090830782496456,0.002181661564992912,-7.25,-11.375,-4.5
1773080189.3876457,-18.193892024441666,0.8121593144294214,-7.196733697511704,-0.097827921474266,-1.1996816492594984,9.803802794244367,-0.004363323129985824,0.001090830782496456,0.002181661564992912,-7.25,-11.375,-4.5
1773080189.4012203,-18.193892024441666,0.8121593144294214,-7.196733697511704,-0.097827921474266,-1.1996816492594984,9.803802794244367,-0.004363323129985824,0.001090830782496456,0.002181661564992912,-7.25,-11.375,-4.5
1773080189.4161844,-18.194004371408816,0.8110586897787044,-7.203679719989514,-0.10524472941946975,-1.2332392582116007,9.792495381967672,0.0,0.001090830782496456,-0.001090830782496456,-7.25,-10.1875,-5.1875
1773080189.428434,-18.194004371408816,0.8110586897787044,-7.203679719989514,-0.10524472941946975,-1.2332392582116007,9.792495381967672,0.0,0.001090830782496456,-0.001090830782496456,-7.25,-10.1875,-5.1875
1773080189.4422262,-18.194004371408816,0.8110586897787044,-7.203679719989514,-0.11018053225582945,-1.2555714721061708,9.784970425409604,0.003272492347489368,0.002181661564992912,-0.004363323129985824,-7.25,-10.1875,-5.1875
1773080189.4573593,-18.193413941167904,0.8052656862133574,-7.195612168885748,-0.10008480707761891,-1.243672417327277,9.79334309770876,0.0,0.001090830782496456,-0.001090830782496456,-7.25,-10.1875,-5.1875
1773080189.4973931,-18.193413941167904,0.8052656862133574,-7.195612168885748,-0.10008480707761891,-1.243672417327277,9.79334309770876,0.0,0.001090830782496456,-0.001090830782496456,-7.25,-10.1875,-5.1875
1773080189.512804,-18.193413941167904,0.8052656862133574,-7.195612168885748,-0.09336621474815948,-1.2357537292930745,9.79891501759497,-0.003272492347489368,0.0,0.003272492347489368,-7.25,-11.375,-5.1875
1773080189.5265129,-18.193525882679033,0.8041650634306055,-7.202558180060876,-0.0989304017264563,-1.247209489400451,9.789242621207542,0.001090830782496456,0.004363323129985824,0.0,-7.25,-11.375,-5.1875
1773080189.5448234,-18.193525882679033,0.8041650634306055,-7.202558180060876,-0.10597841771179103,-1.2615233931973235,9.782805749459456,0.0,0.003272492347489368,-0.00545415391248228,-7.25,-11.375,-5.1875
1773080189.5613089,-18.193525882679033,0.8041650634306055,-7.202558180060876,-0.10597841771179103,-1.2615233931973235,9.782805749459456,0.0,0.003272492347489368,-0.00545415391248228,-7.25,-11.375,-5.1875
1773080189.5871537,-18.193525882679033,0.8041650634306055,-7.202558180060876,-0.10732368191121465,-1.27104913627736,9.778522083215673,0.001090830782496456,0.003272492347489368,-0.003272492347489368,-7.6875,-10.5625,-6.0
1773080189.6210246,-18.193525882679033,0.8041650634306055,-7.202558180060876,-0.11156405191566468,-1.2640079650583242,9.775671351182122,-0.003272492347489368,0.001090830782496456,0.002181661564992912,-7.6875,-10.5625,-6.0
1773080189.6434875,-18.193525882679033,0.8041650634306055,-7.202558180060876,-0.11156405191566468,-1.2640079650583242,9.775671351182122,-0.003272492347489368,0.001090830782496456,0.002181661564992912,-7.6875,-10.5625,-6.0
1773080189.6605673,-18.193525882679033,0.8041650634306055,-7.202558180060876,-0.11438597078558954,-1.259322144267092,9.77377422085856,-0.002181661564992912,0.001090830782496456,-0.001090830782496456,-7.6875,-10.5625,-6.0
1773080189.6811843,-18.193525882679033,0.8041650634306055,-7.202558180060876,-0.11626392627062529,-1.2562037828745751,9.772511701820562,0.001090830782496456,0.002181661564992912,-0.003272492347489368,-7.6875,-10.5625,-6.0
1773080189.703523,-18.193525882679033,0.8041650634306055,-7.202558180060876,-0.11626392627062529,-1.2562037828745751,9.772511701820562,0.001090830782496456,0.002181661564992912,-0.003272492347489368,-7.6875,-10.5625,-6.0
1773080189.7248666,-18.193525882679033,0.8041650634306055,-7.202558180060876,-0.11082346125314049,-1.2407481013729567,9.781706844625996,-0.001090830782496456,0.003272492347489368,0.0,-8.0,-10.5625,-4.875
1773080189.7378168,-18.193525882679033,0.8041650634306055,-7.202558180060876,-0.11082346125314049,-1.2407481013729567,9.781706844625996,-0.001090830782496456,0.003272492347489368,0.0,-8.0,-10.5625,-4.875
1773080189.7585318,-18.193047662063766,0.7972714487243888,-7.201436750937549,-0.1072028925579807,-1.2304625179849047,9.787826109446534,-0.001090830782496456,-0.002181661564992912,0.001090830782496456,-8.0,-10.5625,-4.875
1773080189.783738,-18.193047662063766,0.7972714487243888,-7.201436750937549,-0.11148366795039297,-1.2403431356742478,9.77517285329134,0.0,0.001090830782496456,0.0,-7.25,-10.1875,-5.6875
1773080189.8059459,-18.193047662063766,0.7972714487243888,-7.201436750937549,-0.11148366795039297,-1.2403431356742478,9.77517285329134,0.0,0.001090830782496456,0.0,-7.25,-10.1875,-5.6875
1773080189.8344438,-18.193047662063766,0.7972714487243888,-7.201436750937549,-0.11433247615464895,-1.2469185763727741,9.76675225266619,0.002181661564992912,-0.001090830782496456,-0.002181661564992912,-7.25,-10.1875,-5.6875
1773080189.847738,-18.193047662063766,0.7972714487243888,-7.201436750937549,-0.11433247615464895,-1.2469185763727741,9.76675225266619,0.002181661564992912,-0.001090830782496456,-0.002181661564992912,-7.25,-10.1875,-5.6875
1773080189.8621964,-18.193047662063766,0.7972714487243888,-7.201436750937549,-0.10953810277666974,-1.2379140118758805,9.767838660429064,0.0,-0.001090830782496456,0.003272492347489368,-7.25,-11.6875,-5.1875
1773080189.8757353,-18.193047662063766,0.7972714487243888,-7.201436750937549,-0.1063475008502844,-1.231921574790774,9.768561652659287,-0.002181661564992912,-0.001090830782496456,0.0,-7.25,-11.6875,-5.1875
1773080189.8951786,-18.193047662063766,0.7972714487243888,-7.201436750937549,-0.1063475008502844,-1.231921574790774,9.768561652659287,-0.002181661564992912,-0.001090830782496456,0.0,-7.25,-11.6875,-5.1875
1773080189.9092352,-18.193047662063766,0.7972714487243888,-7.201436750937549,-0.11091441432427256,-1.24800434509446,9.769042795912148,0.0,0.0,-0.001090830782496456,-7.25,-11.6875,-5.1875
1773080189.9283717,-18.193047662063766,0.7972714487243888,-7.201436750937549,-0.11395364422544547,-1.2587072490752473,9.772708103079523,0.001090830782496456,0.002181661564992912,-0.003272492347489368,-7.6875,-11.375,-6.0
1773080189.9421737,-18.193047662063766,0.7972714487243888,-7.201436750937549,-0.10928599435961475,-1.2424141301639542,9.778492435762569,0.002181661564992912,0.0,0.001090830782496456,-7.6875,-11.375,-6.0
1773080189.969803,-18.193047662063766,0.7972714487243888,-7.201436750937549,-0.10928599435961475,-1.2424141301639542,9.778492435762569,0.002181661564992912,0.0,0.001090830782496456,-7.6875,-11.375,-6.0
1773080189.9993303,-18.193047662063766,0.7972714487243888,-7.201436750937549,-0.10617972551496985,-1.2315712415345523,9.782341844547906,-0.002181661564992912,-0.003272492347489368,0.001090830782496456,-5.875,-10.5625,-6.0
1773080190.0128543,-18.193047662063766,0.7972714487243888,-7.201436750937549,-0.10617972551496985,-1.2315712415345523,9.782341844547906,-0.002181661564992912,-0.003272492347489368,0.001090830782496456,-5.875,-10.5625,-6.0
1773080190.026753,-18.193047662063766,0.7972714487243888,-7.201436750937549,-0.10745765000547464,-1.234390755396646,9.784903583093833,0.001090830782496456,-0.001090830782496456,0.0,-5.875,-10.5625,-6.0
1773080190.043237,-18.193047662063766,0.7972714487243888,-7.201436750937549,-0.10830809447855365,-1.2362671103758358,9.783263279772333,0.002181661564992912,0.002181661564992912,-0.002181661564992912,-5.875,-10.5625,-6.0
1773080190.0696833,-18.193047662063766,0.7972714487243888,-7.201436750937549,-0.10830809447855365,-1.2362671103758358,9.783263279772333,0.002181661564992912,0.002181661564992912,-0.002181661564992912,-5.875,-10.5625,-6.0
1773080190.1012018,-18.193047662063766,0.7972714487243888,-7.201436750937549,-0.1088740557753005,-1.237515803654228,9.782171676235263,0.001090830782496456,0.002181661564992912,-0.001090830782496456,-8.0,-11.6875,-5.6875
1773080190.120182,-18.193047662063766,0.7972714487243888,-7.201436750937549,-0.1088740557753005,-1.237515803654228,9.782171676235263,0.001090830782496456,0.002181661564992912,-0.001090830782496456,-8.0,-11.6875,-5.6875
1773080190.1597764,-18.193047662063766,0.7972714487243888,-7.201436750937549,-0.1092506966960836,-1.2383467950821803,9.781445226275354,-0.001090830782496456,0.001090830782496456,-0.001090830782496456,-8.0,-11.6875,-5.6875
1773080190.21894,-18.193047662063766,0.7972714487243888,-7.201436750937549,-0.10281112360687122,-1.2255193637654225,9.790997117063972,0.001090830782496456,0.002181661564992912,0.0,-7.6875,-11.375,-5.1875
1773080190.2537794,-18.193047662063766,0.7972714487243888,-7.201436750937549,-0.10187077135806455,-1.2303632983451944,9.790663570267546,0.0,0.002181661564992912,0.001090830782496456,-7.6875,-11.375,-5.1875
1773080190.2883008,-18.193047662063766,0.7972714487243888,-7.201436750937549,-0.10187077135806455,-1.2303632983451944,9.790663570267546,0.0,0.002181661564992912,0.001090830782496456,-7.6875,-11.375,-5.1875
1773080190.3379958,-18.193047662063766,0.7972714487243888,-7.201436750937549,-0.1012449774409066,-1.2235515475757797,9.793786710307806,0.003272492347489368,0.0,0.0,-7.6875,-11.0,-5.6875
1773080190.3843415,-18.193047662063766,0.7972714487243888,-7.201436750937549,-0.10417363028693347,-1.229053738652934,9.79252001340952,-0.001090830782496456,-0.001090830782496456,0.0,-7.6875,-11.0,-5.6875
1773080190.4079974,-18.193047662063766,0.7972714487243888,-7.201436750937549,-0.10612261604076846,-1.2293702736439596,9.791677040773642,0.0,0.001090830782496456,0.001090830782496456,-7.6875,-11.375,-4.875
1773080190.4240167,-18.193047662063766,0.7972714487243888,-7.201436750937549,-0.10612261604076846,-1.2293702736439596,9.791677040773642,0.0,0.001090830782496456,0.001090830782496456,-7.6875,-11.375,-4.875
1773080190.4400396,-18.193047662063766,0.7972714487243888,-7.201436750937549,-0.10741964428834824,-1.2295809241445594,9.791116051901087,0.001090830782496456,0.0,0.001090830782496456,-7.6875,-11.375,-4.875
1773080190.452259,-18.193047662063766,0.7972714487243888,-7.201436750937549,-0.10493769039103834,-1.226375997992269,9.787397608365737,0.0,-0.001090830782496456,-0.001090830782496456,-7.6875,-11.375,-4.875
1773080190.4846213,-18.193047662063766,0.7972714487243888,-7.201436750937549,-0.10493769039103834,-1.226375997992269,9.787397608365737,0.0,-0.001090830782496456,-0.001090830782496456,-7.6875,-11.375,-4.875
1773080190.505294,-18.193047662063766,0.7972714487243888,-7.201436750937549,-0.09994086609030088,-1.2242431554392905,9.784923025730697,-0.001090830782496456,0.0,0.001090830782496456,-7.6875,-12.0625,-6.5
1773080190.5188882,-18.193047662063766,0.7972714487243888,-7.201436750937549,-0.09994086609030088,-1.2242431554392905,9.784923025730697,-0.001090830782496456,0.0,0.001090830782496456,-7.6875,-12.0625,-6.5
1773080190.543466,-18.193047662063766,0.7972714487243888,-7.201436750937549,-0.0999606470436643,-1.2295139959603347,9.783276218629977,0.0,-0.001090830782496456,-0.001090830782496456,-7.6875,-12.0625,-6.5
1773080190.5563693,-18.193047662063766,0.7972714487243888,-7.201436750937549,-0.0999606470436643,-1.2295139959603347,9.783276218629977,0.0,-0.001090830782496456,-0.001090830782496456,-7.6875,-12.0625,-6.5
1773080190.590931,0.000524235275150597,0.7972480853493924,-7.201226267243793,0.28999747764958667,-1.2025966459178585,9.78552539860781,0.0006957212899939887,0.0013768788903650029,-0.002181661564992912,-3.8687853413487696,-12.850297904428711,-4.375
1773080190.9342043,0.000524235275150597,0.7972480853493924,-7.201226267243793,0.29295499035703815,-1.2009408407325677,9.791644142158942,0.0010363000901794958,0.000340578800185507,-0.002181661564992912,-3.8687853413487696,-12.850297904428711,-5.1875
1773080191.2185404,0.000524235275150597,0.7972480853493924,-7.201226267243793,0.28509825390535526,-1.2128992402980387,9.78480437277863,-0.000681157600371014,0.0020726001803589916,-0.001090830782496456,-3.8687853413487696,-12.850297904428711,-5.1875
1773080191.2568853,0.000524235275150597,0.7972480853493924,-7.201226267243793,0.28745759869891135,-1.2116732750345094,9.783197256415818,0.0010363000901794958,0.000340578800185507,-0.002181661564992912,-3.8687853413487696,-12.850297904428711,-5.1875
1773080191.3165646,0.000524235275150597,0.7972480853493924,-7.201226267243793,0.2890277163034146,-1.21085740884656,9.778782626721712,-0.00171745769055051,0.0017320213801734845,-0.002181661564992912,-2.8772446281946595,-12.063907725091608,-5.1875
1773080191.36096,0.000524235275150597,0.7972480853493924,-7.201226267243793,0.2900726120298487,-1.210314459012302,9.77584473997493,0.0013768788903650029,-0.0006957212899939887,-0.002181661564992912,-2.8772446281946595,-12.063907725091608,-5.1875
1773080191.464768,0.000524235275150597,0.7972480853493924,-7.201226267243793,0.28654567948772675,-1.2078196521696114,9.773889609163293,0.000340578800185507,-0.0010363000901794958,0.0,-3.751702974295216,-13.206551633286582,-5.6875
1773080191.4911988,0.000524235275150597,0.7972480853493924,-7.201226267243793,0.2841985452793626,-1.2061593860846194,9.779278714863029,-0.0006957212899939887,-0.0013768788903650029,0.0,-3.751702974295216,-13.206551633286582,-5.6875
1773080191.578803,0.000524235275150597,0.7972480853493924,-7.201226267243793,0.28477495510852546,-1.2032747969836928,9.780799537802965,0.000340578800185507,-0.0010363000901794958,0.0,-3.096902262156717,-12.596619442479344,-4.5
1773080191.6110842,0.000524235275150597,0.7972480853493924,-7.201226267243793,0.28477495510852546,-1.2032747969836928,9.780799537802965,0.000340578800185507,-0.0010363000901794958,0.0,-3.096902262156717,-12.596619442479344,-4.5
1773080191.6673617,0.000524235275150597,0.7972480853493924,-7.201226267243793,0.2871450827177543,-1.201302240567836,9.775901826662066,0.0,0.0,0.0,-4.165663448730328,-12.947866543640005,-4.5
1773080191.6887634,0.000524235275150597,0.7972480853493924,-7.201226267243793,0.2782416626642203,-1.2039109406505704,9.773927599715881,0.00171745769055051,-0.0017320213801734845,-0.003272492347489368,-4.165663448730328,-12.947866543640005,-4.5
1773080191.7110562,0.000524235275150597,0.7972480853493924,-7.201226267243793,0.2782416626642203,-1.2039109406505704,9.773927599715881,0.00171745769055051,-0.0017320213801734845,-0.003272492347489368,-4.165663448730328,-12.947866543640005,-4.5
1773080191.7436318,0.000524235275150597,0.7972480853493924,-7.201226267243793,0.2828946138210787,-1.205691662025005,9.772613773736754,-0.0006957212899939887,-0.0013768788903650029,-0.001090830782496456,-4.775595639537564,-12.293065831501506,-6.0
1773080191.8022692,0.000524235275150597,0.7972480853493924,-7.201226267243793,0.28599110083909796,-1.2068767122077304,9.771739437224044,-0.0006957212899939887,-0.0013768788903650029,0.0,-4.775595639537564,-12.293065831501506,-6.0
1773080191.850256,0.000524235275150597,0.7972480853493924,-7.201226267243793,0.2880517783595633,-1.207665349866456,9.767812464334495,-0.0006957212899939887,-0.0013768788903650029,-0.001090830782496456,-3.5897520859104,-12.298072459198716,-5.1875
1773080191.8927143,0.000524235275150597,0.7972480853493924,-7.201226267243793,0.28837872663881947,-1.2050122900342017,9.765199107743662,0.0,0.0,-0.001090830782496456,-3.5897520859104,-12.298072459198716,-5.1875
1773080191.9096904,0.000524235275150597,0.7972480853493924,-7.201226267243793,0.28837872663881947,-1.2050122900342017,9.765199107743662,0.0,0.0,-0.001090830782496456,-3.5897520859104,-12.298072459198716,-5.1875
1773080191.9290564,0.000524235275150597,0.7972480853493924,-7.201226267243793,0.28541841768193643,-1.2042911179437938,9.776840394954846,0.0006957212899939887,0.0013768788903650029,-0.002181661564992912,-3.2334983570525293,-12.180990092145162,-5.1875
1773080191.9468143,0.000524235275150597,0.7972480853493924,-7.201226267243793,0.2876706641157623,-1.2059446657667867,9.78458754155219,-0.0006957212899939887,-0.0013768788903650029,0.0,-3.2334983570525293,-12.180990092145162,-5.1875
1773080191.9650025,0.000524235275150597,0.7972480853493924,-7.201226267243793,0.2876706641157623,-1.2059446657667867,9.78458754155219,-0.0006957212899939887,-0.0013768788903650029,0.0,-3.2334983570525293,-12.180990092145162,-5.1875
1773080192.0394208,0.000524235275150597,0.7972480853493924,-7.201226267243793,0.2859916195737559,-1.2080894929629864,9.783052957656786,-0.000340578800185507,0.0010363000901794958,-0.001090830782496456,-2.740648533298847,-12.47953707542579,-6.0
1773080192.1253443,0.000524235275150597,0.7972480853493924,-7.201226267243793,0.2880521235716835,-1.2084724419114303,9.7786865975095,0.0010363000901794958,0.000340578800185507,0.002181661564992912,-2.740648533298847,-12.47953707542579,-6.0
1773080192.1687396,0.000524235275150597,0.7972480853493924,-7.201226267243793,0.28942336596496654,-1.2087272901587995,9.77912594531424,0.00171745769055051,-0.0017320213801734845,0.0,-3.751702974295216,-13.206551633286582,-6.0
1773080192.2357175,0.000524235275150597,0.7972480853493924,-7.201226267243793,0.2903359124599152,-1.2088968888205824,9.779418326370457,0.0013768788903650029,-0.0006957212899939887,-0.001090830782496456,-3.751702974295216,-13.206551633286582,-6.0
1773080192.260038,0.000524235275150597,0.7972480853493924,-7.201226267243793,0.28776531257401483,-1.210054164426795,9.77961290269726,0.000681157600371014,-0.0020726001803589916,0.0,-5.176717889726698,-13.674881101500795,-4.875
1773080192.3246148,0.000524235275150597,0.7972480853493924,-7.201226267243793,0.2860546070654304,-1.2108243184151137,9.779742391069187,0.0,0.0,-0.001090830782496456,-5.176717889726698,-13.674881101500795,-4.875
1773080192.3505502,0.000524235275150597,0.7972480853493924,-7.201226267243793,0.2860546070654304,-1.2108243184151137,9.779742391069187,0.0,0.0,-0.001090830782496456,-5.176717889726698,-13.674881101500795,-4.875
1773080192.375905,0.000524235275150597,0.7972480853493924,-7.201226267243793,0.2870496314524391,-1.2071145483153425,9.776483452426904,-0.0006957212899939887,-0.0013768788903650029,0.001090830782496456,-3.8687853413487696,-12.850297904428711,-4.875
1773080192.4306912,0.000524235275150597,0.7972480853493924,-7.201226267243793,0.2877118090668428,-1.2046457377547921,9.774314665165194,0.0013768788903650029,-0.0006957212899939887,0.0,-3.8687853413487696,-12.850297904428711,-4.875
1773080192.5219498,0.000524235275150597,0.7972480853493924,-7.201226267243793,0.2891968904635571,-1.2061806612896433,9.772871361469468,0.0024131789805444987,-0.0003551424898084817,0.002181661564992912,-3.804403092175248,-11.644940622959286,-6.0
1773080192.5537546,0.000524235275150597,0.7972480853493924,-7.201226267243793,0.28700730615914793,-1.2082465453472047,9.771910858982721,-0.000340578800185507,0.0010363000901794958,-0.001090830782496456,-3.804403092175248,-11.644940622959286,-6.0
1773080192.659171,0.000524235275150597,0.7972480853493924,-7.201226267243793,0.2855501622638229,-1.2096213681100747,9.774616767014626,-0.0020726001803589916,-0.000681157600371014,0.002181661564992912,-3.238504984749739,-13.366833645772326,-5.1875
1773080192.6792672,0.000524235275150597,0.7972480853493924,-7.201226267243793,0.284580449278848,-1.210536297300988,9.783107741997526,-0.000340578800185507,0.0010363000901794958,0.001090830782496456,-3.238504984749739,-13.366833645772326,-5.1875
1773080192.7273207,0.000524235275150597,0.7972480853493924,-7.201226267243793,0.283935116119751,-1.2111451724571123,9.782068167583601,-0.000681157600371014,0.0020726001803589916,0.0,-3.336073623961034,-13.069955538390769,-5.6875
1773080192.7416384,0.000524235275150597,0.7972480853493924,-7.201226267243793,0.28350565411121564,-1.2115503720719318,9.78472145413126,-0.0003551424898084818,-0.0024131789805444987,0.0,-3.336073623961034,-13.069955538390769,-5.6875
1773080192.779253,0.000524235275150597,0.7972480853493924,-7.201226267243793,0.28350565411121564,-1.2115503720719318,9.78472145413126,-0.0003551424898084818,-0.0024131789805444987,0.0,-3.336073623961034,-13.069955538390769,-5.6875
1773080192.803088,0.000524235275150597,0.7972480853493924,-7.201226267243793,0.28113103275926565,-1.2054642491202652,9.779796963274935,0.0003551424898084818,0.0024131789805444987,-0.001090830782496456,-4.404834810534645,-13.42120263955143,-4.5
1773080192.819217,0.000524235275150597,0.7972480853493924,-7.201226267243793,0.2795507487758015,-1.201414002282379,9.783209993034857,-0.000340578800185507,0.0010363000901794958,0.0,-4.404834810534645,-13.42120263955143,-4.5
1773080192.8348017,0.000524235275150597,0.7972480853493924,-7.201226267243793,0.2795507487758015,-1.201414002282379,9.783209993034857,-0.000340578800185507,0.0010363000901794958,0.0,-4.404834810534645,-13.42120263955143,-4.5
1773080192.8556023,0.000524235275150597,0.7972480853493924,-7.201226267243793,0.2784990874377349,-1.1987186082559875,9.778791102799406,0.000340578800185507,-0.0010363000901794958,0.001090830782496456,-4.404834810534645,-13.42120263955143,-4.5
1773080192.8777146,0.000524235275150597,0.7972480853493924,-7.201226267243793,0.2809771079495548,-1.1958804440496107,9.775850380709953,-0.0010363000901794958,-0.000340578800185507,0.0,-3.4531559910145875,-12.713701809532898,-5.6875
1773080192.9129531,0.000524235275150597,0.7972480853493924,-7.201226267243793,0.2809771079495548,-1.1958804440496107,9.775850380709953,-0.0010363000901794958,-0.000340578800185507,0.0,-3.4531559910145875,-12.713701809532898,-5.6875
1773080192.9332645,0.000524235275150597,0.7972480853493924,-7.201226267243793,0.2836706125102055,-1.197169566859115,9.773893363009439,0.000340578800185507,-0.0010363000901794958,-0.002181661564992912,-3.4531559910145875,-12.713701809532898,-5.6875
1773080192.9533963,0.000524235275150597,0.7972480853493924,-7.201226267243793,0.2865075192982385,-1.201205353072871,9.772590989591066,-0.00171745769055051,0.0017320213801734845,0.0,-3.4531559910145875,-12.713701809532898,-5.6875
1773080192.996767,0.000524235275150597,0.7972480853493924,-7.201226267243793,0.2883954490753492,-1.20389112371544,9.778414498044244,0.000340578800185507,-0.0010363000901794958,-0.001090830782496456,-3.336073623961034,-13.069955538390769,-5.1875
1773080193.0199609,0.000524235275150597,0.7972480853493924,-7.201226267243793,0.2883954490753492,-1.20389112371544,9.778414498044244,0.000340578800185507,-0.0010363000901794958,-0.001090830782496456,-3.336073623961034,-13.069955538390769,-5.1875
1773080193.0423179,0.000524235275150597,0.7972480853493924,-7.201226267243793,0.2917853250455979,-1.2014561751002317,9.78228997786698,0.000340578800185507,-0.0010363000901794958,0.0,-3.336073623961034,-13.069955538390769,-5.1875
1773080193.0805428,0.000524235275150597,0.7972480853493924,-7.201226267243793,0.2908633602519263,-1.2008801535883062,9.784869066397066,-0.0010217364005565212,0.0031089002705384874,-0.002181661564992912,-4.404834810534645,-13.42120263955143,-5.6875
1773080193.1053522,0.000524235275150597,0.7972480853493924,-7.201226267243793,0.29129421257209676,-1.2036747070911782,9.786585421003531,0.0,0.0,0.0,-4.404834810534645,-13.42120263955143,-5.6875
1773080193.146617,0.000524235275150597,0.7972480853493924,-7.201226267243793,0.29129421257209676,-1.2036747070911782,9.786585421003531,0.0,0.0,0.0,-4.404834810534645,-13.42120263955143,-5.6875
1773080193.18123,0.000524235275150597,0.7972480853493924,-7.201226267243793,0.288403050593758,-1.2065788608214687,9.787727635821197,-0.0006957212899939887,-0.0013768788903650029,-0.001090830782496456,-3.4531559910145875,-12.713701809532898,-5.6875
1773080193.2115526,0.000524235275150597,0.7972480853493924,-7.201226267243793,0.28543460500223167,-1.205333653302978,9.791832878730297,0.0013768788903650029,-0.0006957212899939887,0.0,-3.4531559910145875,-12.713701809532898,-5.6875
1773080193.2353358,0.000524235275150597,0.7972480853493924,-7.201226267243793,0.28241472802944345,-1.2013270922248251,9.797909983735055,-0.000340578800185507,0.0010363000901794958,0.0,-2.740648533298847,-12.47953707542579,-5.1875
1773080193.2504988,0.000524235275150597,0.7972480853493924,-7.201226267243793,0.28241472802944345,-1.2013270922248251,9.797909983735055,-0.000340578800185507,0.0010363000901794958,0.0,-2.740648533298847,-12.47953707542579,-5.1875
1773080193.2723224,0.000524235275150597,0.7972480853493924,-7.201226267243793,0.2835829230227655,-1.197616360992197,9.798609117522691,-0.000681157600371014,0.0020726001803589916,0.0,-2.740648533298847,-12.47953707542579,-5.1875
1773080193.2948055,0.000524235275150597,0.7972480853493924,-7.201226267243793,0.28540475333256554,-1.1983248001929434,9.789039048126568,-0.0010363000901794958,-0.000340578800185507,-0.002181661564992912,-2.740648533298847,-12.47953707542579,-5.1875
1773080193.3270385,0.000524235275150597,0.7972480853493924,-7.201226267243793,0.2844836812594204,-1.2030185575430692,9.782670273848128,0.0003551424898084818,0.0024131789805444987,-0.001090830782496456,-3.2334983570525293,-12.180990092145162,-5.25
1773080193.3420506,0.000524235275150597,0.7972480853493924,-7.201226267243793,0.2844836812594204,-1.2030185575430692,9.782670273848128,0.0003551424898084818,0.0024131789805444987,-0.001090830782496456,-3.2334983570525293,-12.180990092145162,-5.25
1773080193.3792465,0.000524235275150597,0.7972480853493924,-7.201226267243793,0.2838707180837915,-1.206142200626873,9.778431925709697,0.0,0.0,-0.001090830782496456,-3.2334983570525293,-12.180990092145162,-5.25
1773080193.423341,0.000524235275150597,0.7972480853493924,-7.201226267243793,0.2845072075289952,-1.211398839590241,9.782301575783661,-0.0003551424898084818,-0.0024131789805444987,0.0,-3.537051968030368,-13.85968346952601,-5.6875
1773080193.4383063,0.000524235275150597,0.7972480853493924,-7.201226267243793,0.28388637455338794,-1.2117191847153816,9.788221896388379,-0.0010363000901794958,-0.000340578800185507,0.001090830782496456,-3.537051968030368,-13.85968346952601,-5.6875
1773080193.457557,0.000524235275150597,0.7972480853493924,-7.201226267243793,0.28388637455338794,-1.2117191847153816,9.788221896388379,-0.0010363000901794958,-0.000340578800185507,0.001090830782496456,-3.537051968030368,-13.85968346952601,-5.6875
1773080193.4917197,0.000524235275150597,0.7972480853493924,-7.201226267243793,0.28347321714328,-1.211932370817673,9.792161803616505,0.0010363000901794958,0.000340578800185507,0.0,-3.537051968030368,-13.85968346952601,-5.6875
1773080193.5171142,0.000524235275150597,0.7972480853493924,-7.201226267243793,0.28619317764082197,-1.2111242490724297,9.786493320661446,0.000681157600371014,-0.0020726001803589916,-0.002181661564992912,-3.336073623961034,-13.069955538390769,-5.1875
1773080193.5303822,0.000524235275150597,0.7972480853493924,-7.201226267243793,0.28619317764082197,-1.2111242490724297,9.786493320661446,0.000681157600371014,-0.0020726001803589916,-0.002181661564992912,-3.336073623961034,-13.069955538390769,-5.1875
1773080193.5513153,0.000524235275150597,0.7972480853493924,-7.201226267243793,0.28818625821376487,-1.2104920382018178,9.791011455779687,-0.0003551424898084818,-0.0024131789805444987,0.0,-3.336073623961034,-13.069955538390769,-5.1875
1773080193.5814652,0.000524235275150597,0.7972480853493924,-7.201226267243793,0.2926905204553659,-1.2090268993383464,9.790673112522681,-0.0003551424898084818,-0.0024131789805444987,0.001090830782496456,-2.979819895103163,-12.952873171337215,-5.6875
1773080193.656538,0.000524235275150597,0.7972480853493924,-7.201226267243793,0.29568805666124537,-1.2080518657913795,9.790447948864685,0.000340578800185507,-0.0010363000901794958,-0.001090830782496456,-2.979819895103163,-12.952873171337215,-5.6875
1773080193.711781,0.000524235275150597,0.7972480853493924,-7.201226267243793,0.29028269516129457,-1.20631392165591,9.790298104965531,0.0006957212899939887,0.0013768788903650029,-0.001090830782496456,-2.979819895103163,-12.952873171337215,-5.6875
1773080193.7358303,0.000524235275150597,0.7972480853493924,-7.201226267243793,0.2866854874649216,-1.2051573392478627,9.783508162109872,0.0010363000901794958,0.000340578800185507,-0.002181661564992912,-3.1214226176961857,-13.723087374630197,-5.6875
1773080193.7721214,0.000524235275150597,0.7972480853493924,-7.201226267243793,0.2842915859264283,-1.2043876465751795,9.778989530988062,-0.000340578800185507,0.0010363000901794958,-0.003272492347489368,-3.1214226176961857,-13.723087374630197,-5.6875
1773080193.8131642,0.000524235275150597,0.7972480853493924,-7.201226267243793,0.28269847119419345,-1.2038754246995393,9.769292209038275,-0.0010363000901794958,-0.000340578800185507,0.001090830782496456,-3.537051968030368,-13.85968346952601,-5.6875
1773080193.8501294,0.000524235275150597,0.7972480853493924,-7.201226267243793,0.2848161605206251,-1.2024901371718568,9.772874084728834,-0.0017320213801734845,-0.0017174576905505097,0.003272492347489368,-3.537051968030368,-13.85968346952601,-5.6875
1773080193.8776543,0.000524235275150597,0.7972480853493924,-7.201226267243793,0.28409197931808655,-1.2057905427726734,9.771912671281408,0.000681157600371014,-0.0020726001803589916,0.001090830782496456,-2.283488413431542,-11.86877044666902,-5.6875
1773080193.932124,0.000524235275150597,0.7972480853493924,-7.201226267243793,0.28409197931808655,-1.2057905427726734,9.771912671281408,0.000681157600371014,-0.0020726001803589916,0.001090830782496456,-2.283488413431542,-11.86877044666902,-5.6875
1773080193.9621155,0.000524235275150597,0.7972480853493924,-7.201226267243793,0.2857435246105703,-1.2037646268562567,9.781308196493796,-0.0006957212899939887,-0.0013768788903650029,-0.001090830782496456,-2.283488413431542,-11.86877044666902,-5.6875
1773080193.98101,0.000524235275150597,0.7972480853493924,-7.201226267243793,0.2857435246105703,-1.2037646268562567,9.781308196493796,-0.0006957212899939887,-0.0013768788903650029,-0.001090830782496456,-2.283488413431542,-11.86877044666902,-5.6875
1773080194.0201051,0.000524235275150597,0.7972480853493924,-7.201226267243793,0.2836647201692721,-1.2034608120361827,9.77752547844579,-0.0003551424898084818,-0.0024131789805444987,0.0,-3.096902262156717,-12.596619442479344,-4.875
1773080194.0550218,0.000524235275150597,0.7972480853493924,-7.201226267243793,0.2822812990353553,-1.2032586266672571,9.78504345696253,0.002058036490736017,-0.0027683214703529803,0.001090830782496456,-3.096902262156717,-12.596619442479344,-4.875
1773080194.0974028,0.000524235275150597,0.7972480853493924,-7.201226267243793,0.2813606477245603,-1.2031240745627958,9.780011252562138,0.00171745769055051,-0.0017320213801734845,0.001090830782496456,-3.2334983570525293,-12.180990092145162,-6.5
1773080194.1246061,0.000524235275150597,0.7972480853493924,-7.201226267243793,0.28074796456157525,-1.2030345316403221,9.776662376747085,-0.0010363000901794958,-0.000340578800185507,0.0,-3.2334983570525293,-12.180990092145162,-6.5
1773080194.1509125,0.000524235275150597,0.7972480853493924,-7.201226267243793,0.28034023076072806,-1.202974941825676,9.77443373730156,-0.000340578800185507,0.0010363000901794958,0.0,-4.658513272484011,-12.649319560359377,-4.5
1773080194.1812844,0.000524235275150597,0.7972480853493924,-7.201226267243793,0.28034023076072806,-1.202974941825676,9.77443373730156,-0.000340578800185507,0.0010363000901794958,0.0,-4.658513272484011,-12.649319560359377,-4.5
1773080194.2125766,0.000524235275150597,0.7972480853493924,-7.201226267243793,0.28006888847094924,-1.2029352854696909,9.772950602646098,0.000681157600371014,-0.0020726001803589916,-0.001090830782496456,-4.658513272484011,-12.649319560359377,-4.5
1773080194.2400994,0.000524235275150597,0.7972480853493924,-7.201226267243793,0.27988831320819346,-1.2029088946077733,9.771963593100587,-0.0006957212899939887,-0.0013768788903650029,-0.001090830782496456,-2.979819895103163,-12.952873171337215,-4.5
1773080194.257257,0.000524235275150597,0.7972480853493924,-7.201226267243793,0.27988831320819346,-1.2029088946077733,9.771963593100587,-0.0006957212899939887,-0.0013768788903650029,-0.001090830782496456,-2.979819895103163,-12.952873171337215,-4.5
1773080194.2778811,0.000524235275150597,0.7972480853493924,-7.201226267243793,0.27976814238798736,-1.2028913317839725,9.771306749273668,-0.0024131789805444987,0.0003551424898084817,-0.001090830782496456,-2.979819895103163,-12.952873171337215,-4.5
1773080194.3141143,0.000524235275150597,0.7972480853493924,-7.201226267243793,0.2807325796408735,-1.2060575333053989,9.77086962704428,0.0,0.0,0.001090830782496456,-3.8687853413487696,-12.850297904428711,-4.5
1773080194.3394427,0.000524235275150597,0.7972480853493924,-7.201226267243793,0.2807325796408735,-1.2060575333053989,9.77086962704428,0.0,0.0,0.001090830782496456,-3.8687853413487696,-12.850297904428711,-4.5
1773080194.396281,0.000524235275150597,0.7972480853493924,-7.201226267243793,0.2835078816523383,-1.203942306073306,9.777268950498238,-0.000340578800185507,0.0010363000901794958,-0.001090830782496456,-3.8687853413487696,-12.850297904428711,-4.5
1773080194.4187832,0.000524235275150597,0.7972480853493924,-7.201226267243793,0.287443633321488,-1.2088904247479373,9.784872740479038,-0.001362315200742028,0.004145200360717983,0.0,-2.8772446281946595,-12.063907725091608,-5.1875
1773080194.4484184,0.000524235275150597,0.7972480853493924,-7.201226267243793,0.2879740129094055,-1.2058275636828444,9.786587866064043,-0.002398615290921524,0.003804621560532476,-0.002181661564992912,-2.8772446281946595,-12.063907725091608,-5.1875
1773080194.468841,0.000524235275150597,0.7972480853493924,-7.201226267243793,0.2879740129094055,-1.2058275636828444,9.786587866064043,-0.002398615290921524,0.003804621560532476,-0.002181661564992912,-2.8772446281946595,-12.063907725091608,-5.1875
1773080194.5055852,0.000524235275150597,0.7972480853493924,-7.201226267243793,0.2861934948072974,-1.2080115628342387,9.784384151274335,0.0003551424898084818,0.0024131789805444987,0.0,-2.979819895103163,-12.952873171337215,-5.6875
1773080194.52121,0.000524235275150597,0.7972480853493924,-7.201226267243793,0.28291976071736014,-1.2031092111036699,9.782917603698891,-0.000681157600371014,0.0020726001803589916,-0.004363323129985824,-2.979819895103163,-12.952873171337215,-5.6875
1773080194.538856,0.000524235275150597,0.7972480853493924,-7.201226267243793,0.2891857252021404,-1.2041137103761115,9.781941632669843,0.0006957212899939887,0.0013768788903650029,0.00545415391248228,-2.979819895103163,-12.952873171337215,-5.6875
1773080194.5592422,0.000524235275150597,0.7972480853493924,-7.201226267243793,0.2891857252021404,-1.2041137103761115,9.781941632669843,0.0006957212899939887,0.0013768788903650029,0.00545415391248228,-2.979819895103163,-12.952873171337215,-5.6875
1773080194.6180406,0.000524235275150597,0.7972480853493924,-7.201226267243793,0.29126683538867737,-1.1984264146519763,9.781292134852322,-0.0010363000901794958,-0.000340578800185507,-0.002181661564992912,-3.5897520859104,-12.298072459198716,-5.6875
1773080194.6512241,0.000524235275150597,0.7972480853493924,-7.201226267243793,0.29265179097029365,-1.1946415828788204,9.777514789602808,-0.0010217364005565212,0.0031089002705384874,0.0,-3.5897520859104,-12.298072459198716,-5.6875
1773080194.6737359,0.000524235275150597,0.7972480853493924,-7.201226267243793,0.29265179097029365,-1.1946415828788204,9.777514789602808,-0.0010217364005565212,0.0031089002705384874,0.0,-3.5897520859104,-12.298072459198716,-5.6875
1773080194.7183406,0.000524235275150597,0.7972480853493924,-7.201226267243793,0.29039557405441535,-1.1931672292044637,9.775001008534968,-0.0024131789805444987,0.0003551424898084817,0.0,-3.2334983570525293,-12.180990092145162,-5.1875
1773080194.7361298,0.000524235275150597,0.7972480853493924,-7.201226267243793,0.28462712731421463,-1.2006306612554163,9.773328115315095,-0.002398615290921524,0.003804621560532476,0.0,-3.2334983570525293,-12.180990092145162,-5.1875
1773080194.7640958,0.000524235275150597,0.7972480853493924,-7.201226267243793,0.2807882904463833,-1.2055974919133268,9.775559935272032,-0.0003551424898084818,-0.0024131789805444987,0.0,-3.2334983570525293,-12.180990092145162,-5.1875
1773080194.8010364,0.000524235275150597,0.7972480853493924,-7.201226267243793,0.2782335873934591,-1.208902862233032,9.77370007481499,-0.0006957212899939887,-0.0013768788903650029,-0.001090830782496456,-2.6235661662452934,-12.835790804283661,-5.1875
1773080194.8161051,0.000524235275150597,0.7972480853493924,-7.201226267243793,0.2744446418669664,-1.2047467704884376,9.772462358456831,-0.0010363000901794958,-0.000340578800185507,-0.002181661564992912,-2.6235661662452934,-12.835790804283661,-5.1875
1773080194.8490798,0.000524235275150597,0.7972480853493924,-7.201226267243793,0.2744446418669664,-1.2047467704884376,9.772462358456831,-0.0010363000901794958,-0.000340578800185507,-0.002181661564992912,-2.6235661662452934,-12.835790804283661,-5.1875
1773080194.890169,0.000524235275150597,0.7972480853493924,-7.201226267243793,0.2708787313530429,-1.1988030484745202,9.771638672046675,0.0003260151105625323,-0.00448577916090349,0.0,-3.096902262156717,-12.596619442479344,-6.0
1773080194.913988,0.000524235275150597,0.7972480853493924,-7.201226267243793,0.27168354712433374,-1.1938031582786464,9.771090517941897,0.000681157600371014,-0.0020726001803589916,0.0,-3.096902262156717,-12.596619442479344,-6.0
1773080194.9426944,0.000524235275150597,0.7972480853493924,-7.201226267243793,0.27008566323660743,-1.1946980861815388,9.774070839215767,0.0,0.0,-0.002181661564992912,-2.326688058863734,-12.738222165072367,-6.0
1773080194.9719334,0.000524235275150597,0.7972480853493924,-7.201226267243793,0.2774668873104857,-1.1995606102901923,9.776054209731159,-0.000340578800185507,0.0010363000901794958,-0.001090830782496456,-2.326688058863734,-12.738222165072367,-6.0
1773080195.0102835,0.000524235275150597,0.7972480853493924,-7.201226267243793,0.2774668873104857,-1.1995606102901923,9.776054209731159,-0.000340578800185507,0.0010363000901794958,-0.001090830782496456,-2.326688058863734,-12.738222165072367,-6.0
1773080195.0368419,0.000524235275150597,0.7972480853493924,-7.201226267243793,0.27920112009349973,-1.2038409753578851,9.78406434406809,-0.0013768788903650029,0.0006957212899939887,0.0,-3.8687853413487696,-12.850297904428711,-5.1875
1773080195.064266,0.000524235275150597,0.7972480853493924,-7.201226267243793,0.2813996422292834,-1.2098673998801002,9.789394998990256,-0.0010363000901794958,-0.000340578800185507,0.001090830782496456,-3.8687853413487696,-12.850297904428711,-5.1875
1773080195.1379902,0.000524235275150597,0.7972480853493924,-7.201226267243793,0.2807739149688713,-1.2075221393111089,9.792942490293639,0.00171745769055051,-0.0017320213801734845,-0.001090830782496456,-3.096902262156717,-12.596619442479344,-5.25
1773080195.1805184,0.000524235275150597,0.7972480853493924,-7.201226267243793,0.2807739149688713,-1.2075221393111089,9.792942490293639,0.00171745769055051,-0.0017320213801734845,-0.001090830782496456,-3.096902262156717,-12.596619442479344,-5.25
1773080195.2345,0.000524235275150597,0.7972480853493924,-7.201226267243793,0.2845797994427123,-1.208094874393861,9.791958194420646,-0.000681157600371014,0.0020726001803589916,-0.001090830782496456,-3.096902262156717,-12.596619442479344,-5.25
1773080195.2660882,0.000524235275150597,0.7972480853493924,-7.201226267243793,0.28606816345420083,-1.2052981338090865,9.791303156512475,0.0006957212899939887,0.0013768788903650029,0.0,-3.4531559910145875,-12.713701809532898,-4.5
1773080195.3345563,0.000524235275150597,0.7972480853493924,-7.201226267243793,0.2838807636932547,-1.2044813437828956,9.7841770126872,-0.000340578800185507,0.0010363000901794958,0.001090830782496456,-3.4531559910145875,-12.713701809532898,-4.5
1773080195.3514612,0.000524235275150597,0.7972480853493924,-7.201226267243793,0.2838807636932547,-1.2044813437828956,9.7841770126872,-0.000340578800185507,0.0010363000901794958,0.001090830782496456,-3.4531559910145875,-12.713701809532898,-4.5
1773080195.3908017,0.000524235275150597,0.7972480853493924,-7.201226267243793,0.2824250735872014,-1.203937779144608,9.779434643575723,0.000681157600371014,-0.0020726001803589916,0.002181661564992912,-2.994326995248213,-11.707653996233738,-3.6875
1773080195.4158962,0.000524235275150597,0.7972480853493924,-7.201226267243793,0.28041191849140956,-1.200398153565366,9.77627864990777,-0.0006957212899939887,-0.0013768788903650029,0.001090830782496456,-2.994326995248213,-11.707653996233738,-3.6875
1773080195.4502792,0.000524235275150597,0.7972480853493924,-7.201226267243793,0.27907218626357605,-1.1980425722825891,9.774178371376506,-0.0024131789805444987,0.0003551424898084817,-0.002181661564992912,-3.096902262156717,-12.596619442479344,-6.0
1773080195.4667318,0.000524235275150597,0.7972480853493924,-7.201226267243793,0.27500272004726606,-1.1975193688438057,9.776125771182917,-0.0010363000901794958,-0.000340578800185507,0.0,-3.096902262156717,-12.596619442479344,-6.0
1773080195.4901435,0.000524235275150597,0.7972480853493924,-7.201226267243793,0.2754724251237043,-1.196126773208523,9.780766855707522,-0.0017320213801734845,-0.0017174576905505097,-0.001090830782496456,-3.096902262156717,-12.596619442479344,-6.0
1773080195.5029821,0.000524235275150597,0.7972480853493924,-7.201226267243793,0.2754724251237043,-1.196126773208523,9.780766855707522,-0.0017320213801734845,-0.0017174576905505097,-0.001090830782496456,-3.096902262156717,-12.596619442479344,-6.0
1773080195.5160904,0.000524235275150597,0.7972480853493924,-7.201226267243793,0.27682941819646184,-1.1983779057540314,9.783855445614336,0.000340578800185507,-0.0010363000901794958,0.002181661564992912,-3.336073623961034,-13.069955538390769,-4.875
1773080195.5326457,0.000524235275150597,0.7972480853493924,-7.201226267243793,0.2819547809035899,-1.2020094891094082,9.779220644280871,0.000340578800185507,-0.0010363000901794958,0.0,-3.336073623961034,-13.069955538390769,-4.875
1773080195.5487444,0.000524235275150597,0.7972480853493924,-7.201226267243793,0.2819547809035899,-1.2020094891094082,9.779220644280871,0.000340578800185507,-0.0010363000901794958,0.0,-3.336073623961034,-13.069955538390769,-4.875
1773080195.573256,0.000524235275150597,0.7972480853493924,-7.201226267243793,0.28432124293979333,-1.2012483778804908,9.776136235767574,0.0,0.0,-0.001090830782496456,-3.336073623961034,-13.069955538390769,-4.875
1773080195.6010528,0.000524235275150597,0.7972480853493924,-7.201226267243793,0.28376261719663465,-1.2049641658356294,9.774083596357075,0.0006957212899939887,0.0013768788903650029,0.001090830782496456,-2.6235661662452934,-12.835790804283661,-4.5
1773080195.6171596,0.000524235275150597,0.7972480853493924,-7.201226267243793,0.28234644841348366,-1.2042590918272267,9.772717587758873,-0.0013768788903650029,0.0006957212899939887,0.0,-2.6235661662452934,-12.835790804283661,-4.5
1773080195.6363087,0.000524235275150597,0.7972480853493924,-7.201226267243793,0.28234644841348366,-1.2042590918272267,9.772717587758873,-0.0013768788903650029,0.0006957212899939887,0.0,-2.6235661662452934,-12.835790804283661,-4.5
1773080195.6592522,0.000524235275150597,0.7972480853493924,-7.201226267243793,0.27822611452346213,-1.2048342825421647,9.775153636003404,0.0020726001803589916,0.000681157600371014,0.0,-2.6235661662452934,-12.835790804283661,-4.5
1773080195.6947536,0.000524235275150597,0.7972480853493924,-7.201226267243793,0.27548407834679817,-1.2052170655376548,9.77342968719038,0.0,0.0,-0.002181661564992912,-4.048581081676774,-13.304120272497876,-5.1875
1773080195.7166588,0.000524235275150597,0.7972480853493924,-7.201226267243793,0.27548407834679817,-1.2052170655376548,9.77342968719038,0.0,0.0,-0.002181661564992912,-4.048581081676774,-13.304120272497876,-5.1875
1773080195.7519948,0.000524235275150597,0.7972480853493924,-7.201226267243793,0.27548407834679817,-1.2052170655376548,9.77342968719038,0.0034494790707239945,-1.4563689622974561e-05,0.0,-4.048581081676774,-13.304120272497876,-5.1875
1773080195.7793906,0.000524235275150597,0.7972480853493924,-7.201226267243793,0.2736592839017794,-1.2054718033451872,9.775627530220401,0.0006957212899939887,0.0013768788903650029,-0.001090830782496456,-3.336073623961034,-13.069955538390769,-5.1875
1773080195.7955406,0.000524235275150597,0.7972480853493924,-7.201226267243793,0.2736592839017794,-1.2054718033451872,9.775627530220401,0.0006957212899939887,0.0013768788903650029,-0.001090830782496456,-3.336073623961034,-13.069955538390769,-5.1875
1773080195.809292,0.000524235275150597,0.7972480853493924,-7.201226267243793,0.27348931317424635,-1.2088192178949686,9.780435281912684,-0.00171745769055051,0.0017320213801734845,0.0,-3.336073623961034,-13.069955538390769,-5.1875
1773080195.8229067,0.000524235275150597,0.7972480853493924,-7.201226267243793,0.2723317899624332,-1.207868995500301,9.783634786957794,0.000681157600371014,-0.0020726001803589916,-0.001090830782496456,-3.336073623961034,-13.069955538390769,-5.1875
1773080195.8413036,0.000524235275150597,0.7972480853493924,-7.201226267243793,0.2723317899624332,-1.207868995500301,9.783634786957794,0.000681157600371014,-0.0020726001803589916,-0.001090830782496456,-3.336073623961034,-13.069955538390769,-5.1875
1773080195.8777144,0.000524235275150597,0.7972480853493924,-7.201226267243793,0.27896165955564317,-1.2083257033131312,9.782418910117181,0.004145200360717983,0.001362315200742028,-0.001090830782496456,-4.005381436244582,-12.434668554094529,-5.6875
1773080195.9218345,0.0009655871012352435,0.7903563007017624,-7.200119669637564,0.282329354118091,-1.2054517478763327,9.781609757661988,-0.00448577916090349,-0.0003260151105625323,-0.004363323129985824,-4.005381436244582,-12.434668554094529,-5.6875
1773080195.952002,0.000524235275150597,0.7972480853493924,-7.201226267243793,0.2845705172297869,-1.203539162637329,9.774381052327243,-0.009297573432369512,0.0038337489397784258,0.001090830782496456,-3.8687853413487696,-12.850297904428711,-5.6875
1773080196.0062082,0.000524235275150597,0.7972480853493924,-7.201226267243793,0.27652831809175893,-1.2053995872997612,9.749499759432984,-1.4563689622974668e-05,-0.0034494790707239945,0.007635815477475192,-3.8687853413487696,-12.850297904428711,-5.6875
1773080196.0501454,-0.02126038485491059,0.7959023589866981,-7.201602977593366,0.2613481748402143,-1.1883942791062811,9.775420372192961,0.016906816553434463,0.0009634816420646216,-0.003272492347489368,-2.994326995248213,-11.707653996233738,-4.875
1773080196.0864904,-0.02126038485491059,0.7959023589866981,-7.201602977593366,0.2613481748402143,-1.1883942791062811,9.775420372192961,0.016906816553434463,0.0009634816420646216,-0.003272492347489368,-2.994326995248213,-11.707653996233738,-4.875
1773080196.1139936,-0.012509844741418358,0.7892258072471936,-7.157614307575687,0.26860827883374333,-1.1646756734567851,9.790332755681488,0.011000467433297047,-0.009015249390675904,0.014180800172453928,-4.165663448730328,-12.947866543640005,-4.875
1773080196.1336281,-0.005595652846476547,0.7885576109974921,-7.164528499470631,0.2575503500183794,-1.1541132543079178,9.783531221774266,-0.006558379341262481,-0.0010071727109335466,0.006544984694978736,-4.165663448730328,-12.947866543640005,-4.875
1773080196.1560833,-0.005595652846476547,0.7885576109974921,-7.164528499470631,0.24805794212377424,-1.1513063813301134,9.779004876937123,-0.006188673161831026,0.0048554853403349465,-0.001090830782496456,-4.165663448730328,-12.947866543640005,-4.875
1773080196.1894698,-0.005595652846476547,0.7885576109974921,-7.164528499470631,0.24805794212377424,-1.1513063813301134,9.779004876937123,-0.006188673161831026,0.0048554853403349465,-0.001090830782496456,-4.165663448730328,-12.947866543640005,-4.875
1773080196.2228324,-0.034273610260520164,0.7867794516803103,-7.1648804722758115,0.23525109010671283,-1.1832614911351846,9.775992645010588,-0.009652715922177995,0.0014205699592339269,-0.014180800172453928,-3.8687853413487696,-12.850297904428711,-5.1875
1773080196.2413843,-0.034273610260520164,0.7867794516803103,-7.1648804722758115,0.23525109010671283,-1.1832614911351846,9.775992645010588,-0.009652715922177995,0.0014205699592339269,-0.014180800172453928,-3.8687853413487696,-12.850297904428711,-5.1875
1773080196.2632518,-0.05495039751421473,0.7854622111693966,-7.164814534290317,0.22672827315126923,-1.2045272597484937,9.777333150019635,-0.010333873522549008,0.0034931701395929187,-0.004363323129985824,-3.8687853413487696,-12.850297904428711,-5.1875
1773080196.3064752,-0.056687367184690106,0.811917672390362,-7.176146644781503,0.25701296588363853,-1.2209468528309824,9.778225241128732,-0.015131104104392055,0.01110241326065787,-0.001090830782496456,-3.8687853413487696,-12.850297904428711,-5.6875
1773080196.3318589,-0.061712270791158895,0.8705894817978242,-7.207257728773156,0.28238913855153264,-1.2477633555308876,9.792199364625805,-0.019587755886049597,0.017675356291543327,-0.007635815477475192,-3.8687853413487696,-12.850297904428711,-5.6875
1773080196.3565004,-0.061712270791158895,0.8705894817978242,-7.207257728773156,0.28238913855153264,-1.2477633555308876,9.792199364625805,-0.019587755886049597,0.017675356291543327,-0.007635815477475192,-3.8687853413487696,-12.850297904428711,-5.6875
1773080196.390115,-0.15349411139239133,0.8625702948027809,-7.221694453395133,0.30178467821910504,-1.423236195097872,9.808189211126557,-0.016994198691172312,-0.02166035606640859,-0.08944812416470939,-3.8687853413487696,-12.850297904428711,-5.6875
1773080196.4230573,-0.40212765539756595,0.7171501016187553,-7.365570751363854,0.31469219320550007,-1.540011409669647,9.875697174378947,-0.029220294179747527,-0.05782891339533012,-0.032724923474893676,-2.740648533298847,-12.47953707542579,-4.875
1773080196.4390044,-0.40212765539756595,0.7171501016187553,-7.365570751363854,0.31469219320550007,-1.540011409669647,9.875697174378947,-0.029220294179747527,-0.05782891339533012,-0.032724923474893676,-2.740648533298847,-12.47953707542579,-4.875
1773080196.488019,0.5428218547548532,0.9209213483867483,-7.76454066138076,0.35840621358029945,-1.5447938253029994,10.028518031352156,-0.10687559643395192,0.014249390661208197,0.2879793265790644,-2.8967583560369183,-12.004532103615297,-7.875
1773080196.5423334,0.5428218547548532,0.9209213483867483,-7.76454066138076,0.35840621358029945,-1.5447938253029994,10.028518031352156,-0.10687559643395192,0.014249390661208197,0.2879793265790644,-2.8967583560369183,-12.004532103615297,-7.875
1773080196.5618136,1.6070217343126998,1.3345501585081199,-8.039434151957824,0.3548639571612352,-1.532059733749511,10.069155106907367,-0.16968211862545787,0.09005949783016412,0.5399612373357457,-2.8967583560369183,-12.004532103615297,-7.875
1773080196.593731,2.859013200068483,1.8598558932668359,-8.246629458890457,0.2762372798565114,-1.5486511682618842,10.223312871621618,-0.16682641501736706,0.1128144087452441,0.5999569303730508,-2.8967583560369183,-12.004532103615297,-7.875
1773080196.6581721,4.621251732217176,2.570071943054972,-8.301426764943741,0.19073151610793718,-1.6515834110784304,10.325903141983886,-0.08321212282339042,0.14488707072117366,0.6784967467127956,-5.458576114016627,-10.214919079830597,-11.875
1773080196.7062702,6.290453171620892,3.1763132632912723,-8.484388370572042,0.14845011977394998,-1.7645741202270193,10.1064962140721,-0.1167143045093198,0.1350248492054169,0.7995789635699022,-5.458576114016627,-10.214919079830597,-11.875
1773080196.7304564,8.790084102597799,4.016000845824358,-8.672746374000559,0.12349021221230237,-1.8387237653851445,9.937067572531548,-0.09382832038763303,0.16321445723384204,1.004655150679236,-7.102735880463587,-6.4132104294475765,-16.75
1773080196.7460775,8.790084102597799,4.016000845824358,-8.672746374000559,0.12349021221230237,-1.8387237653851445,9.937067572531548,-0.09382832038763303,0.16321445723384204,1.004655150679236,-7.102735880463587,-6.4132104294475765,-16.75
1773080196.8055508,10.418918109370884,4.500082195355922,-8.690088181991815,0.13139235986632927,-1.8448021265825925,9.75406735837454,-0.07832751010380952,0.15797470202445266,1.0231992739816758,-7.102735880463587,-6.4132104294475765,-16.75
1773080196.826431,14.102055507069132,5.379762502403131,-8.586146036372169,0.13665115085731092,-1.8488472080597507,9.62893764839207,-0.05887977717513258,0.025430236308838023,0.9457502884244273,-10.567191746884415,-3.0781623713797015,-24.25
1773080196.8418953,14.102055507069132,5.379762502403131,-8.586146036372169,0.13665115085731092,-1.8488472080597507,9.62893764839207,-0.05887977717513258,0.025430236308838023,0.9457502884244273,-10.567191746884415,-3.0781623713797015,-24.25
1773080196.864146,15.10686053319519,5.500934101015639,-8.673870530527164,0.09548172369273791,-1.9084732098540673,9.448656984676921,-0.08876666526562817,-0.026876597835409105,0.9152070265145266,-10.567191746884415,-3.0781623713797015,-24.25
1773080196.9125085,19.08820884980934,5.809303455080938,-8.78045783261413,0.03603942294072076,-1.9931593456177294,9.278946354418801,-0.03909146544627014,-0.10815052949695611,1.0679233360640303,-11.903304057602908,-1.2146666259736398,-26.6875
1773080196.9399827,20.88025320209021,5.901960009176918,-8.626623248500158,0.016992576555714334,-1.9801326198422247,9.24584769356251,0.03507961641910722,-0.10673890928848807,1.069014166846527,-11.903304057602908,-1.2146666259736398,-26.6875
1773080196.9626966,20.88025320209021,5.901960009176918,-8.626623248500158,0.016992576555714334,-1.9801326198422247,9.24584769356251,0.03507961641910722,-0.10673890928848807,1.069014166846527,-11.903304057602908,-1.2146666259736398,-26.6875
1773080197.0072513,22.10723964435271,5.928511091688918,-8.50220187374553,0.03949719933526978,-1.907084585128144,9.193714899133042,0.04976819589595295,-0.1409513759540344,1.1082840750163994,-14.806034006345902,-0.5897145520747749,-33.5
1773080197.035143,25.447629303855894,5.753726852072337,-8.154130128545507,0.0513405456279435,-1.8489382658725089,9.159021106801703,0.09105104916651417,-0.24909629151213342,1.213003830136059,-14.806034006345902,-0.5897145520747749,-33.5
1773080197.0542526,27.522280719228323,5.4922576420449225,-7.9685268483670555,0.05922216028687113,-1.8102425399448292,9.253011685316428,0.13508204627894832,-0.2782583309333891,1.2064588454410803,-17.583337208539994,1.6553897156781607,-37.6875
1773080197.0805926,27.522280719228323,5.4922576420449225,-7.9685268483670555,0.05922216028687113,-1.8102425399448292,9.253011685316428,0.13508204627894832,-0.2782583309333891,1.2064588454410803,-17.583337208539994,1.6553897156781607,-37.6875
1773080197.1274183,33.84251450038575,4.597048357347304,-7.592017400079437,0.06469064929548589,-1.789554147283043,9.631474818734484,-0.003130135583979059,-0.33286744848005395,1.2566370614359172,-20.788786330311293,0.7992890044673728,-40.5625
1773080197.15671,33.84251450038575,4.597048357347304,-7.592017400079437,0.06469064929548589,-1.789554147283043,9.631474818734484,-0.003130135583979059,-0.33286744848005395,1.2566370614359172,-20.788786330311293,0.7992890044673728,-40.5625
1773080197.1874452,37.581076200460345,4.396249286691414,-7.656135847917493,0.0702846455507945,-1.7559226956670295,9.835033289539476,-0.043595144108705394,-0.2761241401826294,1.32972272386318,-20.788786330311293,0.7992890044673728,-40.5625
1773080197.2135656,39.81374190732223,4.377349148457817,-7.701036144925222,0.09743100468373483,-1.6976741293153186,9.96380895454845,-0.06702226287339051,-0.18737203860662416,1.327541062298187,-24.334634859899296,3.5812771793557188,-43.25
1773080197.2443564,41.854142735962895,4.358219824168865,-7.733259595136724,0.11571990649432738,-1.606019970363543,9.989295710361738,-0.06515916828661025,-0.15460926927955773,1.215185491701052,-24.334634859899296,3.5812771793557188,-43.25
1773080197.2685318,43.09528965348443,4.359638724269057,-7.7683935189624265,0.14704762387664413,-1.5176025383876195,10.006256861649764,-0.07957998741138535,-0.13868049805781085,1.090830782496456,-24.334634859899296,3.5812771793557188,-43.25
1773080197.2929592,43.09528965348443,4.359638724269057,-7.7683935189624265,0.14704762387664413,-1.5176025383876195,10.006256861649764,-0.07957998741138535,-0.13868049805781085,1.090830782496456,-24.334634859899296,3.5812771793557188,-43.25
1773080197.3154476,45.26701373035511,4.49104460527193,-7.919365133962427,0.16789586984104288,-1.458761725095074,9.910500743729251,-0.12430670581381348,-0.11089533752692021,0.9490227807719167,-26.607406107046216,8.294802755624742,-50.0
1773080197.331774,46.19981113446387,4.5608429655555165,-8.047814800798387,0.18690287137594125,-1.456649423555752,9.826705446675158,-0.15896731104576323,-0.06831965169182305,0.8192139176548384,-26.607406107046216,8.294802755624742,-50.0
1773080197.3448427,47.46041252369673,4.614572264404104,-8.223849814319824,0.19955181857529697,-1.4552437104772877,9.724109048637988,-0.15670538290030558,-0.022795266172040113,0.7668540400950086,-26.607406107046216,8.294802755624742,-50.0
1773080197.3673959,47.46041252369673,4.614572264404104,-8.223849814319824,0.19955181857529697,-1.4552437104772877,9.724109048637988,-0.15670538290030558,-0.022795266172040113,0.7668540400950086,-26.607406107046216,8.294802755624742,-50.0
1773080197.4111586,49.053618717645804,4.778186153107096,-8.36390738619047,0.22808129753666553,-1.451219655962866,9.655832291821113,-0.13081805827429824,0.06264404347870493,0.7330382858376184,-28.427189424073507,12.630891999294567,-52.75
1773080197.434928,50.18792269077117,4.977927131271162,-8.393214453958716,0.24288970872494506,-1.4358301350972469,9.61039487286083,-0.10978621898862585,0.14189467996761895,0.7112216701876893,-28.427189424073507,12.630891999294567,-52.75
1773080197.4555147,51.34514395978966,5.181483054436746,-8.446834237564067,0.25692217931530265,-1.4383001384112952,9.556740996160753,-0.1211855199806003,0.13814831316557838,0.7264933011426397,-28.427189424073507,12.630891999294567,-52.75
1773080197.4726307,51.34514395978966,5.181483054436746,-8.446834237564067,0.25692217931530265,-1.4383001384112952,9.556740996160753,-0.1211855199806003,0.13814831316557838,0.7264933011426397,-28.427189424073507,12.630891999294567,-52.75
1773080197.49231,52.54445954996898,5.471078473904558,-8.544060766305504,0.26621597112975387,-1.450521975769816,9.521034940569926,-0.143419473881162,0.10098714681534626,0.753764070705051,-27.513703622288432,13.654784664536916,-55.1875
1773080197.5229084,53.6819938948266,5.878454012162287,-8.668042437054185,0.2467544676356814,-1.5199011374595743,9.597626310656588,-0.19008210531848527,0.07876214266555047,0.6795875774952921,-27.513703622288432,13.654784664536916,-55.1875
1773080197.5375695,54.365730184294456,6.120615514653125,-8.785762591604103,0.23380305445961477,-1.566072194548091,9.648597011867597,-0.19464070292750363,0.06118873220136797,0.6272276999354622,-27.513703622288432,13.654784664536916,-55.1875
1773080197.557212,54.365730184294456,6.120615514653125,-8.785762591604103,0.23380305445961477,-1.566072194548091,9.648597011867597,-0.19464070292750363,0.06118873220136797,0.6272276999354622,-27.513703622288432,13.654784664536916,-55.1875
1773080197.5827682,56.11359135196348,6.673468317746387,-8.832162360811532,0.2560524997525268,-1.5514422987438476,9.525297193899473,-0.13905020423724232,0.07371732936011686,0.6294093615004551,-27.339236164660594,17.527872722692692,-59.0625
1773080197.6347747,57.613567684675054,6.857540251905772,-8.75012451911231,0.2708592570523707,-1.5417062665127677,9.439897430683581,-0.04508186089223661,0.025371981550346125,0.6839509006252779,-27.339236164660594,17.527872722692692,-59.0625
1773080197.6564019,57.613567684675054,6.857540251905772,-8.75012451911231,0.2708592570523707,-1.5417062665127677,9.439897430683581,-0.04508186089223661,0.025371981550346125,0.6839509006252779,-27.339236164660594,17.527872722692692,-59.0625
1773080197.6981912,59.558731846338404,6.92812641384007,-8.510841626134313,0.2305985437995648,-1.62916203288083,9.352958836875393,0.0590455916998424,-0.06786028524770546,0.7483099167925688,-28.376801492098455,19.884218291852438,-62.25
1773080197.7277503,61.39449232956581,6.750356676090221,-8.295297064746748,0.20380548887145783,-1.6873628684538529,9.295102173863771,0.06281213613036304,-0.1561844258857873,0.8170322560898455,-28.376801492098455,19.884218291852438,-62.25
1773080197.7479613,62.28677115664227,6.676962791840465,-8.183752394152428,0.2117554100743629,-1.6331149756929357,9.373678120686987,0.05548521705099169,-0.1758158728407058,0.7657632093125121,-28.376801492098455,19.884218291852438,-62.25
1773080197.768399,64.1888707309881,6.224439751343031,-8.266253042329883,0.21704599382845755,-1.5970136090492135,9.556428892132455,-0.010346159085223686,-0.24452874415234918,0.6664976081053346,-28.6890211375746,20.834228235473425,-66.1875
1773080197.7950892,64.1888707309881,6.224439751343031,-8.266253042329883,0.21704599382845755,-1.5970136090492135,9.556428892132455,-0.010346159085223686,-0.24452874415234918,0.6664976081053346,-28.6890211375746,20.834228235473425,-66.1875
1773080197.8131628,64.89390945015093,5.982162283734841,-8.414767591524225,0.1982322713048512,-1.6014555754554005,9.70146327102077,-0.09428085245090574,-0.35248994568420655,0.5945027764605685,-28.6890211375746,20.834228235473425,-66.1875
1773080197.832489,65.62770966696405,5.672725067152275,-8.542331758806219,0.09033060698368607,-1.6463220199635888,9.797982030030777,-0.03621330608275095,-0.4068928934492016,0.607592745850526,-28.6890211375746,20.834228235473425,-66.1875
1773080197.8572202,66.66751945266162,5.20594698507034,-8.579695952383805,-0.010077749741768996,-1.6855798239147999,9.82541795718624,0.048437286201405166,-0.3744796526730865,0.5617778529856748,-31.349241972715138,22.72307877436849,-67.0625
1773080197.9091337,68.1864955216935,4.48277042641637,-8.42521718238012,-0.07898720869039665,-1.7053496751369737,9.766738690960466,0.13675581290062988,-0.2903387895257345,0.4908738521234052,-31.349241972715138,22.72307877436849,-67.0625
1773080197.9234505,68.1864955216935,4.48277042641637,-8.42521718238012,-0.07898720869039665,-1.7053496751369737,9.766738690960466,0.13675581290062988,-0.2903387895257345,0.4908738521234052,-31.349241972715138,22.72307877436849,-67.0625
1773080197.9484854,69.20319846777983,4.19832079407156,-8.251845810288692,-0.04104216843249792,-1.6627952970570272,9.670821395753137,0.13737310180365192,-0.22583498727215814,0.5737769915931359,-33.63703310295369,23.87907368975602,-67.375
1773080197.9642882,69.96033079831636,4.058857374445057,-8.161769540047906,-0.016834577606076765,-1.6312979444238969,9.606989507259053,0.08401540387960232,-0.19973815705257206,0.6654067773228381,-33.63703310295369,23.87907368975602,-67.375
1773080197.9851837,71.17627381339086,3.906903466757179,-8.064527010389886,-0.01339159325504271,-1.6039363687156147,9.681589008271335,0.08174786179528756,-0.16488822385552362,0.7352199474026113,-33.63703310295369,23.87907368975602,-67.375
1773080198.0030425,71.17627381339086,3.906903466757179,-8.064527010389886,-0.01339159325504271,-1.6039363687156147,9.681589008271335,0.08174786179528756,-0.16488822385552362,0.7352199474026113,-33.63703310295369,23.87907368975602,-67.375
1773080198.0364,72.4625713307059,3.8073560629387044,-7.896104400215331,-0.0111003256300848,-1.5857275457305804,9.814861935546963,0.1001189393768249,-0.14392358907910904,0.7581273938350369,-36.19885086093339,25.66868671354072,-69.75
1773080198.052489,73.62908942988872,3.7390023430413546,-7.665309728354413,-0.001639396934949605,-1.447761914704524,9.90355357989275,0.14938407775979132,-0.07721049949970978,0.6435901616729091,-36.19885086093339,25.66868671354072,-69.75
1773080198.0715766,73.62908942988872,3.7390023430413546,-7.665309728354413,-0.001639396934949605,-1.447761914704524,9.90355357989275,0.14938407775979132,-0.07721049949970978,0.6435901616729091,-36.19885086093339,25.66868671354072,-69.75
1773080198.1211061,74.8134945541789,3.6792587399052,-7.222154575365362,0.0046567454261644955,-1.3559473284337644,9.735109282356568,0.1930397547539369,-0.03186087825540253,0.49960049838337683,-36.88183133541246,27.74683346521163,-68.5
1773080198.1468823,75.81062009346077,3.608386543528372,-6.759224139608008,0.016202285584793183,-1.3065128948532732,9.623011483992332,0.22353498199668861,0.0011259603548656391,0.4341506514335895,-36.88183133541246,27.74683346521163,-68.5
1773080198.1690562,76.76296305682946,3.6281220720075935,-6.1217244698597355,0.027063602972702796,-1.272570421932925,9.775879247493108,0.2641108860995417,0.05235280334006435,0.42542400517361784,-38.423928617897495,27.634757725855287,-69.6875
1773080198.2104747,76.76296305682946,3.6281220720075935,-6.1217244698597355,0.027063602972702796,-1.272570421932925,9.775879247493108,0.2641108860995417,0.05235280334006435,0.42542400517361784,-38.423928617897495,27.634757725855287,-69.6875
1773080198.2405703,77.75512854660491,3.6628935998015013,-5.39746582957601,0.05593911057013231,-1.1337125513951967,9.877611036458067,0.27934393603129454,0.06539674357447443,0.459239759431008,-38.423928617897495,27.634757725855287,-69.6875
1773080198.2563162,78.90076525197098,3.6928151287235114,-4.822204207691379,0.15460267292757648,-1.0151939499129536,9.764676373400455,0.17464849954391953,0.02409932661429024,0.543233729683235,-40.80928838734734,29.087630748624374,-71.25
1773080198.2824504,79.82922844961436,3.7608343086816176,-4.554426222423906,0.22339540030626054,-0.9458548127194771,9.689519616698464,0.09436156296482602,0.04479058709977712,0.5475970528132209,-40.80928838734734,29.087630748624374,-71.25
1773080198.2945626,80.36943277280872,3.854112826825941,-4.4526361636064316,0.26690873028712586,-0.9356669236962463,9.85693589564503,0.060620748306071955,0.06011101916926784,0.5170537909033202,-40.80928838734734,29.087630748624374,-71.25
1773080198.307917,80.36943277280872,3.854112826825941,-4.4526361636064316,0.26690873028712586,-0.9356669236962463,9.85693589564503,0.060620748306071955,0.06011101916926784,0.5170537909033202,-40.80928838734734,29.087630748624374,-71.25
1773080198.3200927,80.80895048807804,3.9909717861365306,-4.405982373798528,0.2587761022912674,-0.9445978018379879,10.025216458146025,-0.0027302443403411426,0.08866471943826733,0.4188790204786391,-41.1655421162052,28.970548381570822,-73.25
1773080198.336789,81.23981569197798,4.061570187511196,-4.612675192864928,0.2533639292074309,-0.9505412014768714,10.15393085120998,-0.23937075714184053,-0.07522422377212812,0.40251655874119224,-41.1655421162052,28.970548381570822,-73.25
1773080198.35473,81.23981569197798,4.061570187511196,-4.612675192864928,0.2533639292074309,-0.9505412014768714,10.15393085120998,-0.23937075714184053,-0.07522422377212812,0.40251655874119224,-41.1655421162052,28.970548381570822,-73.25
1773080198.394139,81.65829650049047,4.108360439144034,-4.752509712653761,0.32176457411922776,-0.9378752353039552,10.222863283423463,-0.12702238646453165,-0.0187811390179289,0.3719732968312915,-41.1655421162052,28.970548381570822,-73.25
1773080198.4146883,83.0037628109371,4.018901765373493,-5.219298126359352,0.33490774189130196,-0.8309316053852243,10.221905483133343,-0.13751084663407628,-0.1336065573731313,0.4145156973486533,-41.492268861826396,31.165777500295285,-74.1875
1773080198.4388082,83.55758296867351,3.8586407099963873,-5.377129694027831,0.3405211444508012,-0.7502281461595018,10.221268077739598,-0.07485557527765717,-0.16353713653249577,0.31306843457648287,-41.492268861826396,31.165777500295285,-74.1875
1773080198.4601588,83.55758296867351,3.8586407099963873,-5.377129694027831,0.3405211444508012,-0.7502281461595018,10.221268077739598,-0.07485557527765717,-0.16353713653249577,0.31306843457648287,-41.492268861826396,31.165777500295285,-74.1875
1773080198.5078623,84.103695137769,3.6183447357577263,-5.488793113299243,0.16669694111183378,-0.6598051329734862,10.220843891570347,-0.037976732969118694,-0.17093687405998198,0.2519819107566813,-42.375393242425254,32.65183691310215,-74.5
1773080198.5368853,84.3586136852419,3.5072092397039336,-5.5861850062901,0.05101887553333083,-0.5996296277894341,10.103482690657001,-0.022836679113960746,-0.0982154895330845,0.14835298641951802,-42.375393242425254,32.65183691310215,-74.5
1773080198.552033,84.65070041243618,3.27588489879355,-5.687615771298767,0.002235474065607416,-0.6453865146747477,10.008654563923088,-0.022286594720196503,-0.13133340134995944,0.1090830782496456,-42.78434708916316,34.096365556375886,-74.1875
1773080198.587349,84.67370398714705,3.0585307243234885,-5.813071974630293,-0.020963630174218553,-0.7361724494535933,9.805052813173837,0.009303187371226602,-0.08420806765660979,-0.031634092692397225,-42.78434708916316,34.096365556375886,-74.1875
1773080198.605314,84.67370398714705,3.0585307243234885,-5.813071974630293,-0.020963630174218553,-0.7361724494535933,9.805052813173837,0.009303187371226602,-0.08420806765660979,-0.031634092692397225,-42.78434708916316,34.096365556375886,-74.1875
1773080198.6182837,84.61274966326063,3.0204887981766153,-5.838030020019323,0.07446646867811103,-0.8446597611648987,9.669558122430793,-0.024987711681291696,-0.03576972377024412,-0.07308566242726255,-42.78434708916316,34.096365556375886,-74.1875
1773080198.6323981,84.50297735423602,2.999269952703261,-5.842565759532411,0.22968631948545526,-0.9923497545249766,9.673051047121108,0.011384737302351478,0.0002968877313165827,-0.07090400086226964,-43.5740750202984,34.29734390044522,-72.875
1773080198.651204,84.50297735423602,2.999269952703261,-5.842565759532411,0.22968631948545526,-0.9923497545249766,9.673051047121108,0.011384737302351478,0.0002968877313165827,-0.07090400086226964,-43.5740750202984,34.29734390044522,-72.875
1773080198.679515,84.49410000012232,2.975319049420574,-5.857978392515433,0.33402780586973535,-1.0938136846852593,9.675375549483988,-0.004587724988264313,-0.02447236860563049,0.001090830782496456,-43.5740750202984,34.29734390044522,-72.875
1773080198.7053134,84.49410000012232,2.975319049420574,-5.857978392515433,0.352619669336077,-1.1780473502419597,9.67692247984009,0.012051331213099517,-0.005225191519766403,0.0,-43.69115738735196,34.65359762930309,-72.5
1773080198.722563,84.49410000012232,2.975319049420574,-5.857978392515433,0.352619669336077,-1.1780473502419597,9.67692247984009,0.012051331213099517,-0.005225191519766403,0.0,-43.69115738735196,34.65359762930309,-72.5
1773080198.7386417,84.52218728958736,2.93033936004451,-5.837455619053684,0.3491475604762868,-1.228747883930166,9.714748173492247,0.013768788903650027,-0.006957212899939887,0.002181661564992912,-43.69115738735196,34.65359762930309,-72.5
1773080198.7759757,84.51993501695308,2.73699952635357,-5.938347516216876,0.3543264203973125,-1.242421437449865,9.739920750077072,0.012391910013285023,-0.006261491609945899,0.002181661564992912,-43.78872602656325,34.95047573668465,-74.1875
1773080198.8179762,84.51993501695308,2.73699952635357,-5.938347516216876,0.3543264203973125,-1.242421437449865,9.739920750077072,0.012391910013285023,-0.006261491609945899,0.002181661564992912,-43.78872602656325,34.95047573668465,-74.1875
1773080198.859043,84.54925124988438,2.6370981349505604,-5.987136906496294,0.33879487873716946,-1.2366313366321144,9.756672818598169,0.005137809382028555,-0.008645543211244448,0.011999138607461015,-43.78872602656325,34.95047573668465,-74.1875
1773080198.8941424,84.55948338594219,2.455870589295192,-6.130930052844369,0.3093914749541744,-1.23904454676559,9.767821133066091,-2.9127379245949336e-05,-0.006898958141447989,0.013089969389957472,-43.27552803701777,34.79019372419891,-73.6875
1773080198.9114568,84.55172193657255,2.398606790987567,-6.1847328983266205,0.29504588615081967,-1.2565399580744763,9.771895100102341,-0.005166936761274504,0.0017465850697964593,-0.001090830782496456,-43.27552803701777,34.79019372419891,-73.6875
1773080198.9372756,84.54693513210933,2.355144063477598,-6.246651655557364,0.3055661423406455,-1.275672468445209,9.774606279655773,-0.023066362336019542,0.010790961839718312,0.002181661564992912,-43.27552803701777,34.79019372419891,-73.6875
1773080198.955241,84.54693513210933,2.355144063477598,-6.246651655557364,0.3055661423406455,-1.275672468445209,9.774606279655773,-0.023066362336019542,0.010790961839718312,0.002181661564992912,-43.27552803701777,34.79019372419891,-73.6875
1773080198.9966693,84.52465902506232,2.2955341381896317,-6.260125779849096,0.33054552142106947,-1.289538671185053,9.763030092533443,0.036674950653816846,-0.05569244451762214,-0.009817477042468103,-45.15937194821563,33.31581644268553,-72.875
1773080199.0103197,84.52465902506232,2.2955341381896317,-6.260125779849096,0.33054552142106947,-1.289538671185053,9.763030092533443,0.036674950653816846,-0.05569244451762214,-0.009817477042468103,-45.15937194821563,33.31581644268553,-72.875
1773080199.0288482,84.43966884521049,2.308928788532161,-6.199858187670059,0.42661625377305373,-1.2726562344293515,9.755326269318015,0.05769222624986625,0.02010871290056789,-0.02399827721492203,-45.15937194821563,33.31581644268553,-72.875
1773080199.047416,84.41513878906129,2.3119320010252826,-6.155819993218226,0.38193165547381636,-0.930920665372063,9.87396859419631,-0.0055075155614600114,0.002782885159975955,0.013089969389957472,-45.15937194821563,33.31581644268553,-72.875
1773080199.0706084,84.41513878906129,2.3119320010252826,-6.155819993218226,0.38193165547381636,-0.930920665372063,9.87396859419631,-0.0055075155614600114,0.002782885159975955,0.013089969389957472,-45.15937194821563,33.31581644268553,-72.875
1773080199.1216094,84.48143356531382,2.2897383299700875,-6.2045413386114205,0.2574135397662955,-0.798630396962173,9.928529931750536,0.0073123553897483685,0.016181967884194525,-0.018544123302439753,-43.038025551112526,34.86824863556794,-72.875
1773080199.1576183,84.46614986388788,2.2830823671889657,-6.208762038474949,0.2574135397662955,-0.798630396962173,9.928529931750536,0.0073123553897483685,0.016181967884194525,-0.018544123302439753,-43.038025551112526,34.86824863556794,-72.875
1773080199.1948056,84.44128770284898,2.2898824808616247,-6.170574774195641,0.21118925768015404,-0.8564007710373872,9.912296127465122,0.01794311664361396,0.0013040604422501292,0.002181661564992912,-44.46304046654401,34.39991916735373,-72.875
1773080199.2409194,84.47654850073344,2.27806423999144,-6.187298834105507,0.2432260716225253,-1.0537854394813635,9.901492712056656,-0.014182186151950407,-0.009253882363500587,0.022907446432425576,-44.46304046654401,34.39991916735373,-72.875
1773080199.2544794,84.47654850073344,2.27806423999144,-6.187298834105507,0.2432260716225253,-1.0537854394813635,9.901492712056656,-0.014182186151950407,-0.009253882363500587,0.022907446432425576,-44.46304046654401,34.39991916735373,-72.875
1773080199.292145,84.45688672173966,2.280749014671226,-6.193319656561493,0.2550125452730835,-1.1882759601736217,9.89430315978438,-0.0016883303113045603,0.008630979521621474,-0.011999138607461015,-43.930328749156274,34.18026153339167,-73.75
1773080199.325243,84.45151878982443,2.280782172438058,-6.168447650463876,0.2723899799774215,-1.2746446705627528,9.88951859305974,0.0010654274694254452,0.007239536941633496,0.004363323129985824,-43.930328749156274,34.18026153339167,-73.75
1773080199.3388124,84.45151878982443,2.280782172438058,-6.168447650463876,0.2723899799774215,-1.2746446705627528,9.88951859305974,0.0010654274694254452,0.007239536941633496,0.004363323129985824,-43.930328749156274,34.18026153339167,-73.75
1773080199.3687408,84.46323087035186,2.2812603079526856,-6.16780306184727,0.2580675319233814,-1.1997844591892652,9.893024740766245,-0.004870049029957921,-0.00963815223255502,0.006544984694978736,-44.700542952449254,34.32186425598469,-73.0
1773080199.394675,84.46696151492864,2.2795419707680784,-6.177711848300714,0.25806977088907485,-1.1468325959895513,9.895358042898687,-0.005877221740891468,-0.003079772891292538,0.002181661564992912,-44.700542952449254,34.32186425598469,-73.0
1773080199.4207792,84.45729216009,2.2789800841876326,-6.177794588643458,0.28195869966509907,-1.2164194116184681,9.843389042086025,0.0027974488495989295,0.008956994632184006,-0.01090830782496456,-44.144979755421126,34.8333933696311,-74.5
1773080199.4358032,84.45801336329752,2.2614261278003456,-6.189234183801957,0.30739018306215277,-1.2595954313098363,9.808804252576975,0.006217800541076975,0.0020434728011130424,-0.004363323129985824,-44.144979755421126,34.8333933696311,-74.5
1773080199.467016,84.45801336329752,2.2614261278003456,-6.189234183801957,0.30739018306215277,-1.2595954313098363,9.808804252576975,0.006217800541076975,0.0020434728011130424,-0.004363323129985824,-44.144979755421126,34.8333933696311,-74.5
1773080199.5147762,84.45898040472318,2.2380212073004717,-6.204487022383447,0.30538119669914277,-1.262860814420424,9.795823796618073,-0.006232364230699949,-0.005492951871837037,0.009817477042468103,-42.90476720801485,33.662056916148984,-74.875
1773080199.5394711,84.45898040472318,2.2380212073004717,-6.204487022383447,0.3040442387164078,-1.265033890403801,9.787185448178619,0.0013768788903650029,-0.0006957212899939887,-0.002181661564992912,-42.90476720801485,33.662056916148984,-74.875
1773080199.5645952,84.45659771066865,2.1438859714531358,-6.291009141590285,0.3031545081136968,-1.2664800481958887,9.781436723788836,0.005522079251082985,0.0006665939107480393,-0.001090830782496456,-43.69115738735196,34.65359762930309,-73.6875
1773080199.59386,84.45288607495465,2.1009073489620875,-6.302494859803705,0.2995184947834514,-1.2367526264089201,9.790991458754172,0.000340578800185507,-0.0010363000901794958,0.003272492347489368,-43.69115738735196,34.65359762930309,-73.6875
1773080199.6183388,84.45288607495465,2.1009073489620875,-6.302494859803705,0.2995184947834514,-1.2367526264089201,9.790991458754172,0.000340578800185507,-0.0010363000901794958,0.003272492347489368,-43.69115738735196,34.65359762930309,-73.6875
1773080199.6368704,84.45422124751589,2.059678041220835,-6.35437568483457,0.2970987685291033,-1.2169693592867523,9.79735002814022,-0.003123463960161462,-0.004471215471280515,0.004363323129985824,-43.32039655834904,33.52546082125317,-72.875
1773080199.6553895,84.44942222802702,2.022001630801565,-6.412425665634374,0.298353732848174,-1.276805950632552,9.781510914792845,0.0034494790707239945,-1.4563689622974561e-05,-0.00545415391248228,-43.32039655834904,33.52546082125317,-72.875
1773080199.7018497,84.448233004758,1.9631773015995724,-6.450286604473063,0.2991888975836456,-1.3166265337546597,9.770970161794656,0.0020726001803589916,0.000681157600371014,-0.003272492347489368,-44.144979755421126,34.8333933696311,-73.25
1773080199.7182398,84.44343907308308,1.9395094818871645,-6.465849967407999,0.2947906060917998,-1.2637687736063814,9.780680966958885,-0.0020726001803589916,-0.000681157600371014,0.001090830782496456,-44.144979755421126,34.8333933696311,-73.25
1773080199.7362027,84.4445055756165,1.9161062528336565,-6.481098066047962,0.29186359223611164,-1.2285925246875717,9.787143399318877,-0.003464042760346969,-0.0034349153811010194,0.002181661564992912,-44.144979755421126,34.8333933696311,-73.25
1773080199.767869,84.4445055756165,1.9161062528336565,-6.481098066047962,0.29186359223611164,-1.2285925246875717,9.787143399318877,-0.003464042760346969,-0.0034349153811010194,0.002181661564992912,-44.144979755421126,34.8333933696311,-73.25
1773080199.8077972,84.44063799397135,1.8608669157062987,-6.550570083846677,0.2898263759911097,-1.2263392794660843,9.784753852449713,-0.0010363000901794958,-0.000340578800185507,0.001090830782496456,-43.5740750202984,34.29734390044522,-73.25
1773080199.8265944,84.4422817608983,1.825763303437573,-6.573440685132342,0.2884706313372574,-1.2248397699415825,9.783163635701273,0.0017320213801734845,0.0017174576905505097,-0.002181661564992912,-43.5740750202984,34.29734390044522,-73.25
1773080199.8584301,84.443385364002,1.8023615173927123,-6.5886878984298525,0.29287976759239426,-1.2185751545364945,9.79214069934103,-0.0010363000901794958,-0.000340578800185507,0.002181661564992912,-44.04741111620983,34.53651526224954,-74.5
1773080199.9148245,84.443385364002,1.8023615173927123,-6.5886878984298525,0.29287976759239426,-1.2185751545364945,9.79214069934103,-0.0010363000901794958,-0.000340578800185507,0.002181661564992912,-44.04741111620983,34.53651526224954,-74.5
1773080199.973491,84.43997892049217,1.7453482144015207,-6.642634410803647,0.2958139985169087,-1.214406122964748,9.798114834912916,-1.4563689622974668e-05,-0.0034494790707239945,0.0,-44.04741111620983,34.53651526224954,-74.5
1773080200.0547023,84.44006952496265,1.616088170698505,-6.751979241416873,0.2989174315652128,-1.2450206582135508,9.78802261442976,-0.0010363000901794958,-0.000340578800185507,0.0,-43.37309667622907,35.08707183158047,-74.1875
1773080200.141116,84.44006952496265,1.616088170698505,-6.751979241416873,0.2989174315652128,-1.2450206582135508,9.78802261442976,-0.0010363000901794958,-0.000340578800185507,0.0,-43.37309667622907,35.08707183158047,-74.1875
1773080200.1885908,84.43654790375533,1.5669556616349143,-6.792441501324516,0.29974267522476494,-1.2531614657357295,9.78533896028453,-0.0024131789805444987,0.0003551424898084817,-0.002181661564992912,-43.27552803701777,34.79019372419891,-73.6875
1773080200.2891057,84.43365364593666,1.504078881084892,-6.8501869955700405,0.2950486513882738,-1.2558324949888826,9.783471651315287,-0.00171745769055051,0.0017320213801734845,0.0,-44.34595809949045,34.04366543849586,-74.5
1773080200.3457432,84.43576295540373,1.4631304204449649,-6.876865819983586,0.29403481646010626,-1.250822954180153,9.792345680291396,0.0013768788903650029,-0.0006957212899939887,0.001090830782496456,-44.34595809949045,34.04366543849586,-74.5
1773080200.404571,84.43576295540373,1.4631304204449649,-6.876865819983586,0.29403481646010626,-1.250822954180153,9.792345680291396,0.0013768788903650029,-0.0006957212899939887,0.001090830782496456,-44.34595809949045,34.04366543849586,-74.5
1773080200.446984,84.43728294241883,1.4318432895199273,-6.905585050306971,0.2943598696215621,-1.261245127861424,9.801596359152917,-0.0024131789805444987,0.0003551424898084817,-0.001090830782496456,-44.583460585395706,33.96561052712682,-73.75
1773080200.4950814,84.43265554782003,1.4081392426422166,-6.921132995430948,0.2935764398885561,-1.2544250008937585,9.807752582598406,-0.0006957212899939887,-0.0013768788903650029,0.001090830782496456,-44.583460585395706,33.96561052712682,-73.75
1773080200.56091,84.43265554782003,1.4081392426422166,-6.921132995430948,0.2935764398885561,-1.2544250008937585,9.807752582598406,-0.0006957212899939887,-0.0013768788903650029,0.001090830782496456,-44.583460585395706,33.96561052712682,-73.75
1773080200.6049693,84.43513106972462,1.3593039857150981,-6.961285069086914,0.2930550761527242,-1.2498862825825874,9.808504368824536,-0.000340578800185507,0.0010363000901794958,-0.002181661564992912,-44.46304046654401,34.39991916735373,-73.6875
1773080200.645043,84.4360641529477,1.3417562333522806,-6.972718827708171,0.2927081144105426,-1.2468658162473085,9.809004674160024,-0.0013768788903650029,0.0006957212899939887,0.0,-44.46304046654401,34.39991916735373,-73.6875
1773080200.6755135,84.43084929056027,1.327706192368321,-6.99030412614888,0.29561044402094944,-1.2543893977954295,9.795957174942735,0.0010363000901794958,0.000340578800185507,0.001090830782496456,-45.11617230278344,34.18526816108888,-72.5
1773080200.750754,84.43147605592792,1.3160073693315828,-6.997926315564304,0.2975419119555291,-1.2593962572717912,9.787274209963748,0.000340578800185507,-0.0010363000901794958,0.0,-45.11617230278344,34.18526816108888,-72.5
1773080200.7902975,84.43211898724009,1.302269554432697,-7.0152104464777665,0.2988272822900813,-1.2627282663230248,9.781495793765306,-0.0003551424898084818,-0.0024131789805444987,0.002181661564992912,-43.43747892540259,33.88171455011104,-74.0625
1773080200.8311915,84.43274997169148,1.2905711527150678,-7.022832654004922,0.29654945311518627,-1.2554120129722117,9.777650322334381,0.0013768788903650029,-0.0006957212899939887,-0.002181661564992912,-43.43747892540259,33.88171455011104,-74.0625
1773080200.85545,84.43338250618646,1.2788729037053312,-7.030454910741144,0.29654945311518627,-1.2554120129722117,9.777650322334381,-0.0024131789805444987,0.0003551424898084817,-0.002181661564992912,-43.43747892540259,33.88171455011104,-74.0625
1773080200.8860285,84.43401659069902,1.2671748079579146,-7.038077217091645,0.29816681201832484,-1.2600767962485797,9.77509120405383,0.000681157600371014,-0.0020726001803589916,0.0,-43.79373265426046,33.764632183057486,-75.25
1773080200.943394,84.43465222520318,1.2554768660272269,-7.045699573461605,0.30137662609441984,-1.2589588584341453,9.780078362839987,0.0024131789805444987,-0.0003551424898084817,0.002181661564992912,-43.79373265426046,33.764632183057486,-75.25
1773080200.9609284,84.42912014477642,1.249309410589072,-7.0498095345263385,0.30033483212161205,-1.2592592928981605,9.78339726130196,0.0010363000901794958,0.000340578800185507,-0.001090830782496456,-43.79373265426046,33.764632183057486,-74.1875
1773080201.0171864,84.42912014477642,1.249309410589072,-7.0498095345263385,0.30033483212161205,-1.2592592928981605,9.78339726130196,0.0010363000901794958,0.000340578800185507,-0.001090830782496456,-43.79373265426046,33.764632183057486,-74.1875
1773080201.0497086,84.42977938444608,1.235571899723722,-7.067093197517733,0.2996415298703097,-1.2594592286778896,9.78560595115388,-0.000681157600371014,0.0020726001803589916,0.0,-43.79373265426046,33.764632183057486,-74.1875
1773080201.0809739,84.43042011589256,1.2238736887857415,-7.074715259255077,0.2960022555822851,-1.2606366932972075,9.787075809577649,0.0010508637798024704,0.0037900578709095015,0.0,-42.92094318405898,34.51199490671007,-73.6875
1773080201.103391,84.42693019986704,1.2177266209352124,-7.0782051752805994,0.29358035919696235,-1.261420282848222,9.781363760524634,0.0,0.0,0.0,-42.92094318405898,34.51199490671007,-73.6875
1773080201.1283882,84.42693019986704,1.2177266209352124,-7.0782051752805994,0.29358035919696235,-1.261420282848222,9.781363760524634,0.0,0.0,0.0,-42.92094318405898,34.51199490671007,-73.6875
1773080201.1447692,84.42725152127777,1.211877784189127,-7.082015851011436,0.29196861420688536,-1.2619417529411534,9.774217343980302,0.000681157600371014,-0.0020726001803589916,-0.001090830782496456,-42.92094318405898,34.51199490671007,-73.6875
1773080201.165359,84.42727531769582,1.2098388091287269,-7.0916766071547475,0.29089601592036024,-1.2622887854627964,9.769461483600752,0.0010217364005565212,-0.0031089002705384874,0.0,-42.92094318405898,34.51199490671007,-73.6875
1773080201.1983721,84.42727531769582,1.2098388091287269,-7.0916766071547475,0.29336010312686217,-1.2614753221380053,9.772986735059241,-0.000340578800185507,0.0010363000901794958,0.0,-44.262062122474674,35.18964709848897,-73.6875
1773080201.2270873,84.42727531769582,1.2098388091287269,-7.0916766071547475,0.29336010312686217,-1.2614753221380053,9.772986735059241,-0.000340578800185507,0.0010363000901794958,0.0,-44.262062122474674,35.18964709848897,-73.6875
1773080201.2470562,84.42727531769582,1.2098388091287269,-7.0916766071547475,0.29395551604579423,-1.2577560819978613,9.775332750525228,-0.0017320213801734845,-0.0017174576905505097,0.001090830782496456,-44.262062122474674,35.18964709848897,-73.6875
1773080201.2618306,-31.902203220578492,4.184639991284751,3.703255563617878,0.29752964607662175,-1.2542365596398926,9.776893997611133,0.000340578800185507,-0.0010363000901794958,0.001090830782496456,-44.262062122474674,35.18964709848897,-73.6875
1773080201.2960072,-31.902203220578492,4.184639991284751,3.703255563617878,0.29752964607662175,-1.2542365596398926,9.776893997611133,0.000340578800185507,-0.0010363000901794958,0.001090830782496456,-44.262062122474674,35.18964709848897,-73.6875
1773080201.314692,84.42727531769582,1.2098388091287269,-7.0916766071547475,0.30095259927782636,-1.2550722462107817,9.77458787839921,0.0013768788903650029,-0.0006957212899939887,-0.002181661564992912,-43.43747892540259,33.88171455011104,-72.875
1773080201.331808,84.42727531769582,1.2098388091287269,-7.0916766071547475,0.3032305363963354,-1.2556283862884778,9.776398293532033,0.0006957212899939887,0.0013768788903650029,-0.001090830782496456,-43.43747892540259,33.88171455011104,-72.875
1773080201.3514016,84.42727531769582,1.2098388091287269,-7.0916766071547475,0.3047464781024782,-1.2559984912976927,9.780948216286586,0.0,0.0,0.001090830782496456,-43.43747892540259,33.88171455011104,-72.875
1773080201.366125,84.42727531769582,1.2098388091287269,-7.0916766071547475,0.3047464781024782,-1.2559984912976927,9.780948216286586,0.0,0.0,0.001090830782496456,-43.43747892540259,33.88171455011104,-72.875
1773080201.4133449,84.42727531769582,1.2098388091287269,-7.0916766071547475,0.30431184374973586,-1.2571037453604887,9.779300964416583,-0.0006957212899939887,-0.0013768788903650029,0.001090830782496456,-44.329782123446336,33.19372744793477,-73.25
1773080201.4501,84.42727531769582,1.2098388091287269,-7.0916766071547475,0.30431184374973586,-1.2571037453604887,9.779300964416583,-0.0006957212899939887,-0.0013768788903650029,0.001090830782496456,-44.329782123446336,33.19372744793477,-73.25
1773080201.4903123,84.42727531769582,1.2098388091287269,-7.0916766071547475,0.3075995558603106,-1.2527580273034615,9.776189687920656,-0.0006957212899939887,-0.0013768788903650029,0.001090830782496456,-44.44686449049989,33.54998117679264,-73.25
1773080201.5048704,84.42727531769582,1.2098388091287269,-7.0916766071547475,0.3075995558603106,-1.2527580273034615,9.776189687920656,-0.0006957212899939887,-0.0013768788903650029,0.001090830782496456,-44.44686449049989,33.54998117679264,-73.25
1773080201.5203674,84.42727531769582,1.2098388091287269,-7.0916766071547475,0.3097874915437475,-1.2498660004813615,9.774119168167852,-0.0010363000901794958,-0.000340578800185507,-0.001090830782496456,-44.44686449049989,33.54998117679264,-73.25
1773080201.5447352,84.42727531769582,1.2098388091287269,-7.0916766071547475,0.3080656489157554,-1.2489857985286477,9.779431483816222,1.4563689622974668e-05,0.0034494790707239945,-0.001090830782496456,-44.44686449049989,33.54998117679264,-73.25
1773080201.5802956,84.42727531769582,1.2098388091287269,-7.0916766071547475,0.3037418924965926,-1.249444443552954,9.782966770537756,0.0,0.0,0.001090830782496456,-44.46304046654401,34.39991916735373,-72.875
1773080201.5999982,84.42727531769582,1.2098388091287269,-7.0916766071547475,0.3008644808991637,-1.249749666693229,9.785319464359198,0.000681157600371014,-0.0020726001803589916,0.001090830782496456,-44.46304046654401,34.39991916735373,-72.875
1773080201.6233006,84.42727531769582,1.2098388091287269,-7.0916766071547475,0.3008644808991637,-1.249749666693229,9.785319464359198,0.000681157600371014,-0.0020726001803589916,0.001090830782496456,-44.46304046654401,34.39991916735373,-72.875
1773080201.644813,84.42727531769582,1.2098388091287269,-7.0916766071547475,0.2989495956238684,-1.2499527892835165,9.783540044108735,-0.000340578800185507,0.0010363000901794958,-0.001090830782496456,-44.46304046654401,34.39991916735373,-72.875
1773080201.6666894,84.42727531769582,1.2098388091287269,-7.0916766071547475,0.2989495956238684,-1.2499527892835165,9.783540044108735,-0.000340578800185507,0.0010363000901794958,-0.001090830782496456,-44.46304046654401,34.39991916735373,-72.875
1773080201.702117,84.42727531769582,1.2098388091287269,-7.0916766071547475,0.2976752608638295,-1.2500879650983248,9.77901074810216,-0.00171745769055051,0.0017320213801734845,-0.002181661564992912,-43.27552803701777,34.79019372419891,-73.0
1773080201.7193546,84.42727531769582,1.2098388091287269,-7.0916766071547475,0.300005094700752,-1.2491335135017294,9.775996552205335,0.000681157600371014,-0.0020726001803589916,0.003272492347489368,-43.27552803701777,34.79019372419891,-73.0
1773080201.735931,84.42727531769582,1.2098388091287269,-7.0916766071547475,0.300005094700752,-1.2491335135017294,9.775996552205335,0.000681157600371014,-0.0020726001803589916,0.003272492347489368,-43.27552803701777,34.79019372419891,-73.0
1773080201.7547617,84.42727531769582,1.2098388091287269,-7.0916766071547475,0.302599982684612,-1.2516762260105945,9.773990638506772,-0.0013768788903650029,0.0006957212899939887,-0.002181661564992912,-43.27552803701777,34.79019372419891,-73.0
1773080201.8202615,84.42727531769582,1.2098388091287269,-7.0916766071547475,0.3011489622665964,-1.2544127823726219,9.772655725347903,-0.000340578800185507,0.0010363000901794958,0.002181661564992912,-44.20936200459464,33.62803608816168,-74.0625
1773080201.8526363,84.42727531769582,1.2098388091287269,-7.0916766071547475,0.3001833243873671,-1.2562339300622134,9.771767355552633,0.000681157600371014,-0.0020726001803589916,0.001090830782496456,-44.20936200459464,33.62803608816168,-74.0625
1773080201.8950498,84.42727531769582,1.2098388091287269,-7.0916766071547475,0.299540703165622,-1.257445883506084,9.77452126708494,-1.4563689622974668e-05,-0.0034494790707239945,0.001090830782496456,-44.46304046654401,34.39991916735373,-74.1875
1773080201.932276,84.42727531769582,1.2098388091287269,-7.0916766071547475,0.29911304592109994,-1.2582524249845728,9.773008852739165,0.0003551424898084818,0.0024131789805444987,-0.001090830782496456,-44.46304046654401,34.39991916735373,-74.1875
1773080201.946357,84.42727531769582,1.2098388091287269,-7.0916766071547475,0.29911304592109994,-1.2582524249845728,9.773008852739165,0.0003551424898084818,0.0024131789805444987,-0.001090830782496456,-44.46304046654401,34.39991916735373,-74.1875
1773080201.9759529,84.42727531769582,1.2098388091287269,-7.0916766071547475,0.29565055541763857,-1.2598335789201858,9.775347469594147,0.000340578800185507,-0.0010363000901794958,0.001090830782496456,-44.46304046654401,34.39991916735373,-74.1875
1773080201.99903,84.42727531769582,1.2098388091287269,-7.0916766071547475,0.29125748748346364,-1.2545300404327369,9.773558681279756,0.000681157600371014,-0.0020726001803589916,0.002181661564992912,-43.69115738735196,34.65359762930309,-73.6875
1773080202.0172076,84.42727531769582,1.2098388091287269,-7.0916766071547475,0.29125748748346364,-1.2545300404327369,9.773558681279756,0.000681157600371014,-0.0020726001803589916,0.002181661564992912,-43.69115738735196,34.65359762930309,-73.6875
1773080202.0343552,84.42727531769582,1.2098388091287269,-7.0916766071547475,0.2883339498470544,-1.2510005948137461,9.779058486053241,0.0013768788903650029,-0.0006957212899939887,0.0,-43.69115738735196,34.65359762930309,-73.6875
1773080202.0526068,84.42727531769582,1.2098388091287269,-7.0916766071547475,0.2863883682080794,-1.2486517881807988,9.776028321278513,-0.0006957212899939887,-0.0013768788903650029,0.0,-43.69115738735196,34.65359762930309,-73.6875
1773080202.1057758,84.42727531769582,1.2098388091287269,-7.0916766071547475,0.2914047235194009,-1.2555779421665534,9.780702003884729,-0.0006957212899939887,-0.0013768788903650029,-0.002181661564992912,-42.80719856880356,33.365178808767425,-74.0625
1773080202.1253657,84.42727531769582,1.2098388091287269,-7.0916766071547475,0.28947634337557376,-1.254875851096248,9.78046717574339,0.0010363000901794958,0.000340578800185507,-0.004363323129985824,-42.80719856880356,33.365178808767425,-74.0625
1773080202.1568162,84.42727531769582,1.2098388091287269,-7.0916766071547475,0.28947634337557376,-1.254875851096248,9.78046717574339,0.0010363000901794958,0.000340578800185507,-0.004363323129985824,-42.80719856880356,33.365178808767425,-74.0625
1773080202.197115,84.42727531769582,1.2098388091287269,-7.0916766071547475,0.2913709173157509,-1.2533642077404938,9.780310900238531,0.0020726001803589916,0.000681157600371014,0.0,-42.92094318405898,34.51199490671007,-73.25
1773080202.2207663,84.42727531769582,1.2098388091287269,-7.0916766071547475,0.2894538457246847,-1.2534026355647394,9.77686178892844,0.0,0.0,-0.002181661564992912,-42.92094318405898,34.51199490671007,-73.25
1773080202.2462745,84.42727531769582,1.2098388091287269,-7.0916766071547475,0.2894538457246847,-1.2534026355647394,9.77686178892844,0.0,0.0,-0.002181661564992912,-42.92094318405898,34.51199490671007,-73.25
1773080202.3014662,84.42727531769582,1.2098388091287269,-7.0916766071547475,0.2873290321829372,-1.2534452275898453,9.779729140806705,-0.0010363000901794958,-0.000340578800185507,0.001090830782496456,-43.79373265426046,33.764632183057486,-73.25
1773080202.3208728,84.42727531769582,1.2098388091287269,-7.0916766071547475,0.2873290321829372,-1.2534452275898453,9.779729140806705,-0.0010363000901794958,-0.000340578800185507,0.001090830782496456,-43.79373265426046,33.764632183057486,-73.25
1773080202.3467188,84.42727531769582,1.2098388091287269,-7.0916766071547475,0.2846305365264736,-1.2576788523452456,9.783164857939877,0.0,0.0,0.0,-43.930328749156274,34.18026153339167,-73.6875
1773080202.3653796,84.42727531769582,1.2098388091287269,-7.0916766071547475,0.288146086988884,-1.255229573760126,9.782106177605208,0.0013768788903650029,-0.0006957212899939887,0.0,-43.930328749156274,34.18026153339167,-73.6875
1773080202.4031105,84.42727531769582,1.2098388091287269,-7.0916766071547475,0.2904856465503463,-1.2535996062219634,9.7780565259614,0.0013768788903650029,-0.0006957212899939887,0.0,-43.79373265426046,33.764632183057486,-73.25
1773080202.4162493,84.42727531769582,1.2098388091287269,-7.0916766071547475,0.2920425973039068,-1.2525148810332467,9.77536152803002,0.0,0.0,0.0,-43.79373265426046,33.764632183057486,-73.25
1773080202.4329374,84.42727531769582,1.2098388091287269,-7.0916766071547475,0.29625662002259817,-1.2507485989459928,9.773568037011787,0.000340578800185507,-0.0010363000901794958,-0.001090830782496456,-43.79373265426046,33.764632183057486,-73.25
1773080202.4519908,84.42727531769582,1.2098388091287269,-7.0916766071547475,0.29625662002259817,-1.2507485989459928,9.773568037011787,0.000340578800185507,-0.0010363000901794958,-0.001090830782496456,-43.79373265426046,33.764632183057486,-73.25
1773080202.4685476,84.42727531769582,1.2098388091287269,-7.0916766071547475,0.29625662002259817,-1.2507485989459928,9.773568037011787,0.0013768788903650029,-0.0006957212899939887,0.001090830782496456,-43.87762863127624,32.618650523064375,-73.6875
1773080202.4984417,84.42727531769582,1.2098388091287269,-7.0916766071547475,0.29906100506816913,-1.249573157947589,9.772374488773758,0.002058036490736017,-0.0027683214703529803,0.0,-43.87762863127624,32.618650523064375,-73.6875
1773080202.531097,84.42727531769582,1.2098388091287269,-7.0916766071547475,0.29906100506816913,-1.249573157947589,9.772374488773758,0.002058036490736017,-0.0027683214703529803,0.0,-43.87762863127624,32.618650523064375,-73.6875
1773080202.545208,84.42727531769582,1.2098388091287269,-7.0916766071547475,0.30092729198896295,-1.2487909150936873,9.778270419168798,0.0010363000901794958,0.000340578800185507,0.001090830782496456,-44.34595809949045,34.04366543849586,-73.25
1773080202.5654457,84.42727531769582,1.2098388091287269,-7.0916766071547475,0.3021692850869604,-1.2482703412126412,9.782194094984838,-0.0003551424898084818,-0.0024131789805444987,0.002181661564992912,-44.34595809949045,34.04366543849586,-73.25
1773080202.5988371,84.42727531769582,1.2098388091287269,-7.0916766071547475,0.3029958176197057,-1.2479239051099962,9.781460145702763,0.0010363000901794958,0.000340578800185507,-0.001090830782496456,-44.34595809949045,34.04366543849586,-73.25
1773080202.6368444,84.42727531769582,1.2098388091287269,-7.0916766071547475,0.3035458657872743,-1.247693355753631,9.774281487239653,0.0,0.0,0.0,-43.5740750202984,34.29734390044522,-72.875
1773080202.6591578,84.42727531769582,1.2098388091287269,-7.0916766071547475,0.3035458657872743,-1.247693355753631,9.774281487239653,0.0,0.0,0.0,-43.5740750202984,34.29734390044522,-72.875
1773080202.6921659,84.42727531769582,1.2098388091287269,-7.0916766071547475,0.3060007358810253,-1.2538957065013274,9.769504170223323,0.0013768788903650029,-0.0006957212899939887,-0.002181661564992912,-43.5740750202984,34.29734390044522,-72.875
1773080202.7134542,84.42727531769582,1.2098388091287269,-7.0916766071547475,0.3044565351212445,-1.2590677112304596,9.769670030822402,0.000340578800185507,-0.0010363000901794958,0.0,-43.78872602656325,34.95047573668465,-72.875
1773080202.7296023,84.42727531769582,1.2098388091287269,-7.0916766071547475,0.3023844771741257,-1.259331733218142,9.769780409198306,-0.0010217364005565212,0.0031089002705384874,-0.001090830782496456,-43.78872602656325,34.95047573668465,-72.875
1773080202.7449234,84.42727531769582,1.2098388091287269,-7.0916766071547475,0.3023844771741257,-1.259331733218142,9.769780409198306,-0.0010217364005565212,0.0031089002705384874,-0.001090830782496456,-43.78872602656325,34.95047573668465,-72.875
1773080202.762767,84.42727531769582,1.2098388091287269,-7.0916766071547475,0.301005545756722,-1.2595074369016257,9.769853864774463,0.0003551424898084818,0.0024131789805444987,-0.001090830782496456,-43.78872602656325,34.95047573668465,-72.875
1773080202.8071995,84.42727531769582,1.2098388091287269,-7.0916766071547475,0.3022213620952522,-1.2554020667644317,9.766557636932523,-0.000681157600371014,0.0020726001803589916,-0.002181661564992912,-43.930328749156274,34.18026153339167,-73.6875
1773080202.8400009,84.42727531769582,1.2098388091287269,-7.0916766071547475,0.30407488387832293,-1.255847878182595,9.76436403412499,0.0,0.0,-0.002181661564992912,-43.930328749156274,34.18026153339167,-73.6875
1773080202.8634315,84.42727531769582,1.2098388091287269,-7.0916766071547475,0.30407488387832293,-1.255847878182595,9.76436403412499,0.0,0.0,-0.002181661564992912,-43.930328749156274,34.18026153339167,-73.6875
1773080202.8807616,84.42727531769582,1.2098388091287269,-7.0916766071547475,0.30530838191976156,-1.2561445607013426,9.762904215960726,-0.000681157600371014,0.0020726001803589916,-0.001090830782496456,-43.5740750202984,34.29734390044522,-73.0
1773080202.8950043,84.42727531769582,1.2098388091287269,-7.0916766071547475,0.30530838191976156,-1.2561445607013426,9.762904215960726,-0.000681157600371014,0.0020726001803589916,-0.001090830782496456,-43.5740750202984,34.29734390044522,-73.0
1773080202.920566,84.42727531769582,1.2098388091287269,-7.0916766071547475,0.3029513717027866,-1.2573864091947455,9.765277834986964,0.0010363000901794958,0.000340578800185507,0.0,-43.5740750202984,34.29734390044522,-73.0
1773080202.9424403,84.42727531769582,1.2098388091287269,-7.0916766071547475,0.29820491834844265,-1.259257255086086,9.770202563641183,-0.000340578800185507,0.0010363000901794958,0.0,-43.5740750202984,34.29734390044522,-73.0
1773080202.9590812,84.42727531769582,1.2098388091287269,-7.0916766071547475,0.2950462066624848,-1.2605022821280552,9.773479915547743,-0.00171745769055051,0.0017320213801734845,0.0,-43.15844566996422,34.433939995341035,-73.75
1773080202.9880295,84.42727531769582,1.2098388091287269,-7.0916766071547475,0.29294411932060144,-1.2613308337166222,9.775660956631137,0.0,0.0,0.0,-43.15844566996422,34.433939995341035,-73.75
1773080203.0036223,84.42727531769582,1.2098388091287269,-7.0916766071547475,0.29294411932060144,-1.2613308337166222,9.775660956631137,0.0,0.0,0.0,-43.15844566996422,34.433939995341035,-73.75
1773080203.0191584,84.42727531769582,1.2098388091287269,-7.0916766071547475,0.3010788718298614,-1.258748996769274,9.777112415108311,-0.00171745769055051,0.0017320213801734845,-0.001090830782496456,-43.15844566996422,34.433939995341035,-73.75
1773080203.037721,84.42727531769582,1.2098388091287269,-7.0916766071547475,0.3010788718298614,-1.258748996769274,9.777112415108311,-0.00171745769055051,0.0017320213801734845,-0.001090830782496456,-43.15844566996422,34.433939995341035,-73.75
1773080203.065838,84.42727531769582,1.2098388091287269,-7.0916766071547475,0.30753686834497157,-1.2602087025062982,9.774733232803698,0.000681157600371014,-0.0020726001803589916,-0.002181661564992912,-43.69115738735196,34.65359762930309,-73.25
1773080203.101914,84.42727531769582,1.2098388091287269,-7.0916766071547475,0.30547881411627675,-1.2632689395509815,9.773149913557186,-0.0003551424898084818,-0.0024131789805444987,-0.003272492347489368,-43.69115738735196,34.65359762930309,-73.25
1773080203.1437194,84.42727531769582,1.2098388091287269,-7.0916766071547475,0.3020203828343777,-1.2589497143501776,9.772096232285467,-0.0010363000901794958,-0.000340578800185507,0.002181661564992912,-43.930328749156274,34.18026153339167,-73.75
1773080203.1574256,84.42727531769582,1.2098388091287269,-7.0916766071547475,0.3020203828343777,-1.2589497143501776,9.772096232285467,-0.0010363000901794958,-0.000340578800185507,0.002181661564992912,-43.930328749156274,34.18026153339167,-73.75
1773080203.1876042,84.42727531769582,1.2098388091287269,-7.0916766071547475,0.29971883544948263,-1.2560753182279494,9.771395019169528,0.0003551424898084818,0.0024131789805444987,0.0,-43.930328749156274,34.18026153339167,-73.75
1773080203.2231064,84.42727531769582,1.2098388091287269,-7.0916766071547475,0.29818718137480393,-1.2541624397177153,9.770928369673936,-0.0024131789805444987,0.0003551424898084817,-0.001090830782496456,-43.49017904328262,35.44332556043833,-73.0
1773080203.2455227,84.42727531769582,1.2098388091287269,-7.0916766071547475,0.29716788269780225,-1.2528894404374074,9.770617819647436,-0.000340578800185507,0.0010363000901794958,0.0,-43.49017904328262,35.44332556043833,-73.0
1773080203.2642019,84.42727531769582,1.2098388091287269,-7.0916766071547475,0.29716788269780225,-1.2528894404374074,9.770617819647436,-0.000340578800185507,0.0010363000901794958,0.0,-43.49017904328262,35.44332556043833,-73.0
1773080203.3009608,84.42727531769582,1.2098388091287269,-7.0916766071547475,0.29648955081456996,-1.2520422736366963,9.770411152073871,-0.0010363000901794958,-0.000340578800185507,0.0,-43.79373265426046,33.764632183057486,-74.875
1773080203.3225236,84.42727531769582,1.2098388091287269,-7.0916766071547475,0.3002604274995562,-1.2536119733874351,9.78030895223425,-0.0010363000901794958,-0.000340578800185507,0.0,-43.79373265426046,33.764632183057486,-74.875
1773080203.3356652,84.42727531769582,1.2098388091287269,-7.0916766071547475,0.3002604274995562,-1.2536119733874351,9.78030895223425,-0.0010363000901794958,-0.000340578800185507,0.0,-43.79373265426046,33.764632183057486,-74.875
1773080203.353033,84.42727531769582,1.2098388091287269,-7.0916766071547475,0.302769903809962,-1.2546565910368568,9.78689582767531,-0.000681157600371014,0.0020726001803589916,-0.003272492347489368,-43.15844566996422,34.433939995341035,-73.6875
