timestamp,yaw,pitch,roll,ax,ay,az,gx,gy,gz,mx,my,mz
1772315234.5483475,-0.10109352297390017,1.409245116059694,-8.20608546942438,-0.22574375622907933,-1.3930035322271945,9.760592122126262,-0.001090830782496456,0.002181661564992912,0.0,7.0625,-5.1875,-65.25
1772315234.8228166,154.48935837116375,1.4102985647225115,-8.207285847219168,-0.22811501441457668,-1.3969014366633037,9.754690990131593,0.0,-0.001090830782496456,0.0,8.1875,-4.5,-64.5
1772315235.196942,155.18388510459096,1.4077078590361383,-8.208296669669709,-0.22975482305264938,-1.4053389841314972,9.753220766692822,0.0,0.003272492347489368,0.0,7.5,-4.75,-64.0625
1772315235.24503,155.63085747385352,1.4108067140250178,-8.203939821478746,-0.2331819491876635,-1.4068981460064702,9.755488495963071,0.002181661564992912,0.0,0.002181661564992912,6.6875,-5.1875,-64.0625
1772315235.2601228,155.63085747385352,1.4108067140250178,-8.203939821478746,-0.23546266334700802,-1.404590639109966,9.756997644460226,-0.001090830782496456,0.001090830782496456,0.001090830782496456,6.6875,-5.1875,-64.0625
1772315235.281434,155.63085747385352,1.4108067140250178,-8.203939821478746,-0.23546266334700802,-1.404590639109966,9.756997644460226,-0.001090830782496456,0.001090830782496456,0.001090830782496456,6.6875,-5.1875,-64.0625
1772315235.2959387,155.71467494060622,1.4085533502735956,-8.208007074596134,-0.2369804531428053,-1.4030550190468836,9.75800196592679,-0.001090830782496456,-0.001090830782496456,-0.001090830782496456,6.6875,-5.1875,-64.0625
1772315235.3101912,155.71467494060622,1.4085533502735956,-8.208007074596134,-0.2369804531428053,-1.4030550190468836,9.75800196592679,-0.001090830782496456,-0.001090830782496456,-0.001090830782496456,6.6875,-5.1875,-64.0625
1772315235.331014,155.71467494060622,1.4085533502735956,-8.208007074596134,-0.23799052529708545,-1.4020330810489021,9.751980107229143,-0.002181661564992912,0.001090830782496456,-0.001090830782496456,6.6875,-4.0625,-63.6875
1772315235.343787,155.90920056951478,1.4087660041785663,-8.20277306945431,-0.2386627170325136,-1.401352992727041,9.747972627534429,0.0,0.002181661564992912,0.001090830782496456,6.6875,-4.0625,-63.6875
1772315235.3599057,0.2784378286389034,1.4087717099952888,-8.202806182476712,-0.2386627170325136,-1.401352992727041,9.747972627534429,0.0,0.002181661564992912,0.001090830782496456,6.6875,-4.0625,-63.6875
1772315235.4408538,0.2784378286389034,1.4087717099952888,-8.202806182476712,-0.36631836922840144,1.3719882523765687,9.745305694564077,0.0004500919521663354,-0.0009936443179714399,-0.001090830782496456,6.6875,-4.0625,-63.6875
1772315235.465231,0.2784378286389034,1.4087717099952888,-8.202806182476712,-0.36631836922840144,1.3719882523765687,9.745305694564077,0.0004500919521663354,-0.0009936443179714399,-0.001090830782496456,6.6875,-4.0625,-63.6875
1772315235.490996,0.5572669201538968,1.413610123863204,-8.20343518037944,-0.3699785166488586,1.3699996585125502,9.743530880463902,0.0024373805881092152,-9.3460413638769e-05,0.001090830782496456,-8.97222973874086,1.6307206275920327,-64.5
1772315235.523986,0.5572669201538968,1.413610123863204,-8.20343518037944,-0.37241430387064717,1.3686762715100949,9.749039984920847,-0.0005435523658051045,-0.0014437362701377754,0.0,-8.97222973874086,1.6307206275920327,-64.5
1772315235.5911899,0.5504404924068598,1.413102898481212,-8.203416149047916,-0.3682277314631278,1.363081647126761,9.752706232396214,0.0,0.0,0.0,-9.598477622066964,1.3470485658207458,-64.875
1772315235.6595147,0.5504404924068598,1.413102898481212,-8.203416149047916,-0.36544161429300187,1.3593584870957018,9.748455855721765,0.0009936443179714399,0.0004500919521663354,0.0,-9.598477622066964,1.3470485658207458,-64.875
1772315235.7210221,0.5572669201538968,1.413610123863204,-8.20343518037944,-0.3663479636679654,1.3629749304162126,9.745627277524738,0.0009936443179714399,0.0004500919521663354,0.0,-8.791711153977312,1.232199247293602,-64.5
1772315235.7656004,0.5646202499007581,1.4058480092330914,-8.208835618970943,-0.371378451032154,1.3670484757987156,9.743744890331904,-0.0004500919521663354,0.0009936443179714399,0.0,-8.791711153977312,1.232199247293602,-64.5
1772315235.792943,0.6440456513391272,1.4114874499484673,-8.207523407435664,-0.37472618417879566,1.369759374746288,9.745837294390036,0.0028874725402755507,-0.0010871047316102088,-0.001090830782496456,-8.573708358442428,1.8112392123555785,-64.5
1772315235.8269274,20.731626544277823,10.245181452045681,126.06984720421397,-0.3769540631912561,1.3715634477131717,9.747229765917037,0.0015371966837765443,0.0018938282223041106,-0.002181661564992912,-8.573708358442428,1.8112392123555785,-64.5
1772315235.851646,0.773713357564676,1.4070409541770228,-8.202955596774006,-0.3753896094216301,1.3741442777341746,9.748156440163331,0.0018938282223041106,-0.0015371966837765443,0.0,-8.573708358442428,1.8112392123555785,-64.5
1772315235.8853838,0.773713357564676,1.4070409541770228,-8.202955596774006,-0.3753896094216301,1.3741442777341746,9.748156440163331,0.0018938282223041106,-0.0015371966837765443,0.0,-8.573708358442428,1.8112392123555785,-64.5
1772315235.9245903,0.794200924336733,1.4085624289233614,-8.203010609959412,-0.3743484829140378,1.3758617912833917,9.74877313152261,0.0009936443179714399,0.0004500919521663354,0.001090830782496456,-8.290036296671142,1.1849913290294731,-64.0625
1772315235.9666111,0.7873715648932592,1.4080552559256478,-8.202992332240802,-0.3675614601226219,1.3797652565932266,9.749183532733316,0.0009936443179714399,0.0004500919521663354,0.001090830782496456,-8.290036296671142,1.1849913290294731,-64.0625
1772315236.003854,0.7873715648932592,1.4080552559256478,-8.202992332240802,-0.36304477227094695,1.382362969152357,9.749456650154558,0.0018938282223041106,-0.0015371966837765443,0.0,-9.753207837578575,1.6886383203622581,-63.75
1772315236.0381155,0.7873715648932592,1.4080552559256478,-8.202992332240802,-0.36304477227094695,1.382362969152357,9.749456650154558,0.0018938282223041106,-0.0015371966837765443,0.0,-9.753207837578575,1.6886383203622581,-63.75
1772315236.0662122,0.7444573524480106,1.4118204250985467,-8.204823043709238,-0.3661331316911247,1.3813312386133931,9.749638406747474,0.0004500919521663354,-0.0009936443179714399,-0.001090830782496456,-9.753207837578575,1.6886383203622581,-63.75
1772315236.0882878,0.7444573524480106,1.4118204250985467,-8.204823043709238,-0.3661331316911247,1.3813312386133931,9.749638406747474,0.0004500919521663354,-0.0009936443179714399,-0.001090830782496456,-9.753207837578575,1.6886383203622581,-63.75
1772315236.1227717,0.7225366006384542,1.4102800952196255,-8.205275331474548,-0.3718549324030387,1.3852625870498556,9.746494747542883,0.0004500919521663354,-0.0009936443179714399,0.0,-8.688557676969573,1.0044727442659274,-64.5
1772315236.1667373,0.7225366006384542,1.4102800952196255,-8.205275331474548,-0.3718549324030387,1.3852625870498556,9.746494747542883,0.0004500919521663354,-0.0009936443179714399,0.0,-8.688557676969573,1.0044727442659274,-64.5
1772315236.1946485,0.7157081898066296,1.409772780786473,-8.20525681060235,-0.3719961948430946,1.3832609019333244,9.744322181938704,0.002343920174470446,-0.0025308410017479844,0.0,-9.598477622066964,1.3470485658207458,-64.0625
1772315236.2369115,0.6152955138075878,1.4094387401118569,-8.207955321909898,-0.37209020341894694,1.3819288028485606,9.742876363798272,0.0009936443179714399,0.0004500919521663354,-0.001090830782496456,-9.598477622066964,1.3470485658207458,-64.0625
1772315236.254767,0.6152955138075878,1.4094387401118569,-8.207955321909898,-0.37209020341894694,1.3819288028485606,9.742876363798272,0.0009936443179714399,0.0004500919521663354,-0.001090830782496456,-9.598477622066964,1.3470485658207458,-64.0625
1772315236.333459,0.650873108219419,1.411994905601215,-8.20754217183297,-0.36914731679458374,1.381832591511662,9.737928759008268,-0.0004500919521663354,0.0009936443179714399,0.001090830782496456,-9.702617166088011,0.8195853392626393,-63.6875
1772315236.3737993,0.650873108219419,1.411994905601215,-8.20754217183297,-0.36914731679458374,1.381832591511662,9.737928759008268,-0.0004500919521663354,0.0009936443179714399,0.001090830782496456,-9.702617166088011,0.8195853392626393,-63.6875
1772315236.4191704,0.650873108219419,1.411994905601215,-8.20754217183297,-0.3648976514359002,1.3806807166481403,9.743546787295584,-0.0009936443179714399,-0.0004500919521663354,0.001090830782496456,-8.791711153977312,1.232199247293602,-63.0
1772315236.4528852,0.650873108219419,1.411994905601215,-8.20754217183297,-0.3648976514359002,1.3806807166481403,9.743546787295584,-0.0009936443179714399,-0.0004500919521663354,0.001090830782496456,-8.791711153977312,1.232199247293602,-63.0
1772315236.488501,0.7225366006384542,1.4102800952196255,-8.205275331474548,-0.3659859624630275,1.37716463599845,9.749050570739639,-0.0009936443179714399,-0.0004500919521663354,0.001090830782496456,-8.573708358442428,1.8112392123555785,-64.5
1772315236.542068,0.822967981371035,1.4091799512099767,-8.209405466841794,-0.36949098111551887,1.3783424196842191,9.744008274972556,-0.0009001839043326709,0.0019872886359428798,0.002181661564992912,-8.97222973874086,1.6307206275920327,-64.5625
1772315236.5749202,0.8946323343556253,1.4074628915226755,-8.207142981702063,-0.37042301166831626,1.3786556078548278,9.74601257392619,0.0004500919521663354,-0.0009936443179714399,0.0,-8.97222973874086,1.6307206275920327,-64.5625
1772315236.6411207,0.8727145257740535,1.4059225816016776,-8.20759651525385,-0.37104326758973954,1.378864031083827,9.750691524197666,0.0024373805881092152,-9.3460413638769e-05,-0.001090830782496456,-9.598477622066964,1.3470485658207458,-64.0625
1772315236.6755385,0.8727145257740535,1.4059225816016776,-8.20759651525385,-0.37104326758973954,1.378864031083827,9.750691524197666,0.0024373805881092152,-9.3460413638769e-05,-0.001090830782496456,-9.598477622066964,1.3470485658207458,-64.0625
1772315236.7151062,0.8653764494493716,1.4122434038225973,-8.20900558514702,-0.3700758013623769,1.3759556520491067,9.753805313336034,0.0004500919521663354,-0.0009936443179714399,-0.001090830782496456,-9.598477622066964,1.3470485658207458,-64.0625
1772315236.757119,0.8809714338880545,1.4064480715749474,-8.207107021824218,-0.37081220300973017,1.3770672406556022,9.755877505224316,-0.0590555061474287,0.1277300250661494,-0.001090830782496456,-8.97222973874086,1.6307206275920327,-64.875
1772315236.8086622,0.8809714338880545,1.4064480715749474,-8.207107021824218,-0.3713022700798983,1.3778069904559664,9.750566302363428,-0.0004500919521663354,0.0009936443179714399,-0.001090830782496456,-8.97222973874086,1.6307206275920327,-64.875
1772315236.8332772,1.0237910928254432,1.4098360647347876,-8.204007131471892,-0.37467548660606653,1.376919046070205,9.74368664448221,0.0014437362701377754,-0.0005435523658051044,0.001090830782496456,-8.232118603900917,1.9659694278671895,-64.0625
1772315236.8663158,1.0087085481501379,1.4088042466647477,-8.20448011021828,-0.37692032452293384,1.3763281290004694,9.739108309013075,0.00298093295391432,0.0013502758564990062,0.0,-8.232118603900917,1.9659694278671895,-64.0625
1772315236.9268034,0.9521271209818439,1.4115575949283827,-8.20626914726742,-0.3770339994657692,1.3728877979261576,9.736061477901723,-0.0004500919521663354,0.0009936443179714399,0.0,-9.417959037303419,0.9485271855223152,-63.6875
1772315236.9497077,0.9521271209818439,1.4115575949283827,-8.20626914726742,-0.3770339994657692,1.3728877979261576,9.736061477901723,-0.0004500919521663354,0.0009936443179714399,0.0,-9.417959037303419,0.9485271855223152,-63.6875
1772315236.9641953,0.9731290243637994,1.4062502744926832,-8.204900269560566,-0.37710964887039394,1.3705982960272194,9.734033845832451,-0.0009936443179714399,-0.0004500919521663354,0.0,-9.417959037303419,0.9485271855223152,-63.6875
1772315236.995683,0.9731290243637994,1.4062502744926832,-8.204900269560566,-0.37715999270411243,1.3690746580888877,9.732684479340486,0.0005435523658051045,0.0014437362701377754,-0.001090830782496456,-8.573708358442428,1.8112392123555785,-63.75
1772315237.0385401,1.0237910928254432,1.4098360647347876,-8.204007131471892,-0.3741464135976955,1.3694409336754363,9.741821826135453,-0.0004500919521663354,0.0009936443179714399,0.001090830782496456,-8.573708358442428,1.8112392123555785,-63.75
1772315237.0720768,1.0237910928254432,1.4098360647347876,-8.204007131471892,-0.37047406761523755,1.3741120079664544,9.737867293234693,0.001087104731610209,0.0028874725402755507,0.0,-8.573708358442428,1.8112392123555785,-63.75
1772315237.1197612,1.0237910928254432,1.4098360647347876,-8.204007131471892,-0.37047406761523755,1.3741120079664544,9.737867293234693,0.001087104731610209,0.0028874725402755507,0.0,-8.573708358442428,1.8112392123555785,-63.75
1772315237.1724308,1.1159724244911995,1.4082212789800845,-8.20863128898198,-0.3641049970979004,1.3742143778968365,9.733484230495682,-0.0009001839043326709,0.0019872886359428798,0.0,-8.573708358442428,1.8112392123555785,-64.0625
1772315237.2267125,1.2027163987798308,1.4075293240823825,-8.205899385909442,-0.3624113774902387,1.3742415994075512,9.732318716473472,-0.0013502758564990062,0.00298093295391432,0.001090830782496456,-8.05160001913737,1.5674480475687589,-64.0625
1772315237.2552264,1.2738745534373497,1.4126357982353936,-8.20504647660953,-0.35990405294595323,1.3712126326534684,9.738233303325973,9.346041363876907e-05,0.0024373805881092152,-0.001090830782496456,-8.05160001913737,1.5674480475687589,-64.0625
1772315237.3193917,1.2962902002951702,1.4073405040536848,-8.203184834646686,-0.3640430180644751,1.373910814230803,9.74216939480605,0.0,0.0,0.0,-8.393189773678882,1.4127178320571478,-64.875
1772315237.3436077,1.2962902002951702,1.4073405040536848,-8.203184834646686,-0.3640430180644751,1.373910814230803,9.74216939480605,0.0,0.0,0.0,-8.393189773678882,1.4127178320571478,-64.875
1772315237.3780398,1.2807099059570395,1.413143220701837,-8.205062352061054,-0.36403697388686723,1.3696122591990978,9.744788819717018,-0.0004500919521663354,0.0009936443179714399,0.001090830782496456,-8.393189773678882,1.4127178320571478,-64.875
1772315237.400847,1.2807099059570395,1.413143220701837,-8.205062352061054,-0.36679343078290133,1.3728457835742622,9.746532017734372,0.0005435523658051045,0.0014437362701377754,0.0,-9.019437657004987,1.1290457702858614,-63.6875
1772315237.4253602,1.2807099059570395,1.413143220701837,-8.205062352061054,-0.3700080616699282,1.3780447402904794,9.747692096542124,-0.0009001839043326709,0.0019872886359428798,0.0,-9.019437657004987,1.1290457702858614,-63.6875
1772315237.468831,1.1666299158697784,1.411807547833065,-8.207732681647782,-0.3721473626154647,1.38150458790897,9.748464116029755,0.0,0.0,-0.001090830782496456,-9.702617166088011,0.8195853392626393,-65.0
1772315237.5101578,1.1666299158697784,1.411807547833065,-8.207732681647782,-0.3721908038828046,1.380759995484666,9.74897788637475,-0.0003566315385275664,0.0034310249060806553,0.0,-9.702617166088011,0.8195853392626393,-65.0
1772315237.524652,1.1666299158697784,1.411807547833065,-8.207732681647782,-0.3721908038828046,1.380759995484666,9.74897788637475,-0.0003566315385275664,0.0034310249060806553,0.0,-9.702617166088011,0.8195853392626393,-65.0
1772315237.549011,1.1666299158697784,1.411807547833065,-8.207732681647782,-0.3711260770832562,1.3697429908334398,9.749319794800153,0.0,0.0,0.001090830782496456,-8.109517711907596,0.7864699487310424,-64.0625
1772315237.5934327,1.1666299158697784,1.411807547833065,-8.207732681647782,-0.3731779925206487,1.3685054620368124,9.746202219330572,-0.0004500919521663354,0.0009936443179714399,-0.001090830782496456,-8.109517711907596,0.7864699487310424,-64.0625
1772315237.6101766,1.2246261016097426,1.4090679106104083,-8.20544116332911,-0.3745435193228361,1.3676819004467595,9.744127507681165,-0.0009001839043326709,0.0019872886359428798,0.0,-8.573708358442428,1.8112392123555785,-65.25
1772315237.6345747,1.2246261016097426,1.4090679106104083,-8.20544116332911,-0.375452262155758,1.367133829408365,9.749437033669173,-0.0009001839043326709,0.0019872886359428798,0.001090830782496456,-8.573708358442428,1.8112392123555785,-65.25
1772315237.6497102,1.2451303117893517,1.4105901021379201,-8.205489915541557,-0.37300993799436577,1.3681493338690254,9.7529704639029,0.0005435523658051045,0.0014437362701377754,-0.003272492347489368,-8.573708358442428,1.8112392123555785,-65.25
1772315237.6758018,1.2451303117893517,1.4105901021379201,-8.205489915541557,-0.37300993799436577,1.3681493338690254,9.7529704639029,0.0005435523658051045,0.0014437362701377754,-0.003272492347489368,-8.573708358442428,1.8112392123555785,-65.25
1772315237.70255,1.2382954075928503,1.4100826906926,-8.205473724951379,-0.37138459854750777,1.3688251407436667,9.755321922252444,0.0004500919521663354,-0.0009936443179714399,0.0,-8.393189773678882,1.4127178320571478,-64.0625
1772315237.7314465,1.2382954075928503,1.4100826906926,-8.205473724951379,-0.37030295330185503,1.369274882669483,9.756886791516553,-0.0003566315385275664,0.0034310249060806553,0.001090830782496456,-8.393189773678882,1.4127178320571478,-64.0625
1772315237.7471485,1.2382954075928503,1.4100826906926,-8.205473724951379,-0.36820289085928515,1.3665270985317883,9.761273306238403,0.0,0.0,0.0,-8.393189773678882,1.4127178320571478,-64.0625
1772315237.7643027,1.2382954075928503,1.4100826906926,-8.205473724951379,-0.36820289085928515,1.3665270985317883,9.761273306238403,0.0,0.0,0.0,-8.393189773678882,1.4127178320571478,-64.0625
1772315237.7996836,1.2382954075928503,1.4100826906926,-8.205473724951379,-0.3681855623773467,1.3677455612482916,9.757502259370575,-0.0009001839043326709,0.0019872886359428798,0.001090830782496456,-8.573708358442428,1.8112392123555785,-64.5625
1772315237.8408387,1.2382954075928503,1.4100826906926,-8.205473724951379,-0.3637467084864521,1.366889591823982,9.75499266980539,0.0014437362701377754,-0.0005435523658051044,0.0,-8.573708358442428,1.8112392123555785,-64.5625
1772315237.8781471,1.2382954075928503,1.4100826906926,-8.205473724951379,-0.3637467084864521,1.366889591823982,9.75499266980539,0.0014437362701377754,-0.0005435523658051044,0.0,-8.573708358442428,1.8112392123555785,-64.5625
1772315237.9329808,1.2382954075928503,1.4100826906926,-8.205473724951379,-0.3607927008073087,1.3663199537339092,9.75332256598371,0.0024373805881092152,-9.3460413638769e-05,-0.002181661564992912,-8.393189773678882,1.4127178320571478,-64.5625
1772315237.9849067,1.2382954075928503,1.4100826906926,-8.205473724951379,-0.35882684169526663,1.3659408659482402,9.752211130546666,-0.0018938282223041106,0.0015371966837765443,-0.001090830782496456,-8.393189773678882,1.4127178320571478,-64.5625
1772315238.0571468,1.2382954075928503,1.4100826906926,-8.205473724951379,-0.36332614601038127,1.3704025123779662,9.74478125926422,0.0005435523658051045,0.0014437362701377754,-0.001090830782496456,-9.019437657004987,1.1290457702858614,-66.0625
1772315238.0758429,1.2382954075928503,1.4100826906926,-8.205473724951379,-0.36632038277156764,1.3733716882370928,9.739836762922854,-0.0013502758564990062,0.00298093295391432,0.0,-9.019437657004987,1.1290457702858614,-66.0625
1772315238.1140473,1.2382954075928503,1.4100826906926,-8.205473724951379,-0.36632038277156764,1.3733716882370928,9.739836762922854,-0.0013502758564990062,0.00298093295391432,0.0,-9.019437657004987,1.1290457702858614,-66.0625
1772315238.156164,1.2382954075928503,1.4100826906926,-8.205473724951379,-0.36693277427396376,1.3723005592380948,9.736546255841318,0.0005435523658051045,0.0014437362701377754,-0.002181661564992912,-8.508039092206026,0.6059513639674966,-64.5
1772315238.1895404,1.2382954075928503,1.4100826906926,-8.205473724951379,-0.3703873963433263,1.3702074952401995,9.734356460135928,-0.001256815442860237,0.005418313542023535,-0.001090830782496456,-8.508039092206026,0.6059513639674966,-64.5
1772315238.242299,1.2382954075928503,1.4100826906926,-8.205473724951379,-0.3726864087398299,1.368814584530657,9.732899175555612,0.0014437362701377754,-0.0005435523658051044,0.0,-8.688557676969573,1.0044727442659274,-65.25
1772315238.2855296,1.2382954075928503,1.4100826906926,-8.205473724951379,-0.3742163758080519,1.3678876180132886,9.728584257239028,0.0004500919521663354,-0.0009936443179714399,-0.001090830782496456,-8.688557676969573,1.0044727442659274,-65.25
1772315238.3318045,1.2382954075928503,1.4100826906926,-8.205473724951379,-0.3742163758080519,1.3678876180132886,9.728584257239028,0.0004500919521663354,-0.0009936443179714399,-0.001090830782496456,-8.688557676969573,1.0044727442659274,-65.25
1772315238.3634768,1.2382954075928503,1.4100826906926,-8.205473724951379,-0.3721874694357225,1.3686509717652315,9.729057839007456,0.0009001839043326709,-0.0019872886359428798,0.0,-8.393189773678882,1.4127178320571478,-65.25
1772315238.4217315,1.2382954075928503,1.4100826906926,-8.205473724951379,-0.37083725490930647,1.3691589751599296,9.72937300238409,0.0004500919521663354,-0.0009936443179714399,0.001090830782496456,-8.393189773678882,1.4127178320571478,-65.25
1772315238.4788413,1.2382954075928503,1.4100826906926,-8.205473724951379,-0.37083725490930647,1.3691589751599296,9.72937300238409,0.0004500919521663354,-0.0009936443179714399,0.001090830782496456,-8.393189773678882,1.4127178320571478,-65.25
1772315238.5453389,1.2382954075928503,1.4100826906926,-8.205473724951379,-0.368558462610504,1.3664499633789522,9.736272963505273,0.0014437362701377754,-0.0005435523658051044,-0.001090830782496456,-8.916284179997247,0.9013192672581867,-63.6875
1772315238.5750575,1.2382954075928503,1.4100826906926,-8.205473724951379,-0.36704195179142884,1.364647146300356,9.740864810553804,0.0018938282223041106,-0.0015371966837765443,0.0,-8.916284179997247,0.9013192672581867,-63.6875
1772315238.617672,1.2382954075928503,1.4100826906926,-8.205473724951379,-0.36704195179142884,1.364647146300356,9.740864810553804,0.0018938282223041106,-0.0015371966837765443,0.0,-8.916284179997247,0.9013192672581867,-63.6875
1772315238.677666,1.2382954075928503,1.4100826906926,-8.205473724951379,-0.36765987913317144,1.3677238500125912,9.749299361192783,9.346041363876907e-05,0.0024373805881092152,0.001090830782496456,-9.417959037303419,0.9485271855223152,-65.25
1772315238.7308722,1.2382954075928503,1.4100826906926,-8.205473724951379,-0.36765987913317144,1.3677238500125912,9.749299361192783,9.346041363876907e-05,0.0024373805881092152,0.001090830782496456,-9.417959037303419,0.9485271855223152,-65.25
1772315238.764968,1.2382954075928503,1.4100826906926,-8.205473724951379,-0.36811079727612106,1.3610675816450604,9.752878844407764,0.0009936443179714399,0.0004500919521663354,0.0,-8.508039092206026,0.6059513639674966,-64.1875
1772315238.794175,1.2382954075928503,1.4100826906926,-8.205473724951379,-0.36841087826316843,1.3566379094018584,9.755260950501887,0.0,0.0,-0.002181661564992912,-8.508039092206026,0.6059513639674966,-64.1875
1772315238.8648412,1.2382954075928503,1.4100826906926,-8.205473724951379,-0.36841087826316843,1.3566379094018584,9.755260950501887,0.0,0.0,-0.002181661564992912,-8.508039092206026,0.6059513639674966,-64.1875
1772315238.8958027,1.2382954075928503,1.4100826906926,-8.205473724951379,-0.3727512976509956,1.362831259102826,9.756846215497657,-0.0009001839043326709,0.0019872886359428798,0.0,-8.97222973874086,1.6307206275920327,-63.75
1772315238.9586396,1.2382954075928503,1.4100826906926,-8.205473724951379,-0.37563979826793314,1.3669528641445705,9.757901191643771,0.0005435523658051045,0.0014437362701377754,0.0,-8.728438573954039,2.152828966897091,-65.0
1772315238.9979627,1.2382954075928503,1.4100826906926,-8.205473724951379,-0.37563979826793314,1.3669528641445705,9.757901191643771,0.0005435523658051045,0.0014437362701377754,0.0,-8.728438573954039,2.152828966897091,-65.0
1772315239.0346646,1.2382954075928503,1.4100826906926,-8.205473724951379,-0.3761818235474818,1.3666486638931272,9.755258154776836,-0.0014437362701377754,0.0005435523658051044,0.001090830782496456,-8.728438573954039,2.152828966897091,-65.0
1772315239.0597432,1.2382954075928503,1.4100826906926,-8.205473724951379,-0.37044837058544416,1.3692067012526457,9.750154131559228,0.0014437362701377754,-0.0005435523658051044,-0.001090830782496456,-9.199956241768533,1.527567150584292,-64.5625
1772315239.0819683,1.2382954075928503,1.4100826906926,-8.205473724951379,-0.37044837058544416,1.3692067012526457,9.750154131559228,0.0014437362701377754,-0.0005435523658051044,-0.001090830782496456,-9.199956241768533,1.527567150584292,-64.5625
1772315239.1182106,1.2382954075928503,1.4100826906926,-8.205473724951379,-0.36663282168607425,1.3709090465402556,9.746757461123584,0.0018938282223041106,-0.0015371966837765443,0.0,-9.199956241768533,1.527567150584292,-64.5625
1772315239.162835,1.2382954075928503,1.4100826906926,-8.205473724951379,-0.3640936165160175,1.3720419383127171,9.744497014891959,0.0019872886359428798,0.0009001839043326709,-0.001090830782496456,-8.688557676969573,1.0044727442659274,-64.0625
1772315239.1860359,1.2382954075928503,1.4100826906926,-8.205473724951379,-0.36240380384012505,1.37279586513206,9.74633782488297,0.0009936443179714399,0.0004500919521663354,-0.001090830782496456,-8.688557676969573,1.0044727442659274,-64.0625
1772315239.2280352,1.2382954075928503,1.4100826906926,-8.205473724951379,-0.36265949199512015,1.3763446773737973,9.747562863368794,-0.0004500919521663354,0.0009936443179714399,0.001090830782496456,-7.20734934027638,2.430160074402022,-65.0
1772315239.2599084,1.2382954075928503,1.4100826906926,-8.205473724951379,-0.36006917037733127,1.372612207547085,9.748378112796532,-0.0003566315385275664,0.0034310249060806553,0.002181661564992912,-7.20734934027638,2.430160074402022,-65.0
1772315239.2873685,1.2382954075928503,1.4100826906926,-8.205473724951379,-0.36006917037733127,1.372612207547085,9.748378112796532,-0.0003566315385275664,0.0034310249060806553,0.002181661564992912,-7.20734934027638,2.430160074402022,-65.0
1772315239.302161,1.2382954075928503,1.4100826906926,-8.205473724951379,-0.3597255798908383,1.373175372937207,9.74892065218376,-0.0014437362701377754,0.0005435523658051044,0.001090830782496456,-7.20734934027638,2.430160074402022,-65.0
1772315239.3276732,1.2382954075928503,1.4100826906926,-8.205473724951379,-0.3611637670112564,1.3691228312336272,9.749281706085396,-0.0009001839043326709,0.0019872886359428798,0.0,-9.019437657004987,1.1290457702858614,-64.5
1772315239.353495,1.2382954075928503,1.4100826906926,-8.205473724951379,-0.3611637670112564,1.3691228312336272,9.749281706085396,-0.0009001839043326709,0.0019872886359428798,0.0,-9.019437657004987,1.1290457702858614,-64.5
1772315239.3928478,1.2382954075928503,1.4100826906926,-8.205473724951379,-0.3731785398106656,1.3660270074128085,9.754134154256016,-0.0009001839043326709,0.0019872886359428798,0.001090830782496456,-9.019437657004987,1.1290457702858614,-64.5
1772315239.4131868,1.2382954075928503,1.4100826906926,-8.205473724951379,-0.3731785398106656,1.3660270074128085,9.754134154256016,-0.0009001839043326709,0.0019872886359428798,0.001090830782496456,-9.019437657004987,1.1290457702858614,-64.5
1772315239.432366,1.2382954075928503,1.4100826906926,-8.205473724951379,-0.3745438835382288,1.3660325165806373,9.756096345183169,0.0005435523658051045,0.0014437362701377754,-0.001090830782496456,-9.019437657004987,1.1290457702858614,-63.75
1772315239.451251,1.2382954075928503,1.4100826906926,-8.205473724951379,-0.3768327441513905,1.3690832652356648,9.75740216132608,0.0,0.0,0.0,-9.019437657004987,1.1290457702858614,-63.75
1772315239.469377,1.2382954075928503,1.4100826906926,-8.205473724951379,-0.3708815509760858,1.3708269012498255,9.758271167382265,-0.0009936443179714399,-0.0004500919521663354,-0.002181661564992912,-9.019437657004987,1.1290457702858614,-63.75
1772315239.5056002,1.2382954075928503,1.4100826906926,-8.205473724951379,-0.3699681807624834,1.370607031925202,9.755504369497904,0.0014437362701377754,-0.0005435523658051044,-0.001090830782496456,-9.883135750851558,1.21810671956107,-65.375
1772315239.540937,1.2382954075928503,1.4100826906926,-8.205473724951379,-0.3663132607229656,1.3718409509601233,9.75366309641302,9.346041363876907e-05,0.0024373805881092152,0.0,-9.883135750851558,1.21810671956107,-65.375
1772315239.568573,1.2382954075928503,1.4100826906926,-8.205473724951379,-0.3638809522647986,1.3726621102940846,9.752437749743397,-0.0004500919521663354,0.0009936443179714399,0.001090830782496456,-7.833597223602486,2.1464880126307353,-64.5625
1772315239.5939717,1.2382954075928503,1.4100826906926,-8.205473724951379,-0.3638809522647986,1.3726621102940846,9.752437749743397,-0.0004500919521663354,0.0009936443179714399,0.001090830782496456,-7.833597223602486,2.1464880126307353,-64.5625
1772315239.6268988,1.2382954075928503,1.4100826906926,-8.205473724951379,-0.36226227815655426,1.3732085826578853,9.751622295222782,-0.0008067234906939017,0.004424669224052095,0.0,-7.833597223602486,2.1464880126307353,-64.5625
1772315239.6498384,1.2382954075928503,1.4100826906926,-8.205473724951379,-0.3642321509846712,1.3721920142971409,9.747734507641217,-0.0009001839043326709,0.0019872886359428798,0.001090830782496456,-8.393189773678882,1.4127178320571478,-64.5
1772315239.6702988,1.2382954075928503,1.4100826906926,-8.205473724951379,-0.3641628397325045,1.368468417043499,9.741802116727799,0.0009936443179714399,0.0004500919521663354,-0.001090830782496456,-8.393189773678882,1.4127178320571478,-64.5
1772315239.7025967,1.2382954075928503,1.4100826906926,-8.205473724951379,-0.3641628397325045,1.368468417043499,9.741802116727799,0.0009936443179714399,0.0004500919521663354,-0.001090830782496456,-8.393189773678882,1.4127178320571478,-64.5
1772315239.7236948,1.2382954075928503,1.4100826906926,-8.205473724951379,-0.3641167138684451,1.3659904046665072,9.737854176844069,0.0024373805881092152,-9.3460413638769e-05,-0.002181661564992912,-9.354686457280144,1.8691569051258043,-63.75
1772315239.7426991,1.2382954075928503,1.4100826906926,-8.205473724951379,-0.36546625723553033,1.3673883974762102,9.741917090367462,0.0005435523658051045,0.0014437362701377754,-0.002181661564992912,-9.354686457280144,1.8691569051258043,-63.75
1772315239.7654035,1.2382954075928503,1.4100826906926,-8.205473724951379,-0.36546625723553033,1.3673883974762102,9.741917090367462,0.0005435523658051045,0.0014437362701377754,-0.002181661564992912,-9.354686457280144,1.8691569051258043,-63.75
1772315239.7960482,1.2382954075928503,1.4100826906926,-8.205473724951379,-0.36636436327093835,1.3683187460744646,9.744620913931563,-0.0024373805881092152,9.3460413638769e-05,0.0,-7.7679279573660835,0.9412001642426534,-65.0
1772315239.817673,1.2382954075928503,1.4100826906926,-8.205473724951379,-0.3669620428050007,1.3689378826739282,9.746420278309783,0.0009936443179714399,0.0004500919521663354,0.002181661564992912,-7.7679279573660835,0.9412001642426534,-65.0
1772315239.838447,1.2382954075928503,1.4100826906926,-8.205473724951379,-0.3673597918584013,1.3693499111646623,9.747617735203272,-0.0009936443179714399,-0.0004500919521663354,-0.001090830782496456,-7.7679279573660835,0.9412001642426534,-65.0
1772315239.863478,1.2382954075928503,1.4100826906926,-8.205473724951379,-0.3690047290246485,1.372671193887965,9.74841462938942,-0.0013502758564990062,0.00298093295391432,0.0,-8.290036296671142,1.1849913290294731,-64.5625
1772315239.9061496,1.2382954075928503,1.4100826906926,-8.205473724951379,-0.37452673831337013,1.376548313190186,9.748944953568408,-0.0028874725402755507,0.0010871047316102088,0.0,-8.290036296671142,1.1849913290294731,-64.5625
1772315239.9237134,1.2382954075928503,1.4100826906926,-8.205473724951379,-0.3768213341957717,1.3760814104101744,9.749297878385416,-0.0005435523658051045,-0.0014437362701377754,0.001090830782496456,-8.290036296671142,1.1849913290294731,-64.5625
1772315239.948389,1.2382954075928503,1.4100826906926,-8.205473724951379,-0.3769681225088372,1.3727236094603434,9.749532745908708,0.0004500919521663354,-0.0009936443179714399,0.0,-8.05160001913737,1.5674480475687589,-65.25
1772315239.9682417,1.2382954075928503,1.4100826906926,-8.205473724951379,-0.3769681225088372,1.3727236094603434,9.749532745908708,0.0004500919521663354,-0.0009936443179714399,0.0,-8.05160001913737,1.5674480475687589,-65.25
1772315239.993352,1.2382954075928503,1.4100826906926,-8.205473724951379,-0.3740187261260704,1.3718692700516824,9.746343935914496,0.0,0.0,0.003272492347489368,-8.05160001913737,1.5674480475687589,-65.25
1772315240.00828,1.2382954075928503,1.4100826906926,-8.205473724951379,-0.37038909302923345,1.3757280386985513,9.74422181848469,-0.0019872886359428798,-0.0009001839043326709,-0.001090830782496456,-8.05160001913737,1.5674480475687589,-65.25
1772315240.0242488,1.2382954075928503,1.4100826906926,-8.205473724951379,-0.37038909302923345,1.3757280386985513,9.74422181848469,-0.0019872886359428798,-0.0009001839043326709,-0.001090830782496456,-8.05160001913737,1.5674480475687589,-65.25
1772315240.043463,1.2382954075928503,1.4100826906926,-8.205473724951379,-0.3710206951143259,1.376915766513415,9.749499796455398,-0.0024373805881092152,9.3460413638769e-05,0.002181661564992912,-8.05160001913737,1.5674480475687589,-64.0625
1772315240.0596015,1.2382954075928503,1.4100826906926,-8.205473724951379,-0.3714410192464974,1.377706186106418,9.753012231836026,-0.001087104731610209,-0.0028874725402755507,0.0,-8.05160001913737,1.5674480475687589,-64.0625
1772315240.0847712,1.2382954075928503,1.4100826906926,-8.205473724951379,-0.36896026103241497,1.3721380367852378,9.75534971834536,0.0,0.0,0.0,-8.05160001913737,1.5674480475687589,-64.0625
1772315240.111982,1.2382954075928503,1.4100826906926,-8.205473724951379,-0.36896026103241497,1.3721380367852378,9.75534971834536,0.0,0.0,0.0,-8.05160001913737,1.5674480475687589,-64.0625
1772315240.13906,1.2382954075928503,1.4100826906926,-8.205473724951379,-0.3700698233815425,1.3745266603430542,9.753560177798567,0.0,0.0,0.0,-8.393189773678882,1.4127178320571478,-64.0625
1772315240.1646137,1.2382954075928503,1.4100826906926,-8.205473724951379,-0.3680477455015489,1.3700220979073492,9.752369258555154,0.0018938282223041106,-0.0015371966837765443,0.001090830782496456,-8.393189773678882,1.4127178320571478,-64.0625
1772315240.19315,1.2382954075928503,1.4100826906926,-8.205473724951379,-0.36946255448921744,1.3731185266564052,9.751576715102102,0.0003566315385275664,-0.0034310249060806553,0.0,-8.393189773678882,1.4127178320571478,-64.0625
1772315240.2200181,1.2382954075928503,1.4100826906926,-8.205473724951379,-0.3720709368170809,1.37075184341979,9.751049286287387,-0.0015371966837765443,-0.0018938282223041106,-0.001090830782496456,-8.05160001913737,1.5674480475687589,-63.75
1772315240.2503433,1.2382954075928503,1.4100826906926,-8.205473724951379,-0.37075970375335515,1.3705570817777641,9.75069828830296,0.0,0.0,0.001090830782496456,-8.05160001913737,1.5674480475687589,-63.75
1772315240.287796,1.2382954075928503,1.4100826906926,-8.205473724951379,-0.3698870927968787,1.3704274700806258,9.750464703065228,0.0,0.0,0.0,-9.598477622066964,1.3470485658207458,-63.25
1772315240.3553755,1.2382954075928503,1.4100826906926,-8.205473724951379,-0.3693063799530467,1.370341214944038,9.746964142991517,-0.0005435523658051045,-0.0014437362701377754,0.0,-9.598477622066964,1.3470485658207458,-63.25
1772315240.3866894,1.2382954075928503,1.4100826906926,-8.205473724951379,-0.3689199220424641,1.3702838131141717,9.74463455936628,0.0,0.0,-0.001090830782496456,-9.599463689080272,0.5918588362349646,-65.0
1772315240.4037051,1.2382954075928503,1.4100826906926,-8.205473724951379,-0.368662738619989,1.3702456128376161,9.74308424748684,-0.0009001839043326709,0.0019872886359428798,-0.002181661564992912,-9.599463689080272,0.5918588362349646,-65.0
1772315240.4275002,1.2382954075928503,1.4100826906926,-8.205473724951379,-0.368662738619989,1.3702456128376161,9.74308424748684,-0.0009001839043326709,0.0019872886359428798,-0.002181661564992912,-9.599463689080272,0.5918588362349646,-65.0
1772315240.4439886,1.2382954075928503,1.4100826906926,-8.205473724951379,-0.368491585925259,1.3702201909802934,9.738707420541871,9.346041363876907e-05,0.0024373805881092152,0.0,-9.599463689080272,0.5918588362349646,-65.0
1772315240.4649475,1.2382954075928503,1.4100826906926,-8.205473724951379,-0.368491585925259,1.3702201909802934,9.738707420541871,9.346041363876907e-05,0.0024373805881092152,0.0,-9.599463689080272,0.5918588362349646,-65.0
1772315240.488873,1.2382954075928503,1.4100826906926,-8.205473724951379,-0.36837768571881696,1.3702032730182259,9.735794691102354,0.0024373805881092152,-9.3460413638769e-05,0.002181661564992912,-8.232118603900917,1.9659694278671895,-64.5625
1772315240.5131154,1.2382954075928503,1.4100826906926,-8.205473724951379,-0.36830188640377853,1.370192014303456,9.733856302197676,0.0,0.0,-0.002181661564992912,-8.232118603900917,1.9659694278671895,-64.5625
1772315240.5343428,1.2382954075928503,1.4100826906926,-8.205473724951379,-0.36830188640377853,1.370192014303456,9.733856302197676,0.0,0.0,-0.002181661564992912,-8.232118603900917,1.9659694278671895,-64.5625
1772315240.5582066,1.2382954075928503,1.4100826906926,-8.205473724951379,-0.36825144280635425,1.3701845217545447,9.735911437742155,0.0,0.0,0.0,-8.688557676969573,1.0044727442659274,-65.25
1772315240.5716248,1.2382954075928503,1.4100826906926,-8.205473724951379,-0.3682178731557604,1.3701795355469417,9.740624219196956,-0.0024373805881092152,9.3460413638769e-05,0.0,-8.688557676969573,1.0044727442659274,-65.25
1772315240.6060262,1.2382954075928503,1.4100826906926,-8.205473724951379,-0.3682178731557604,1.3701795355469417,9.740624219196956,-0.0024373805881092152,9.3460413638769e-05,0.0,-8.688557676969573,1.0044727442659274,-65.25
1772315240.6269364,1.2382954075928503,1.4100826906926,-8.205473724951379,-0.3726228549080239,1.3718430600325031,9.743760522609909,0.0009936443179714399,0.0004500919521663354,0.0,-8.508039092206026,0.6059513639674966,-65.25
1772315240.652056,1.2382954075928503,1.4100826906926,-8.205473724951379,-0.3786014034226641,1.3715698773805012,9.749192809203743,9.346041363876907e-05,0.0024373805881092152,0.004363323129985824,-8.508039092206026,0.6059513639674966,-65.25
1772315240.678424,1.2382954075928503,1.4100826906926,-8.205473724951379,-0.37953297830901517,1.3727683169916012,9.752807935249322,0.0009936443179714399,0.0004500919521663354,0.0,-8.508039092206026,0.6059513639674966,-65.25
1772315240.709646,1.2382954075928503,1.4100826906926,-8.205473724951379,-0.3771058486241293,1.3749461047796976,9.751868649541732,0.0014437362701377754,-0.0005435523658051044,-0.001090830782496456,-9.354686457280144,1.8691569051258043,-63.75
1772315240.7466342,1.2382954075928503,1.4100826906926,-8.205473724951379,-0.3754906209316529,1.3763953982251922,9.75124356539584,-0.0014437362701377754,0.0005435523658051044,0.001090830782496456,-9.354686457280144,1.8691569051258043,-63.75
1772315240.7785916,1.2382954075928503,1.4100826906926,-8.205473724951379,-0.3699883829658492,1.3756930440724786,9.757517802294034,-0.0005435523658051045,-0.0014437362701377754,0.0,-8.393189773678882,1.4127178320571478,-65.0
1772315240.8247647,1.2382954075928503,1.4100826906926,-8.205473724951379,-0.3679935478146541,1.3707983132499213,9.761693236861964,0.0,0.0,-0.001090830782496456,-8.393189773678882,1.4127178320571478,-65.0
1772315240.8470352,1.2382954075928503,1.4100826906926,-8.205473724951379,-0.3666660073053025,1.3675409245652352,9.764471941924262,-0.0019872886359428798,-0.0009001839043326709,0.001090830782496456,-8.393189773678882,1.4127178320571478,-65.0
1772315240.8955307,1.2382954075928503,1.4100826906926,-8.205473724951379,-0.36716278354028536,1.3684202511483716,9.759630915688412,0.0009001839043326709,-0.0019872886359428798,0.0,-8.290036296671142,1.1849913290294731,-65.0
1772315240.9168074,1.2382954075928503,1.4100826906926,-8.205473724951379,-0.36716278354028536,1.3684202511483716,9.759630915688412,0.0009001839043326709,-0.0019872886359428798,0.0,-8.290036296671142,1.1849913290294731,-65.0
1772315240.9334173,1.2382954075928503,1.4100826906926,-8.205473724951379,-0.3674933825753123,1.3690054331667272,9.75640926680626,-0.0009936443179714399,-0.0004500919521663354,0.002181661564992912,-8.290036296671142,1.1849913290294731,-65.0
1772315240.951477,1.2382954075928503,1.4100826906926,-8.205473724951379,-0.3674933825753123,1.3690054331667272,9.75640926680626,-0.0009936443179714399,-0.0004500919521663354,0.002181661564992912,-8.290036296671142,1.1849913290294731,-65.0
1772315240.9807842,1.2382954075928503,1.4100826906926,-8.205473724951379,-0.36604654978906753,1.3738221872427678,9.754265295463364,0.0,0.0,-0.001090830782496456,-8.290036296671142,1.1849913290294731,-65.0
1772315241.026916,1.2382954075928503,1.4100826906926,-8.205473724951379,-0.36232321950328855,1.3709335185429459,9.756183618191717,-0.0015371966837765443,-0.0018938282223041106,0.002181661564992912,-7.65307863883894,1.7479666323323046,-65.0
1772315241.0590227,1.2382954075928503,1.4100826906926,-8.205473724951379,-0.3656529463845206,1.3737250669081593,9.757460240538366,0.0,0.0,-0.001090830782496456,-7.65307863883894,1.7479666323323046,-65.0
1772315241.0830507,1.2382954075928503,1.4100826906926,-8.205473724951379,-0.3656529463845206,1.3737250669081593,9.757460240538366,0.0,0.0,-0.001090830782496456,-7.65307863883894,1.7479666323323046,-65.0
1772315241.1136885,1.2382954075928503,1.4100826906926,-8.205473724951379,-0.3709159247938732,1.374202571547213,9.758309818449256,-0.0009936443179714399,-0.0004500919521663354,-0.001090830782496456,-9.019437657004987,1.1290457702858614,-63.75
1772315241.1319218,1.2382954075928503,1.4100826906926,-8.205473724951379,-0.37137129576859723,1.375900585164784,9.752184979643905,-0.0009936443179714399,-0.0004500919521663354,-0.001090830782496456,-9.019437657004987,1.1290457702858614,-63.75
1772315241.1624126,1.2382954075928503,1.4100826906926,-8.205473724951379,-0.37137129576859723,1.375900585164784,9.752184979643905,-0.0009936443179714399,-0.0004500919521663354,-0.001090830782496456,-9.019437657004987,1.1290457702858614,-63.75
1772315241.1901653,1.2382954075928503,1.4100826906926,-8.205473724951379,-0.3725235723214396,1.373816986278096,9.734253935150614,-9.346041363876907e-05,-0.0024373805881092152,-0.003272492347489368,-7.954787496395984,0.4448801941895303,-64.5625
1772315241.220657,1.2382954075928503,1.4100826906926,-8.205473724951379,-0.3725235723214396,1.373816986278096,9.734253935150614,-9.346041363876907e-05,-0.0024373805881092152,-0.003272492347489368,-7.954787496395984,0.4448801941895303,-64.5625
1772315241.2494383,1.2382954075928503,1.4100826906926,-8.205473724951379,-0.3725235723214396,1.373816986278096,9.734253935150614,-0.0014437362701377754,0.0005435523658051044,0.0,-7.954787496395984,0.4448801941895303,-64.5625
1772315241.272858,1.2382954075928503,1.4100826906926,-8.205473724951379,-0.36801384525985686,1.3739771397244345,9.732830946323164,-0.0019872886359428798,-0.0009001839043326709,-0.001090830782496456,-8.386848819412528,2.307559182408702,-64.5625
1772315241.3136985,1.2382954075928503,1.4100826906926,-8.205473724951379,-0.36501267227732564,1.3740837200539415,9.731883963154322,-0.0024373805881092152,9.3460413638769e-05,0.0,-8.386848819412528,2.307559182408702,-64.5625
1772315241.339037,1.2382954075928503,1.4100826906926,-8.205473724951379,-0.36301542518275004,1.3741546480726483,9.731253756433954,-0.0005435523658051045,-0.0014437362701377754,0.0,-9.753207837578575,1.6886383203622581,-64.5625
1772315241.357015,1.2382954075928503,1.4100826906926,-8.205473724951379,-0.3616862795520219,1.3742018498767798,9.734179472608739,0.0013502758564990062,-0.00298093295391432,0.001090830782496456,-9.753207837578575,1.6886383203622581,-64.5625
1772315241.384897,1.2382954075928503,1.4100826906926,-8.205473724951379,-0.36080174798230186,1.3742332621501505,9.736126504040667,0.0003566315385275664,-0.0034310249060806553,-0.001090830782496456,-9.753207837578575,1.6886383203622581,-64.5625
1772315241.408563,1.2382954075928503,1.4100826906926,-8.205473724951379,-0.3602131021035183,1.3742541666671808,9.740767343416168,0.0004500919521663354,-0.0009936443179714399,-0.001090830782496456,-9.702617166088011,0.8195853392626393,-63.75
1772315241.4390001,1.2382954075928503,1.4100826906926,-8.205473724951379,-0.3602131021035183,1.3742541666671808,9.740767343416168,0.0004500919521663354,-0.0009936443179714399,-0.001090830782496456,-9.702617166088011,0.8195853392626393,-63.75
1772315241.4705963,1.2382954075928503,1.4100826906926,-8.205473724951379,-0.363717015674765,1.3699507635502637,9.745911083689665,-0.0009001839043326709,0.0019872886359428798,0.0,-9.702617166088011,0.8195853392626393,-63.75
1772315241.5021346,1.2382954075928503,1.4100826906926,-8.205473724951379,-0.363717015674765,1.3699507635502637,9.745911083689665,-0.0009001839043326709,0.0019872886359428798,0.0,-9.702617166088011,0.8195853392626393,-63.75
1772315241.5228994,1.2382954075928503,1.4100826906926,-8.205473724951379,-0.3682473449179367,1.3686437324588856,9.747278871871659,-0.0014437362701377754,0.0005435523658051044,0.0,-9.598477622066964,1.3470485658207458,-65.0
1772315241.535368,1.2382954075928503,1.4100826906926,-8.205473724951379,-0.371262228422174,1.3677739178680675,9.744844007920262,-0.0019872886359428798,-0.0009001839043326709,0.0,-9.598477622066964,1.3470485658207458,-65.0
1772315241.55209,1.2382954075928503,1.4100826906926,-8.205473724951379,-0.371262228422174,1.3677739178680675,9.744844007920262,-0.0019872886359428798,-0.0009001839043326709,0.0,-9.598477622066964,1.3470485658207458,-65.0
1772315241.5760627,1.2382954075928503,1.4100826906926,-8.205473724951379,-0.3702215173504093,1.3685753055887007,9.753258968281779,0.0,0.0,0.001090830782496456,-9.598477622066964,1.3470485658207458,-65.0
1772315241.5916739,1.2382954075928503,1.4100826906926,-8.205473724951379,-0.36952893575765433,1.369108620164695,9.752168806986463,0.0008067234906939017,-0.004424669224052095,-0.001090830782496456,-8.791711153977312,1.232199247293602,-66.0625
1772315241.619675,1.2382954075928503,1.4100826906926,-8.205473724951379,-0.36952893575765433,1.369108620164695,9.752168806986463,0.0008067234906939017,-0.004424669224052095,-0.001090830782496456,-8.791711153977312,1.232199247293602,-66.0625
1772315241.649633,1.2382954075928503,1.4100826906926,-8.205473724951379,-0.3707348731953411,1.3650362130777682,9.75144331682233,0.0004500919521663354,-0.0009936443179714399,0.0,-8.791711153977312,1.232199247293602,-66.0625
1772315241.6713803,1.2382954075928503,1.4100826906926,-8.205473724951379,-0.3715374110889178,1.3623260716531866,9.750960511222356,-0.0015371966837765443,-0.0018938282223041106,-0.002181661564992912,-9.598477622066964,1.3470485658207458,-65.0
1772315241.698228,1.2382954075928503,1.4100826906926,-8.205473724951379,-0.3715374110889178,1.3623260716531866,9.750960511222356,-0.0015371966837765443,-0.0018938282223041106,-0.002181661564992912,-9.598477622066964,1.3470485658207458,-65.0
1772315241.7256742,1.2382954075928503,1.4100826906926,-8.205473724951379,-0.3720714910921575,1.360522502809391,9.750639209488865,-0.0015371966837765443,-0.0018938282223041106,-0.002181661564992912,-9.598477622066964,1.3470485658207458,-65.0
1772315241.7534523,1.2382954075928503,1.4100826906926,-8.205473724951379,-0.3693798330028698,1.3607024875053864,9.750425386774403,-0.0014437362701377754,0.0005435523658051044,0.003272492347489368,-9.019437657004987,1.1290457702858614,-65.25
1772315241.7731416,1.2382954075928503,1.4100826906926,-8.205473724951379,-0.3675885646122398,1.3608222653100104,9.736902643317206,-0.0014437362701377754,0.0005435523658051044,0.002181661564992912,-9.019437657004987,1.1290457702858614,-65.25
1772315241.7921567,1.2382954075928503,1.4100826906926,-8.205473724951379,-0.36915697473676895,1.3669961408317401,9.727903408605384,0.0009936443179714399,0.0004500919521663354,-0.001090830782496456,-9.019437657004987,1.1290457702858614,-65.25
1772315241.8188803,1.2382954075928503,1.4100826906926,-8.205473724951379,-0.36915697473676895,1.3669961408317401,9.727903408605384,0.0009936443179714399,0.0004500919521663354,-0.001090830782496456,-9.019437657004987,1.1290457702858614,-65.25
1772315241.8313532,1.2382954075928503,1.4100826906926,-8.205473724951379,-0.37020073415435395,1.3711047860247427,9.721914518432705,-0.0004500919521663354,0.0009936443179714399,-0.001090830782496456,-9.599463689080272,0.5918588362349646,-65.0
1772315241.844633,1.2382954075928503,1.4100826906926,-8.205473724951379,-0.37020073415435395,1.3711047860247427,9.721914518432705,-0.0004500919521663354,0.0009936443179714399,-0.001090830782496456,-9.599463689080272,0.5918588362349646,-65.0
1772315241.8583252,1.2382954075928503,1.4100826906926,-8.205473724951379,-0.369515104772843,1.3707919611387327,9.73465453745967,0.0,0.0,0.0,-9.599463689080272,0.5918588362349646,-65.0
1772315241.8723743,1.2382954075928503,1.4100826906926,-8.205473724951379,-0.3721059084438086,1.3692035400572191,9.73644265439214,0.0004500919521663354,-0.0009936443179714399,-0.001090830782496456,-9.599463689080272,0.5918588362349646,-65.0
1772315241.9274044,1.2382954075928503,1.4100826906926,-8.205473724951379,-0.3721059084438086,1.3692035400572191,9.73644265439214,0.0004500919521663354,-0.0009936443179714399,-0.001090830782496456,-9.599463689080272,0.5918588362349646,-65.0
1772315241.96094,1.2382954075928503,1.4100826906926,-8.205473724951379,-0.3738300593456629,1.3681464635712977,9.737632626236124,0.0019872886359428798,0.0009001839043326709,0.001090830782496456,-8.791711153977312,1.232199247293602,-65.0
1772315242.0117762,1.2382954075928503,1.4100826906926,-8.205473724951379,-0.3720464044728563,1.3723206938506598,9.742296660147588,-0.0009001839043326709,0.0019872886359428798,0.0,-9.314805560295678,0.7208006824946405,-63.75
1772315242.043982,1.2382954075928503,1.4100826906926,-8.205473724951379,-0.3720464044728563,1.3723206938506598,9.742296660147588,-0.0009001839043326709,0.0019872886359428798,0.0,-9.314805560295678,0.7208006824946405,-63.75
1772315242.0801835,1.2382954075928503,1.4100826906926,-8.205473724951379,-0.3707433777523179,1.3716011342143002,9.744873513380163,0.0019872886359428798,0.0009001839043326709,0.001090830782496456,-9.314805560295678,0.7208006824946405,-63.75
1772315242.1261573,1.2382954075928503,1.4100826906926,-8.205473724951379,-0.37292331039094095,1.3697420356999535,9.743243268713787,-0.0004500919521663354,0.0009936443179714399,-0.001090830782496456,-8.916284179997247,0.9013192672581867,-65.25
1772315242.1409159,1.2382954075928503,1.4100826906926,-8.205473724951379,-0.37437403121050145,1.368504826406147,9.74215835909934,-0.0014437362701377754,0.0005435523658051044,0.0,-8.916284179997247,0.9013192672581867,-65.25
1772315242.173915,1.2382954075928503,1.4100826906926,-8.205473724951379,-0.37437403121050145,1.368504826406147,9.74215835909934,-0.0014437362701377754,0.0005435523658051044,0.0,-8.916284179997247,0.9013192672581867,-65.25
1772315242.2138739,1.2382954075928503,1.4100826906926,-8.205473724951379,-0.3753394697103055,1.3676814774416521,9.74143636387016,0.0005435523658051045,0.0014437362701377754,-0.001090830782496456,-9.199956241768533,1.527567150584292,-64.5625
1772315242.2540364,1.2382954075928503,1.4100826906926,-8.205473724951379,-0.3698877935165123,1.3698940271319058,9.744300995817676,0.0018938282223041106,-0.0015371966837765443,-0.002181661564992912,-9.199956241768533,1.527567150584292,-64.5625
1772315242.289796,1.2382954075928503,1.4100826906926,-8.205473724951379,-0.3698877935165123,1.3698940271319058,9.744300995817676,0.0018938282223041106,-0.0015371966837765443,-0.002181661564992912,-9.199956241768533,1.527567150584292,-64.5625
1772315242.3132582,1.2382954075928503,1.4100826906926,-8.205473724951379,-0.36625976390875625,1.3713664542349702,9.746207376378711,0.0014437362701377754,-0.0005435523658051044,0.001090830782496456,-9.417959037303419,0.9485271855223152,-65.0
1772315242.347953,1.2382954075928503,1.4100826906926,-8.205473724951379,-0.36625976390875625,1.3713664542349702,9.746207376378711,0.0014437362701377754,-0.0005435523658051044,0.001090830782496456,-9.417959037303419,0.9485271855223152,-65.0
1772315242.4032876,1.2382954075928503,1.4100826906926,-8.205473724951379,-0.3682726727122771,1.3740131807749927,9.747476051346414,0.0024373805881092152,-9.3460413638769e-05,-0.002181661564992912,-9.417959037303419,0.9485271855223152,-65.0
1772315242.452122,1.251917835524796,1.4153089098844085,-8.185000309539934,-0.40313014705452577,1.3605919119635763,9.748320340365392,-0.003881116858246991,0.0006370127794438734,-0.008726646259971648,-8.916284179997247,0.9013192672581867,-65.0
1772315242.496814,1.279771837197743,1.4197992103159491,-8.242043715003447,-0.431848365303219,1.3638485369564912,9.705395753081044,0.037588773371664684,0.02540928026461983,0.017453292519943295,-8.916284179997247,0.9013192672581867,-65.0
1772315242.5158417,1.279771837197743,1.4197992103159491,-8.242043715003447,-0.431848365303219,1.3638485369564912,9.705395753081044,0.037588773371664684,0.02540928026461983,0.017453292519943295,-8.916284179997247,0.9013192672581867,-65.0
1772315242.553236,1.2660088174845474,1.4271973210895275,-8.201002069763062,-0.5091767494839806,1.481404233317965,9.75253086183705,0.0027005517129980124,-0.00596186590782864,0.0545415391248228,-8.97222973874086,1.6307206275920327,-64.5
1772315242.5900888,1.2660088174845474,1.4271973210895275,-8.201002069763062,-0.5091767494839806,1.481404233317965,9.75253086183705,0.0027005517129980124,-0.00596186590782864,0.0545415391248228,-8.97222973874086,1.6307206275920327,-64.5
1772315242.6194663,1.3007716982160247,1.4158957452518324,-8.233854172231158,-0.5062753103082592,1.4608634386970327,9.765064707110255,0.010386535131880733,0.0035072752036919143,0.007635815477475192,-8.791711153977312,1.232199247293602,-64.0625
1772315242.6568172,1.245196293109988,1.4049735617292454,-8.232829385510103,-0.5058302267003064,1.3694026435159798,9.770060729420027,-0.004798510878607171,-0.010556245843130762,-0.006544984694978736,-8.791711153977312,1.232199247293602,-64.0625
1772315242.6794996,1.245196293109988,1.4049735617292454,-8.232829385510103,-0.5058302267003064,1.3694026435159798,9.770060729420027,-0.004798510878607171,-0.010556245843130762,-0.006544984694978736,-8.791711153977312,1.232199247293602,-64.0625
1772315242.6985223,1.2875454256533425,1.4136506573680103,-8.205078167345238,-0.3866978162813381,1.362365850966945,9.766695303043317,0.005605234369301073,0.006131576619078667,0.004363323129985824,-8.916284179997247,0.9013192672581867,-65.0
1772315242.713883,1.2875454256533425,1.4136506573680103,-8.205078167345238,-0.3866978162813381,1.362365850966945,9.766695303043317,0.005605234369301073,0.006131576619078667,0.004363323129985824,-8.916284179997247,0.9013192672581867,-65.0
1772315242.731752,1.2807581943362485,1.4089371234518797,-8.225568389465183,-0.37140525761669796,1.3286979122301845,9.764455649383892,0.013724099624322621,0.0014265261541102656,-0.00545415391248228,-8.916284179997247,0.9013192672581867,-65.0
1772315242.7567658,1.2739230224990876,1.4084285355328314,-8.225552012442765,-0.3915935021703114,1.3733280871347298,9.762965184892115,0.0036941960309694525,-0.005511773955662304,0.002181661564992912,-8.916284179997247,0.9013192672581867,-65.0
1772315242.7865772,1.3927356351753164,1.4446038556587302,-8.194298654067657,-0.4476877065185805,1.383705615380984,9.735212403763862,-0.0206796098501227,-0.004577169819274613,0.06544984694978735,-9.417959037303419,0.9485271855223152,-65.25
1772315242.8077972,1.4608935840863637,1.4851490965679088,-8.229116576600129,-0.4850177728990334,1.3906117445042798,9.666566562332097,0.04694724395351896,0.002105368999110378,0.04363323129985824,-9.417959037303419,0.9485271855223152,-65.25
1772315242.8407695,1.4565404039125738,1.4574219909874744,-8.187955863431286,-0.3619864948508074,1.4254674156672407,9.62088352168355,-0.02951173818219938,0.006989930457855101,-0.006544984694978736,-9.417959037303419,0.9485271855223152,-65.25
1772315242.8580208,1.380554237421744,1.425878102132869,-8.176408302499562,-0.2563598770784034,1.4043374795965025,9.674109761127928,-0.021919215176955425,0.014021690981266436,-0.05890486225480862,-8.916284179997247,0.9013192672581867,-63.75
1772315242.927252,1.3571276522124944,1.444849729018409,-8.181065243673562,-0.1860665428775012,1.390275743178278,9.719566564024069,-0.049367414425600664,0.011168638673045907,0.026179938779914945,-8.916284179997247,0.9013192672581867,-63.75
1772315242.9947865,1.3145297925106036,1.4693129626434518,-8.15100681292507,-0.31177162040577794,1.3725608781248961,9.739782223443731,0.029120686411616793,-0.029920000068809474,-0.03599741582238305,-7.214676361556042,0.7801289944646871,-64.5625
1772315243.0371013,1.3846804743618226,1.4880536102192057,-8.152903466875586,-0.3981874245118361,1.366865998050638,9.763270854085762,0.02212334612026047,0.004033617453469509,0.04690572364734761,-7.214676361556042,0.7801289944646871,-64.5625
1772315243.0688896,1.3213542879588114,1.471217691367111,-8.144182317476856,-0.4285590386648876,1.3680238711612969,9.76552182856356,0.007218681350688876,-0.0027177618290255222,-0.07853981633974483,-8.735765595233701,0.5027978869597559,-63.25
1772315243.1164882,0.7266324664140927,1.475461090772797,-8.168471096844042,-0.4515314878392975,1.3748885875129084,9.773710050348141,0.020441058674762633,-0.03983923313249636,-0.3534291735288517,-8.735765595233701,0.5027978869597559,-63.25
1772315243.1352048,-0.06458908540110588,1.4381808571640189,-8.089511214047084,-0.6593587914380091,1.277553075166267,9.779159220477348,-0.05942432841750763,-0.08559611165824005,-0.5279620987282847,-9.417959037303419,0.9485271855223152,-63.75
1772315243.1512463,-0.7215359945254044,1.4388056283004356,-7.950242562578222,-0.7673002688839958,1.1457415669701532,9.886484045254019,-0.11286958081115911,-0.15531112434496458,-0.5879577917655898,-9.417959037303419,0.9485271855223152,-63.75
1772315243.1820734,-0.7215359945254044,1.4388056283004356,-7.950242562578222,-0.7673002688839958,1.1457415669701532,9.886484045254019,-0.11286958081115911,-0.15531112434496458,-0.5879577917655898,-9.417959037303419,0.9485271855223152,-63.75
1772315243.249175,-3.280167997624233,1.7805197988469512,-6.773468496808244,-0.6837329157046558,1.1284147010288796,9.977978187489962,-0.318310384071411,-0.40764036986357766,-0.6981317007977318,-11.74581473907073,0.7860453965445283,-64.5625
1772315243.2829123,-5.884568852175529,2.971170442109121,-5.239736359802645,-0.597648952018515,1.1306862614423088,10.038866517091444,-0.25579182323487165,-0.6487639275416387,-0.7428557628800865,-11.74581473907073,0.7860453965445283,-64.5625
1772315243.3164222,-7.200843396424379,3.6108106976010577,-4.46822813955431,-0.4382233043438399,0.9067138644843992,10.079387020274023,-0.2904489035516795,-0.5722533150578378,-0.7504915783575618,-17.212661430934745,1.1914692459361063,-62.0625
1772315243.3492024,-8.040723645409718,3.9334722403535727,-4.022320110440147,-0.2434526021930272,0.6105429732963267,10.203361202010612,-0.2841968561204083,-0.48559471861751624,-0.7221299780126539,-17.212661430934745,1.1914692459361063,-62.0625
1772315243.3799496,19.805568688178873,14.812272774201348,128.06606910370533,-0.09859946381606899,0.4203457517280838,10.28586463507396,-0.20596953595905446,-0.3807036931977075,-0.7875798249624412,-19.334210178686575,0.5735344509029696,-61.25
1772315243.4323819,-12.710108717303145,5.020887743661224,-2.7036775161863402,-0.00722456938668001,0.4751107755870519,10.41101709400759,-0.14635828671426934,-0.2902328203632491,-0.8868454261696187,-19.334210178686575,0.5735344509029696,-61.25
1772315243.4749672,-15.506617487948867,5.202380101563257,-2.4467596195612424,0.07658082144030252,0.5256452864800306,10.494304657383351,-0.08699299847834545,-0.1807129947760832,-0.8213955792198313,-23.474154197182493,-0.8900616421909786,-58.0625
1772315243.503868,-16.762516350445992,5.267798867622832,-2.4561690497516246,0.16891736125265283,0.5758383143441191,10.502900036524405,-0.027322709051976528,-0.11416583587055053,-0.7494007475750653,-23.474154197182493,-0.8900616421909786,-58.0625
1772315243.5340276,-16.762516350445992,5.267798867622832,-2.4561690497516246,0.16891736125265283,0.5758383143441191,10.502900036524405,-0.027322709051976528,-0.11416583587055053,-0.7494007475750653,-23.474154197182493,-0.8900616421909786,-58.0625
1772315243.5648997,-18.30592327450684,5.374494032668509,-2.649430345803535,0.2445080723802407,0.6266638984770911,10.50527505361878,0.060755003708954064,-0.07067662722166602,-0.6784967467127956,-25.433221155956534,-3.8358521389914273,-59.0
1772315243.617463,-19.73671934426113,5.571423310951243,-3.119598264422317,0.321142951042799,0.683431400198317,10.466714260476575,0.20234441887862112,-0.044861475519461166,-0.6272276999354622,-25.433221155956534,-3.8358521389914273,-59.0
1772315243.6334243,-21.11574145872605,5.821593259698033,-3.77062984487539,0.4586601015712856,0.8301729691326669,10.357424690709736,0.27936416349617205,-0.03512175344955058,-0.605411084285533,-24.749617094686993,-7.162688735131337,-58.0625
1772315243.6527655,-21.79430489502452,5.955145800548265,-4.138134732777195,0.6189844360080636,1.0434586457252524,10.110747894093786,0.30788225736040004,-0.04256177585957203,-0.5966844380255614,-24.749617094686993,-7.162688735131337,-58.0625
1772315243.6910522,-22.78694985880576,6.183576303013425,-4.725619360156062,0.7256784896355762,1.1853978809404986,9.933206794676963,0.3609610779329976,-0.04606164122976272,-0.559596191420682,-24.749617094686993,-7.162688735131337,-58.0625
1772315243.725749,-23.64903700691179,6.470551840713014,-5.360962328375212,0.76701840016125,1.248058569211915,9.758188277254668,0.38756813345889396,-0.06514501421452512,-0.5006913291658733,-23.628596823147866,-12.21255269872465,-58.5625
1772315243.740285,-23.64903700691179,6.470551840713014,-5.360962328375212,0.76701840016125,1.248058569211915,9.758188277254668,0.38756813345889396,-0.06514501421452512,-0.5006913291658733,-23.628596823147866,-12.21255269872465,-58.5625
1772315243.7615752,-24.39957848427521,6.810301254770184,-5.973926515809938,0.7457763309729613,1.2676747234610761,9.60157406850724,0.398709761733386,-0.10560405001043785,-0.4036073895236887,-23.628596823147866,-12.21255269872465,-58.5625
1772315243.7939475,-25.031175637759997,7.178591629950879,-6.605675884897619,0.6581706152428856,1.1997097958064484,9.420411492812825,0.40875687544276673,-0.08548520264214776,-0.3119776037939864,-23.628596823147866,-12.21255269872465,-58.5625
1772315243.8109057,-25.480601623971282,7.450984622999839,-7.113295396700849,0.596822907679108,1.1530996560559246,9.283124263870164,0.27695140285759157,-0.08531310148187266,-0.2279836335417593,-22.57084913163201,-18.183046381921447,-57.0
1772315243.8231966,-25.774213570748838,7.5158024770820795,-7.272152374883802,0.5252920428727209,1.1412234323235966,9.17838069977838,0.16601246094981664,-0.07568906932610452,-0.25416357232167425,-22.57084913163201,-18.183046381921447,-57.0
1772315243.8418918,-25.774213570748838,7.5158024770820795,-7.272152374883802,0.5252920428727209,1.1412234323235966,9.17838069977838,0.16601246094981664,-0.07568906932610452,-0.25416357232167425,-22.57084913163201,-18.183046381921447,-57.0
1772315243.8646946,-26.079427428590662,7.522090960914492,-7.3196102934612695,0.4780284306018177,1.1812134465319155,9.108675027937574,0.040372985215775176,-0.054761108018095465,-0.28034351110158917,-22.57084913163201,-18.183046381921447,-57.0
1772315243.9188244,-26.94491611346991,7.211761084227558,-7.353781071904801,0.4956149455874053,1.2373845924446532,9.045561123454295,-0.058971846016316234,0.05352150269126275,-0.32288591161895097,-21.422068356814332,-21.779462512100118,-58.5625
1772315243.943793,-27.496763541044164,6.773970149125037,-7.3319582708548054,0.524846811776283,1.3414622954094753,8.986833966512584,-0.16152636109515572,0.19268333755534686,-0.38069994309126315,-21.422068356814332,-21.779462512100118,-58.5625
1772315243.965749,-28.1559898816882,6.231316919774971,-7.270584263403715,0.5932647143055719,1.594485094301983,8.887539688861455,-0.1914537709974664,0.2270280068482084,-0.4461497900410505,-19.617307061365384,-22.128379287921287,-58.0625
1772315243.9975748,-28.993159428097826,5.456347083376808,-7.233661492380959,0.6731737795899293,1.8004747893083617,8.821460456274387,-0.16342759915096106,0.25768588994360175,-0.4079707126536745,-19.617307061365384,-22.128379287921287,-58.0625
1772315244.032203,-29.481596033890202,5.127142511175422,-7.3954830318708416,0.7161702623890581,1.9843585022378205,8.9179801568485,-0.1083024497608368,0.2311624945488179,-0.3239767424014474,-18.30886573596956,-22.29043652471256,-59.0
1772315244.0502226,-29.70604023000713,5.205571131749637,-7.594465458231934,0.7630664355819696,2.115012496762853,8.99224827450683,-0.13085126788373488,0.177837712967359,-0.1908953869368798,-18.30886573596956,-22.29043652471256,-59.0
1772315244.0742056,-29.888290797709008,5.392790873841118,-7.862886443976599,0.8369344680925802,2.2212846252195138,9.065088659130451,-0.13130135983590122,0.17883135728533045,-0.11671889372712078,-18.30886573596956,-22.29043652471256,-59.0
1772315244.1021738,-29.908711522562008,5.391549565033996,-7.832380321608118,0.8874730581827585,2.288960457204583,9.15370446190489,-0.20494170989545404,0.1299066249783949,-0.032724923474893676,-18.315206690235918,-23.185277875064116,-57.25
1772315244.1163096,-29.908711522562008,5.391549565033996,-7.832380321608118,0.8874730581827585,2.288960457204583,9.15370446190489,-0.20494170989545404,0.1299066249783949,-0.032724923474893676,-18.315206690235918,-23.185277875064116,-57.25
1772315244.1316986,-29.806869888176983,5.155079684426355,-7.6081669772742,0.8936821840463178,2.321575810872854,9.276234411186971,-0.2585812929498843,0.1187822068199303,0.04254240051736178,-18.315206690235918,-23.185277875064116,-57.25
1772315244.1500022,-29.637196713523057,4.907090079664493,-7.334147460583205,0.8594769046745315,2.2414525588677803,9.357776723684978,-0.31949859753658716,0.13429926441941706,0.13308135546456762,-18.315206690235918,-23.185277875064116,-57.25
1772315244.169932,-29.637196713523057,4.907090079664493,-7.334147460583205,0.8594769046745315,2.2414525588677803,9.357776723684978,-0.31949859753658716,0.13429926441941706,0.13308135546456762,-18.315206690235918,-23.185277875064116,-57.25
1772315244.2222128,-29.32341423293973,4.441993058605783,-6.893699094400247,0.8321807992329449,2.108960064262884,9.298308423716227,-0.34807573158239885,0.1656630007583643,0.1538071403320003,-16.426739332764814,-22.810148177804493,-59.25
1772315244.251041,-29.137555690736196,2.996558405107362,-6.126529865029375,0.7987801341521501,2.013886591069681,9.185140476830435,-0.2965833475926352,0.26083892405779113,-0.1407171709420428,-16.426739332764814,-22.810148177804493,-59.25
1772315244.2800279,-29.137555690736196,2.996558405107362,-6.126529865029375,0.7987801341521501,2.013886591069681,9.185140476830435,-0.2965833475926352,0.26083892405779113,-0.1407171709420428,-16.426739332764814,-22.810148177804493,-59.25
1772315244.3148193,-29.835287083670888,2.699837249316095,-5.311994584103964,0.7149092361400808,2.0218455636502664,8.939227775273451,-0.31887377548869467,-0.07857678035280609,-0.27052603405912107,-16.102624859182264,-20.193265527012848,-59.25
1772315244.3387697,-32.70332102249006,2.6755929942057803,-4.9115614938101135,0.5463520428933409,1.976073305263881,8.323985538924031,-0.24074230619000478,-0.11623439418858082,-0.16907877128695067,-16.102624859182264,-20.193265527012848,-59.25
1772315244.3553283,-34.74310741386625,2.5618530812139904,-5.217093129799723,0.34401127693277295,1.5852796794387425,7.914548703339591,0.1454557123609116,0.15210885033171773,0.09490227807719166,-16.35656428364839,-16.603190351100533,-61.0
1772315244.4036636,-34.03276669235151,2.544245554246599,-5.822723576612454,0.20935575748047175,1.3252108869029502,8.277644287357965,0.28881107510718895,0.1475883302450018,0.5345070834232635,-16.35656428364839,-16.603190351100533,-61.0
1772315244.4231846,-34.03276669235151,2.544245554246599,-5.822723576612454,0.20935575748047175,1.3252108869029502,8.277644287357965,0.28881107510718895,0.1475883302450018,0.5345070834232635,-16.35656428364839,-16.603190351100533,-61.0
1772315244.4556653,-32.690136575128214,2.8878298248247294,-6.181585554853955,0.19300959566984396,1.501142189756253,8.927383970771722,0.11126115321424747,-0.03941615157888383,0.5083271446433485,-19.15396551920358,-15.880554497219558,-64.1875
1772315244.4871814,-31.9057752459783,3.0682434107763785,-7.244333473211566,0.18213140758346316,1.6182225065237021,9.871580563235607,0.413525746987369,0.17893246601889645,0.2399827721492203,-19.15396551920358,-15.880554497219558,-64.1875
1772315244.520627,-31.9057752459783,3.0682434107763785,-7.244333473211566,0.18213140758346316,1.6182225065237021,9.871580563235607,0.413525746987369,0.17893246601889645,0.2399827721492203,-19.15396551920358,-15.880554497219558,-64.1875
1772315244.5393271,-31.577962354870348,2.799407588397158,-7.961801722711854,0.27505365771221235,1.653373444206365,10.499932848153293,0.3469637684148339,0.36553346685422206,0.1908953869368798,-22.84761872431015,-12.270470391494873,-68.5625
1772315244.5551138,-31.577962354870348,2.799407588397158,-7.961801722711854,0.27505365771221235,1.653373444206365,10.499932848153293,0.3469637684148339,0.36553346685422206,0.1908953869368798,-22.84761872431015,-12.270470391494873,-68.5625
1772315244.5901797,-31.948800096603215,2.056206346224468,-8.40482607035091,0.30120992098062416,1.48800522212587,10.637104891196246,-0.0067884284500011275,0.33223144329196336,-0.3567016658763411,-22.84761872431015,-12.270470391494873,-68.5625
1772315244.607836,-32.56154103003664,1.6014435100884268,-9.349610930613308,0.3033812101742514,1.3710533195435943,10.628038002309628,0.5476036703474535,0.4671952078622301,-0.1636246173744684,-22.815489400791858,-11.432560666900239,-70.0625
1772315244.6235301,-32.91184166288651,1.6079614441738255,-9.96535123943981,0.14942497824338596,1.2228309144812277,9.508081890502014,0.5767762255935789,-0.006982282137927877,-0.2683443724941282,-22.815489400791858,-11.432560666900239,-70.0625
1772315244.6391375,-32.91184166288651,1.6079614441738255,-9.96535123943981,0.14942497824338596,1.2228309144812277,9.508081890502014,0.5767762255935789,-0.006982282137927877,-0.2683443724941282,-22.815489400791858,-11.432560666900239,-70.0625
1772315244.6605313,-32.96119848208341,1.4584826715339594,-9.54281591919853,0.21397781903441035,0.7554935934541044,8.762763608823555,-0.3654569780701848,-0.14757852996247547,0.0,-22.815489400791858,-11.432560666900239,-70.0625
1772315244.680554,-33.130646605616256,1.44933705948105,-9.579720606264706,0.09130825975549574,0.8101357106559851,8.93913007128847,0.06259959203220071,0.02835579298647913,-0.08508480103472356,-22.203334045198286,-10.057464008254708,-71.375
1772315244.70116,-33.244944551223426,1.4530116386940566,-9.644225718363728,-0.13353983280867648,0.7816281673866057,9.056499981916396,0.01355438891307259,0.00973231223640935,-0.08399397025222712,-22.203334045198286,-10.057464008254708,-71.375
1772315244.7248127,-33.244944551223426,1.4530116386940566,-9.644225718363728,-0.13353983280867648,0.7816281673866057,9.056499981916396,0.01355438891307259,0.00973231223640935,-0.08399397025222712,-22.203334045198286,-10.057464008254708,-71.375
1772315244.7495084,-33.50292795014901,1.6070346186314879,-9.809113172717186,-0.29145516437850716,0.7809392099832323,9.158024128282706,0.09812243602128619,-0.07650320265029965,-0.10799224746714914,-22.203334045198286,-10.057464008254708,-71.375
1772315244.7815092,-33.41530358585936,1.603107819290355,-9.857366953391224,-0.3965460535083916,0.7804807165274458,9.225587313590461,0.08012855821715906,0.03988847303155382,0.06544984694978735,-23.62761075613456,-11.457362969138867,-73.75
1772315244.8067555,-33.341508297096496,1.5734510881782258,-9.732428244372132,-0.4410125708814528,0.7806960244586904,9.38093854502408,-0.019031742636679876,0.012934586249656228,-0.031634092692397225,-23.62761075613456,-11.457362969138867,-73.75
1772315244.8387065,-33.342581062032984,1.522003884006236,-9.680208202996171,-0.25121461116238314,0.880216561715503,9.66161397464412,-0.004933801357802179,0.024110634756203352,-0.022907446432425576,-22.416968020493428,-11.252042082136693,-72.0625
1772315244.8727016,-33.38468636743516,1.5335079098039406,-9.697093872230797,-0.15803193989604503,1.0195763443117665,9.774807880145243,0.03348631545408514,-0.0051895626491897575,-0.007635815477475192,-22.416968020493428,-11.252042082136693,-72.0625
1772315244.8941135,-33.38468636743516,1.5335079098039406,-9.697093872230797,-0.15803193989604503,1.0195763443117665,9.774807880145243,0.03348631545408514,-0.0051895626491897575,-0.007635815477475192,-22.416968020493428,-11.252042082136693,-72.0625
1772315244.9255621,-33.34503337519273,1.5497718363059263,-9.687591701965259,-0.105576038249506,1.2144865076183713,9.850137159797464,-0.00046730206819384495,-0.012186902940546075,0.0,-22.545909866753103,-10.9673839533521,-73.0
1772315244.9597538,-33.35000981198644,1.5370110575208569,-9.680645969982892,-0.2664347503308743,1.3142767038374374,9.77649882075201,0.008399246495937854,0.0026070912993592437,0.007635815477475192,-22.545909866753103,-10.9673839533521,-73.0
1772315245.0180588,-33.35000981198644,1.5370110575208569,-9.680645969982892,-0.2664347503308743,1.3142767038374374,9.77649882075201,0.008399246495937854,0.0026070912993592437,0.007635815477475192,-22.545909866753103,-10.9673839533521,-73.0
1772315245.051039,-33.35162259043155,1.5639752512425276,-9.631833816957812,-0.2851190377154781,1.4207129135080518,9.727493328711407,0.002343920174470446,-0.0025308410017479844,-0.013089969389957472,-22.26223780498182,-11.593631836678206,-73.25
1772315245.089079,-33.34776981212479,1.5660997244359909,-9.584548100467787,-0.27742283431073794,1.4308899779025614,9.711606279722197,-0.010386535131880733,-0.0035072752036919143,0.006544984694978736,-22.26223780498182,-11.593631836678206,-73.25
1772315245.1229894,-33.34506009081345,1.5844321879224785,-9.522329135029198,-0.26816037807403703,1.428521453475712,9.704378737797162,0.0018938282223041106,-0.0015371966837765443,-0.00545415391248228,-22.72642845151665,-10.56886257305367,-72.5625
1772315245.1616309,-33.77807353206864,1.585202193852817,-9.476860209127874,-0.26199631691692826,1.4269452269277954,9.712949336212263,-0.00586840549418987,-0.00026317112488879725,0.009817477042468103,-22.72642845151665,-10.56886257305367,-72.5625
1772315245.1839528,-34.20899432228893,1.6020792615349793,-9.431605007963588,-0.255133723845233,1.4198021010370028,9.732033420546934,-0.0008067234906939017,0.004424669224052095,0.001090830782496456,-22.944431247051533,-11.147902538115645,-73.0
1772315245.2033749,-34.20899432228893,1.6020792615349793,-9.431605007963588,-0.255133723845233,1.4198021010370028,9.732033420546934,-0.0008067234906939017,0.004424669224052095,0.001090830782496456,-22.944431247051533,-11.147902538115645,-73.0
1772315245.2208147,-34.62571367541798,1.5953220946254276,-9.38868191779599,-0.2901788155661358,1.3971053155639817,9.744733665488466,-0.0018938282223041106,0.0015371966837765443,0.013089969389957472,-22.944431247051533,-11.147902538115645,-73.0
1772315245.2381642,-34.60714068750547,1.6079346404521326,-9.35421765425926,-0.26422718457664246,1.378614396800382,9.759875760040662,0.0017241175110540826,0.006768589398522541,0.01090830782496456,-22.944431247051533,-11.147902538115645,-73.0
1772315245.2548788,-34.60714068750547,1.6079346404521326,-9.35421765425926,-0.26422718457664246,1.378614396800382,9.759875760040662,0.0017241175110540826,0.006768589398522541,0.01090830782496456,-22.944431247051533,-11.147902538115645,-73.0
1772315245.2796955,-35.01884703981312,1.6099234264013478,-9.34003410182075,-0.26523915824412253,1.35802745923416,9.769952654816871,0.00678579951455005,0.011456429747463434,0.00545415391248228,-23.286021001593046,-11.302632753627256,-73.375
1772315245.3300595,-35.30181721778393,1.6129482414114857,-9.326719920483846,-0.28937668885941586,1.3961274824664451,9.763278268894869,0.006055326321467408,0.005137932301107227,0.006544984694978736,-23.286021001593046,-11.302632753627256,-73.375
1772315245.3609488,-35.29853882449294,1.6166204400337318,-9.320132923683598,-0.30543994585000944,1.4214826223223844,9.745456092792276,0.0034310249060806553,0.0003566315385275664,0.0,-23.22810330882282,-10.52165465478954,-72.5625
1772315245.4115644,-35.42143346947007,1.6197162287612874,-9.3134389898093,-0.3252711110350489,1.43421546581797,9.733595633682752,0.00026317112488879714,-0.00586840549418987,-0.002181661564992912,-23.22810330882282,-10.52165465478954,-72.5625
1772315245.4378786,-35.91991450704956,1.6187820619289832,-9.238114552146511,-0.3232858941791335,1.4091711249099306,9.73573796575733,0.0015371966837765443,0.0018938282223041106,0.001090830782496456,-21.642330875922067,-12.204801125258474,-72.5625
1772315245.468818,-36.31538211396814,1.6176515222861332,-9.204772139980172,-0.32196475453784706,1.3925043957992491,9.753889222358143,0.001087104731610209,0.0028874725402755507,0.004363323129985824,-21.642330875922067,-12.204801125258474,-72.5625
1772315245.49085,-36.30623444362505,1.6254395947474296,-9.192407117274518,-0.32079894772800294,1.388887278100769,9.765968680863162,0.00018692082727753815,0.0048747611762184305,0.008726646259971648,-21.642330875922067,-12.204801125258474,-72.5625
1772315245.5088346,-36.30623444362505,1.6254395947474296,-9.192407117274518,-0.32079894772800294,1.388887278100769,9.765968680863162,0.00018692082727753815,0.0048747611762184305,0.008726646259971648,-21.642330875922067,-12.204801125258474,-72.5625
1772315245.528077,-36.563884914346154,1.6274307114778042,-9.18470566389076,-0.32278359554768143,1.3925742914090413,9.757281867025261,0.0025308410017479844,0.002343920174470446,0.002181661564992912,-21.635989921655714,-11.30995977490692,-75.0
1772315245.5422418,-36.563884914346154,1.6274307114778042,-9.18470566389076,-0.32278359554768143,1.3925742914090413,9.757281867025261,0.0025308410017479844,0.002343920174470446,0.002181661564992912,-21.635989921655714,-11.30995977490692,-75.0
1772315245.5594409,-36.563884914346154,1.6274307114778042,-9.18470566389076,-0.34342771110270914,1.4376871106943667,9.73143021921029,-0.0015371966837765443,-0.0018938282223041106,0.0,-21.635989921655714,-11.30995977490692,-75.0
1772315245.5802994,-36.94779339292682,1.6290330451159227,-9.176900725478484,-0.35716613939469916,1.4677091879855393,9.714226236371255,-0.00018692082727753815,-0.0048747611762184305,-0.00545415391248228,-21.635989921655714,-11.30995977490692,-75.0
1772315245.6044116,-36.96710981691938,1.6311318567665412,-9.17156974535199,-0.3541733565621689,1.4527903994207096,9.706122289680279,0.00026317112488879714,-0.00586840549418987,-0.014180800172453928,-22.66075918528025,-11.774150421441751,-72.5625
1772315245.6210377,-36.96710981691938,1.6311318567665412,-9.17156974535199,-0.3541733565621689,1.4527903994207096,9.706122289680279,0.00026317112488879714,-0.00586840549418987,-0.014180800172453928,-22.66075918528025,-11.774150421441751,-72.5625
1772315245.639314,-37.076245160581095,1.6305747632313488,-9.144951597818029,-0.3524682961553596,1.435387707939488,9.720799873928366,-0.010029903593353168,-0.006938300109772568,-0.001090830782496456,-22.66075918528025,-11.774150421441751,-72.5625
1772315245.6523776,-37.07578399361281,1.6293020669720881,-9.119838832213217,-0.345812639043972,1.4116180816980202,9.730567642286108,-0.007312141764327646,0.0002803812409163073,-0.001090830782496456,-22.66075918528025,-11.774150421441751,-72.5625
1772315245.6706123,-37.403038978707826,1.6344492440486544,-9.086218301555103,-0.31401240836545974,1.3678027133967048,9.760483764966299,0.001087104731610209,0.0028874725402755507,0.004363323129985824,-23.286021001593046,-11.302632753627256,-71.0
1772315245.6891892,-37.403038978707826,1.6344492440486544,-9.086218301555103,-0.31401240836545974,1.3678027133967048,9.760483764966299,0.001087104731610209,0.0028874725402755507,0.004363323129985824,-23.286021001593046,-11.302632753627256,-71.0
1772315245.7023165,-37.4046508748036,1.6305279489138194,-9.050807969607234,-0.2928497100807622,1.3386440752419133,9.780392610424979,-0.004144287983135788,0.006505418273633744,0.004363323129985824,-23.286021001593046,-11.302632753627256,-71.0
1772315245.7142828,-37.486381054373346,1.6312734520823298,-9.040012109079768,-0.2981423014450929,1.3214793762975818,9.790296612974036,0.004068037685524528,0.004237748396774556,0.011999138607461015,-23.286021001593046,-11.302632753627256,-71.0
1772315245.7263207,-37.486381054373346,1.6312734520823298,-9.040012109079768,-0.2981423014450929,1.3214793762975818,9.790296612974036,0.004068037685524528,0.004237748396774556,0.011999138607461015,-23.286021001593046,-11.302632753627256,-71.0
1772315245.7435265,-37.486381054373346,1.6312734520823298,-9.040012109079768,-0.3251285353200074,1.3618568611038246,9.77012672237692,0.0017241175110540826,0.006768589398522541,0.009817477042468103,-22.72642845151665,-10.56886257305367,-72.5625
1772315245.7599611,-37.578009732611676,1.63369200998886,-9.039114337015123,-0.31094990610296536,1.4069573443196284,9.743323438667703,0.00298093295391432,0.0013502758564990062,0.001090830782496456,-22.72642845151665,-10.56886257305367,-72.5625
1772315245.775187,-37.578009732611676,1.63369200998886,-9.039114337015123,-0.3015141867446901,1.4369712120943372,9.725486152771516,-0.0030743933675530886,-0.0037876564446082213,-0.009817477042468103,-22.72642845151665,-10.56886257305367,-72.5625
1772315245.7979884,-37.578009732611676,1.63369200998886,-9.039114337015123,-0.3015141867446901,1.4369712120943372,9.725486152771516,-0.0030743933675530886,-0.0037876564446082213,-0.009817477042468103,-22.72642845151665,-10.56886257305367,-72.5625
1772315245.8283136,-37.772895257377186,1.6351244801781204,-9.02735617466901,-0.30661611703613834,1.4334282563084961,9.720305861677783,0.0018938282223041106,-0.0015371966837765443,-0.002181661564992912,-22.72642845151665,-10.56886257305367,-73.0
1772315245.8511682,-37.77329232375482,1.6423341833043792,-9.015416478817077,-0.3031101965810156,1.4158350469835326,9.720203547529866,0.0018938282223041106,-0.0015371966837765443,-0.007635815477475192,-22.72642845151665,-10.56886257305367,-73.0
1772315245.8649502,-37.917205521091205,1.6381739920488583,-9.005130610126084,-0.300777045681829,1.404126962706795,9.720135458607352,-0.0005435523658051045,-0.0014437362701377754,-0.003272492347489368,-22.72642845151665,-10.56886257305367,-73.0
1772315245.879725,-37.917205521091205,1.6381739920488583,-9.005130610126084,-0.300777045681829,1.404126962706795,9.720135458607352,-0.0005435523658051045,-0.0014437362701377754,-0.003272492347489368,-22.72642845151665,-10.56886257305367,-73.0
1772315245.9055588,-37.917205521091205,1.6381739920488583,-9.005130610126084,-0.2916971794073416,1.436467864362788,9.716745034482702,0.008662417620826653,-0.0032613141948306273,-0.004363323129985824,-22.545909866753103,-10.9673839533521,-73.0
1772315245.9233036,-38.08099231666405,1.642178962824097,-8.993139967319216,-0.2947958769265597,1.453849654300237,9.714488745101267,-0.0027005517129980124,0.00596186590782864,-0.003272492347489368,-22.545909866753103,-10.9673839533521,-73.0
1772315245.9376924,-38.08099231666405,1.642178962824097,-8.993139967319216,-0.2947958769265597,1.453849654300237,9.714488745101267,-0.0027005517129980124,0.00596186590782864,-0.003272492347489368,-22.545909866753103,-10.9673839533521,-73.0
1772315245.964157,-38.08099231666405,1.642178962824097,-8.993139967319216,-0.31618138011188046,1.5080761944516008,9.712987209722325,0.006411957859994975,0.0017069073950265726,0.013089969389957472,-22.545909866753103,-10.9673839533521,-73.0
1772315245.987239,-38.14678507485502,1.6370193743137182,-8.99415038080445,-0.2989542855964378,1.4666060524233546,9.711987954700888,-0.0012740255588877469,-0.007762233716493982,0.003272492347489368,-22.72642845151665,-10.56886257305367,-73.25
1772315246.0010324,-38.14678507485502,1.6370193743137182,-8.99415038080445,-0.2989542855964378,1.4666060524233546,9.711987954700888,-0.0012740255588877469,-0.007762233716493982,0.003272492347489368,-22.72642845151665,-10.56886257305367,-73.25
1772315246.0272894,-38.29051831090479,1.6404884057714912,-8.931271203175095,-0.28748984663566546,1.4390081361553966,9.711322961646532,-0.03007250066403199,-0.007634353070800193,-0.001090830782496456,-22.72642845151665,-10.56886257305367,-73.25
1772315246.040826,-38.31512948669838,1.6325909443456204,-8.928076774767955,-0.3255666260541326,1.3999384369526378,9.730951086441234,-0.012900166017601208,0.007329351880355155,-0.032724923474893676,-22.132309891708836,-11.123100235877018,-73.0
1772315246.0544608,-38.56944839243113,1.6223911976091463,-8.929405020558026,-0.39403310466233044,1.4205040334610193,9.744013384231588,-0.008025404841382778,0.007142431053077616,-0.08072147790473774,-22.132309891708836,-11.123100235877018,-73.0
1772315246.0705867,-38.56944839243113,1.6223911976091463,-8.929405020558026,-0.39403310466233044,1.4205040334610193,9.744013384231588,-0.008025404841382778,0.007142431053077616,-0.08072147790473774,-22.132309891708836,-11.123100235877018,-73.0
1772315246.0856912,-38.70961275927669,1.5995415690894756,-8.924356753341447,-0.4788166968307372,1.5045597057449658,9.70252952188585,-0.014548033231044031,-0.010182404188575687,-0.15162547876700738,-22.132309891708836,-11.123100235877018,-73.0
1772315246.1006331,-38.99121240598259,1.5417081641430916,-8.906035387951542,-0.5947478619482894,1.5702650461249827,9.674922474899867,-0.03457342018569535,0.0023020901089142046,-0.2977968036215325,-22.132309891708836,-11.123100235877018,-72.1875
1772315246.1140728,-38.99121240598259,1.5417081641430916,-8.906035387951542,-0.5947478619482894,1.5702650461249827,9.674922474899867,-0.03457342018569535,0.0023020901089142046,-0.2977968036215325,-22.132309891708836,-11.123100235877018,-72.1875
1772315246.1333807,-39.493745007156406,1.4227797538974734,-8.854200715636198,-0.7812543432460682,1.6121960984903527,9.790354761814392,-0.08292998017729707,0.027101367992643958,-0.45705809786601503,-22.132309891708836,-11.123100235877018,-72.1875
1772315246.1527157,-40.33950516096873,1.0970510612551234,-8.724651826000445,-0.9175606525973492,1.6345797869815322,9.867173659292874,-0.12765138431951306,0.07031258584963723,-0.5388704065532492,-22.132309891708836,-11.123100235877018,-72.1875
1772315246.166219,-41.130022793816686,0.85588622377486,-8.623991033584405,-0.9627230715555966,1.5489221635727173,9.831322873051189,-0.1514644277187726,0.0858714735146802,-0.5519603759432067,-23.15707915533337,-11.58729088241185,-72.5625
1772315246.1857014,-41.130022793816686,0.85588622377486,-8.623991033584405,-0.9627230715555966,1.5489221635727173,9.831322873051189,-0.1514644277187726,0.0858714735146802,-0.5519603759432067,-23.15707915533337,-11.58729088241185,-72.5625
1772315246.2081912,-41.72982405193931,0.6618741604958255,-8.548368132206198,-0.9246487083590015,1.511761756857864,9.777358569920995,-0.08868771514182065,0.042456124714381885,-0.5650503453331642,-23.15707915533337,-11.58729088241185,-72.5625
1772315246.2236004,-42.8115497302258,0.48361467230455185,-8.497813962002224,-0.7949555872752216,1.4755450730396493,9.687924141691505,-0.018072518550763455,-0.012976416315212467,-0.557414529855689,-23.15707915533337,-11.58729088241185,-72.5625
1772315246.2451875,-43.39684838946366,0.4536660436246931,-8.517305995030206,-0.6658588359159835,1.3569837211987414,9.604990746801569,0.04678494307577015,-0.0530542006230689,-0.5083271446433485,-23.498668909874883,-11.74202109792346,-73.375
1772315246.285092,-44.20693596494353,0.5637844056544971,-8.594250301453828,-0.56695102718907,1.2656075333675159,9.549799498929039,0.12595188675798774,-0.12736598369412064,-0.421060682043632,-23.498668909874883,-11.74202109792346,-73.375
1772315246.3121107,-44.20693596494353,0.5637844056544971,-8.594250301453828,-0.56695102718907,1.2656075333675159,9.549799498929039,0.12595188675798774,-0.12736598369412064,-0.421060682043632,-23.498668909874883,-11.74202109792346,-73.375
1772315246.3603086,-46.51039958374926,1.2788919469878708,-9.038633203654035,-0.48284649116165235,1.213079138790878,9.513070339996506,0.1990807142347654,-0.19363515180776206,-0.4734205596034619,-23.008689894088114,-12.823721987304916,-75.0
1772315246.3874884,-46.51039958374926,1.2788919469878708,-9.038633203654035,-0.48284649116165235,1.213079138790878,9.513070339996506,0.1990807142347654,-0.19363515180776206,-0.4734205596034619,-23.008689894088114,-12.823721987304916,-75.0
1772315246.4303148,-47.42244730823277,1.2266413891942767,-8.9846199339438,-0.49560123952582663,1.3379506015948115,9.488627495018495,-0.16671831419337058,0.01908576343378747,-0.3523383427463553,-23.008689894088114,-12.823721987304916,-75.0
1772315246.5294602,-50.99375092493658,0.9952258732862769,-8.977074526148888,-0.3809008338650004,1.5053348882410564,9.822689784886563,-0.01889645215748487,-0.021732294349677887,-0.24434609527920614,-26.65231394253091,-14.474177619428765,-78.0625
1772315246.5739934,-50.91878735892776,0.9304948266864382,-9.010416866902096,-0.22474943746877332,1.59502197492474,9.989045607161112,0.013114097243432545,0.08737185951737667,0.06981317007977318,-25.676724731197115,-16.022041289371664,-78.1875
1772315246.6203778,-50.91878735892776,0.9304948266864382,-9.010416866902096,-0.22474943746877332,1.59502197492474,9.989045607161112,0.013114097243432545,0.08737185951737667,0.06981317007977318,-25.676724731197115,-16.022041289371664,-78.1875
1772315246.6511,-50.912521286504926,0.9146835634560049,-9.077427063888196,-0.12083242749247514,1.6547077292423276,9.825454388568337,0.03978019295091261,0.04436477260368844,0.05781403147231216,-25.676724731197115,-16.022041289371664,-78.1875
1772315246.688542,-50.77859792438224,0.9343493581422105,-9.145377995650541,-0.058578016254096914,1.7096633438340156,9.716586260028496,0.0628627631570895,0.02248738749228926,0.037088246604879506,-25.750707085726486,-17.2219742505067,-77.75
1772315246.7502227,-50.84458113434941,0.9393111519867859,-9.10927690400968,-0.25245250154775034,1.5441702242726993,9.697657523939021,0.0038639067422194806,-0.013817560037961389,-0.020725784867432664,-25.750707085726486,-17.2219742505067,-77.75
1772315246.7858253,-50.87556794871994,0.9595635301005223,-9.091999721413332,-0.1836472791088278,1.5566966765629768,9.685060661519314,-0.013460928499433823,-0.007294931648300136,-0.011999138607461015,-26.189109363009383,-16.254136612639083,-77.375
1772315246.8153572,-50.915403127994075,0.952545077227452,-9.062619595699358,-0.2808372162855407,1.467216929011888,9.68671292541713,0.002080749049581649,0.0033375644924418858,0.015271630954950384,-26.189109363009383,-16.254136612639083,-77.375
1772315246.8416686,-50.915403127994075,0.952545077227452,-9.062619595699358,-0.2808372162855407,1.467216929011888,9.68671292541713,0.002080749049581649,0.0033375644924418858,0.015271630954950384,-26.189109363009383,-16.254136612639083,-77.375
1772315246.898907,-50.94048336314701,0.950543194543244,-9.062690321755307,-0.21167823678492514,1.5013443993484683,9.697847823706088,-0.014998125183210368,-0.009188759870604246,-0.02945243112740431,-25.74972101871318,-16.466784520920918,-78.5625
1772315246.917012,-50.94001072074009,0.9450262316321956,-9.058426937806852,-0.24331655937045474,1.4117587334531774,9.72867375608366,0.011549890161102203,-0.004348418926440835,-0.001090830782496456,-25.74972101871318,-16.466784520920918,-78.5625
1772315246.9320912,-50.94001072074009,0.9450262316321956,-9.058426937806852,-0.24331655937045474,1.4117587334531774,9.72867375608366,0.011549890161102203,-0.004348418926440835,-0.001090830782496456,-25.74972101871318,-16.466784520920918,-78.5625
1772315246.958833,-50.93022970511789,0.9457904500544366,-9.058246344147884,-0.2432229840689819,1.4351659546746176,9.749188069732707,-0.011456429747463432,0.0067857995145500505,0.011999138607461015,-25.74972101871318,-16.466784520920918,-78.5625
1772315246.9888103,-50.928343059085414,0.9237206749168061,-9.041195101987592,-0.2643092363100786,1.367717717784395,9.762840116306249,-0.006488208157606233,0.009036259275381727,0.009817477042468103,-25.74972101871318,-16.466784520920918,-78.0625
1772315247.031736,-51.133883991487515,0.8661136713858869,-8.993151377261851,-0.3364175175685916,1.3699709207441366,9.788650959334186,-0.08918943744206952,0.003908127256800792,-0.17998707911191522,-25.74972101871318,-16.466784520920918,-78.0625
1772315247.0579708,-52.22206819784166,0.3164685293901375,-8.75066131750152,-0.5629306681166268,1.4007720904592187,9.845969127531102,-0.21017310261020006,0.13352457071175308,-0.6032294227205401,-26.490818220566428,-17.557223050781857,-78.5625
1772315247.0820343,-53.52737610370221,-0.34593636456211174,-8.434332844948965,-0.767501984448589,1.5401061370827809,9.897494175009536,-0.2792855227495357,0.16448984544661652,-0.8323038870447959,-26.490818220566428,-17.557223050781857,-78.5625
1772315247.100996,-53.52737610370221,-0.34593636456211174,-8.434332844948965,-0.767501984448589,1.5401061370827809,9.897494175009536,-0.2792855227495357,0.16448984544661652,-0.8323038870447959,-26.490818220566428,-17.557223050781857,-78.5625
1772315247.124675,-54.5247958684589,-0.929301006869713,-8.15714201983971,-0.9158302397176892,1.6273104301900483,9.97526997072909,-0.3994796745429999,0.27650107241899924,-0.9915651812892785,-26.490818220566428,-17.557223050781857,-78.5625
1772315247.1448364,-56.855257189816726,-2.3120482906381903,-7.500312069841292,-1.0268876943325131,1.5585656423868552,10.02702889396789,-0.4328036891193362,0.33685020469036825,-1.1486448139687682,-25.570188500962942,-17.62049563080513,-77.75
1772315247.1575108,-56.855257189816726,-2.3120482906381903,-7.500312069841292,-1.0268876943325131,1.5585656423868552,10.02702889396789,-0.4328036891193362,0.33685020469036825,-1.1486448139687682,-25.570188500962942,-17.62049563080513,-77.75
1772315247.1810455,-58.2132670260222,-3.0355318795011894,-7.176609227059028,-0.9903760206370492,1.2690501648030983,9.97784608651527,-0.3669772031243599,0.347507320780639,-1.325359400733194,-25.570188500962942,-17.62049563080513,-77.75
1772315247.2010896,-60.4755073879436,-3.911303932030421,-6.767995981973363,-0.9092542583984949,0.9185057718445159,9.781205003904859,-0.22467691532666276,0.22634916400320831,-1.4388058021128254,-25.570188500962942,-17.62049563080513,-77.75
1772315247.218284,-60.4755073879436,-3.911303932030421,-6.767995981973363,-0.9092542583984949,0.9185057718445159,9.781205003904859,-0.22467691532666276,0.22634916400320831,-1.4388058021128254,-25.570188500962942,-17.62049563080513,-77.75
1772315247.2356234,-62.74233837791825,-4.494776917378263,-6.513413574104335,-0.8262308238477303,0.6616527685860203,9.630271889808535,-0.08481400811707487,0.10528446763941637,-1.3406310316881445,-23.292923470686194,-16.588960860727724,-79.75
1772315247.2505426,-64.80985091500486,-4.7411316819178255,-6.293976183059953,-0.7862150674136238,0.48381876608175256,9.509756918166874,0.021877385111399188,0.02308257020617689,-1.2446379228284563,-23.292923470686194,-16.588960860727724,-79.75
1772315247.264477,-66.0580264173721,-4.804359321240816,-6.237125002643151,-0.8449033347426296,0.32682551474913296,9.449626221023708,0.04998721708901703,-0.020468069073316428,-1.1377365061438036,-23.292923470686194,-16.588960860727724,-79.75
1772315247.2854302,-66.0580264173721,-4.804359321240816,-6.237125002643151,-0.8449033347426296,0.32682551474913296,9.449626221023708,0.04998721708901703,-0.020468069073316428,-1.1377365061438036,-23.292923470686194,-16.588960860727724,-79.75
1772315247.2990897,-67.29228913333972,-4.836819413523737,-6.200510953262656,-0.9008619756370981,0.21101973966527926,9.493237706461814,0.103651420092976,-0.05962845936081268,-1.0962849364089382,-23.816017877004562,-17.100359425526687,-81.0
1772315247.311445,-68.62494703543706,-4.917687181023635,-6.123662675323567,-0.9381018260533899,0.133952289982245,9.589162896995049,0.053290361349403896,-0.048909912639933106,-1.1617347833587257,-23.816017877004562,-17.100359425526687,-81.0
1772315247.3242826,-68.62494703543706,-4.917687181023635,-6.123662675323567,-0.9381018260533899,0.133952289982245,9.589162896995049,0.053290361349403896,-0.048909912639933106,-1.1617347833587257,-23.816017877004562,-17.100359425526687,-81.0
1772315247.3498845,-70.13334593007272,-5.066686056235917,-6.046029695040893,-0.9547941246211608,0.0780173564526177,9.801336622572391,0.02699069746297769,0.06731205233067034,-1.5489797111449675,-23.131427748721713,-19.672006292080816,-79.75
1772315247.3794434,-71.80927692103444,-5.281929445809162,-5.94486661344748,-0.9547941246211608,0.0780173564526177,9.801336622572391,0.02699069746297769,0.06731205233067034,-1.5489797111449675,-23.131427748721713,-19.672006292080816,-79.75
1772315247.4055035,-74.48759886596098,-5.672359539501909,-5.751418020502159,-0.9385217168338474,0.07252505177096934,9.794199283976235,0.016901753688040765,0.08429746614982359,-1.6220653735722301,-23.131427748721713,-19.672006292080816,-79.75
1772315247.4286537,-78.04101176631028,-6.0000619144780325,-5.507209565661622,-0.9605845349029699,0.10905526138165365,9.782759241455151,0.05632292465140074,-0.008017995007881562,-1.5991579271398044,-22.861423662496446,-22.84312660569581,-81.75
1772315247.4432755,-78.04101176631028,-6.0000619144780325,-5.507209565661622,-0.9605845349029699,0.10905526138165365,9.782759241455151,0.05632292465140074,-0.008017995007881562,-1.5991579271398044,-22.861423662496446,-22.84312660569581,-81.75
1772315247.4580383,-79.832157537436,-6.13986875722011,-5.41111419215101,-1.069726647196897,0.09057827976331237,9.775146020951018,0.09282459329145522,0.014503812716462724,-1.610066234964769,-22.861423662496446,-22.84312660569581,-81.75
1772315247.4740386,-82.49207451722037,-6.382304036329606,-5.190001070201191,-1.1175151906727965,0.02343457232089094,9.806875736531277,0.0424463244318556,0.012041812178824777,-1.5915221116623293,-22.861423662496446,-22.84312660569581,-81.75
1772315247.4885333,-82.49207451722037,-6.382304036329606,-5.190001070201191,-1.1175151906727965,0.02343457232089094,9.806875736531277,0.0424463244318556,0.012041812178824777,-1.5915221116623293,-22.861423662496446,-22.84312660569581,-81.75
1772315247.5032902,-84.30624870651731,-6.506488646857844,-4.955635980405692,-1.1061383492033285,-0.02739575573740816,9.888203518537539,-0.020017977121150096,-0.050980861406988466,-1.6384278353096768,-22.977259048036892,-24.405082803371243,-83.0
1772315247.5177891,-84.30624870651731,-6.506488646857844,-4.955635980405692,-1.1061383492033285,-0.02739575573740816,9.888203518537539,-0.020017977121150096,-0.050980861406988466,-1.6384278353096768,-22.977259048036892,-24.405082803371243,-83.0
1772315247.5352488,-86.99149079570735,-6.0680439902270935,-5.263137572128894,-1.0431992755118569,-0.06184875359053324,9.942326248971856,-0.03611300731849696,-0.13970299678086415,-1.5729779883598896,-22.977259048036892,-24.405082803371243,-83.0
1772315247.5534623,-88.68658999545286,-6.541705892083919,-4.176867028002697,-0.93961812046606,-0.11558704165600701,9.888026305387756,-0.06670444039880531,-0.19906589456776297,-1.4671674024577332,-22.977259048036892,-24.405082803371243,-83.0
1772315247.5706673,-88.68658999545286,-6.541705892083919,-4.176867028002697,-0.93961812046606,-0.11558704165600701,9.888026305387756,-0.06670444039880531,-0.19906589456776297,-1.4671674024577332,-22.977259048036892,-24.405082803371243,-83.0
1772315247.5888503,-91.06495994939282,-6.2762350078580615,-3.661069148519189,-0.7609910537067509,-0.1016606459507107,9.815094070722138,-0.03243841185258007,-0.29850657666251823,-1.4028083862904424,-22.177819601226904,-26.169963201835724,-81.375
1772315247.6028197,-93.28369025149992,-5.7996462125311075,-3.207940095487531,-0.7022740729318966,0.056627647590042435,9.719726919356141,0.03325039321417615,-0.3932938386403876,-1.31117860056074,-22.177819601226904,-26.169963201835724,-81.375
1772315247.6229467,-94.58703155191735,-5.493015325692144,-2.9638219534942616,-0.7556746322998145,0.3661212572257179,9.703092709345425,0.05075473944960577,-0.33147635014935206,-1.1213740444063567,-22.177819601226904,-26.169963201835724,-81.375
1772315247.640366,-94.58703155191735,-5.493015325692144,-2.9638219534942616,-0.7556746322998145,0.3661212572257179,9.703092709345425,0.05075473944960577,-0.33147635014935206,-1.1213740444063567,-22.177819601226904,-26.169963201835724,-81.375
1772315247.6528258,-95.73474195970121,-5.220400026792298,-2.8152162994823673,-0.8800451507672201,0.5979482478434334,9.645191264497123,0.09696410037654088,-0.2722241228921195,-0.9752027195518317,-22.699927940531964,-25.926172037048904,-81.75
1772315247.6654453,-96.69407937239518,-4.983825472885156,-2.7610224320210808,-0.9628123414975558,0.7522265204223547,9.589932941215501,0.1395727256861453,-0.20502274109111546,-0.8137597637423561,-22.699927940531964,-25.926172037048904,-81.75
1772315247.6809845,-97.49436131002007,-4.745070149199523,-2.7427578753446924,-0.8498130753354142,0.6702996506106982,9.526398250688944,0.13919888403159023,-0.21477226344355232,-0.6632251157578453,-22.699927940531964,-25.926172037048904,-81.75
1772315247.6975746,-97.49436131002007,-4.745070149199523,-2.7427578753446924,-0.8498130753354142,0.6702996506106982,9.526398250688944,0.13919888403159023,-0.21477226344355232,-0.6632251157578453,-22.699927940531964,-25.926172037048904,-81.75
1772315247.710529,-98.12060331209604,-4.498383378469581,-2.756664142396303,-0.6553622356728055,0.5632990753114343,9.510877517531071,0.15455364075332814,-0.2090145284790287,-0.5148721293383273,-23.266847511888024,-28.309973297559825,-81.25
1772315247.7245376,-98.6216648757958,-4.2075055450154,-2.7076728401542116,-0.5015807151125117,0.5031333046393756,9.59086665909008,0.11050127917358596,-0.2756723579142277,-0.421060682043632,-23.266847511888024,-28.309973297559825,-81.25
1772315247.7377222,-98.6216648757958,-4.2075055450154,-2.7076728401542116,-0.5015807151125117,0.5031333046393756,9.59086665909008,0.11050127917358596,-0.2756723579142277,-0.421060682043632,-23.266847511888024,-28.309973297559825,-81.25
1772315247.7556112,-99.24762205643778,-3.674724264459221,-2.5496611328244123,-0.38257240352155997,0.5073668761501794,9.777903007553117,0.06744256191181519,-0.3418800953972603,-0.3665191429188092,-23.266847511888024,-28.309973297559825,-81.25
1772315247.7686367,-99.24762205643778,-3.674724264459221,-2.5496611328244123,-0.38257240352155997,0.5073668761501794,9.777903007553117,0.06744256191181519,-0.3418800953972603,-0.3665191429188092,-23.266847511888024,-28.309973297559825,-81.25
1772315247.7929587,-99.57060787892868,-3.303273137536869,-2.400944026042377,-0.29592202001444506,0.7045187836715272,9.902373608122357,0.034278457764202616,-0.3664826521711862,-0.2552544031041707,-23.44736609665157,-27.911451917261395,-80.1875
1772315247.808106,-99.90298664974434,-2.8174638524423505,-2.170246982149948,-0.22877653143689788,0.887755403075017,9.861438269202656,-0.007614514019321603,-0.3004348251168773,-0.16689710972195776,-23.44736609665157,-27.911451917261395,-80.1875
1772315247.8241644,-99.90298664974434,-2.8174638524423505,-2.170246982149948,-0.22877653143689788,0.887755403075017,9.861438269202656,-0.007614514019321603,-0.3004348251168773,-0.16689710972195776,-23.44736609665157,-27.911451917261395,-80.1875
1772315247.837672,-100.20676148093747,-2.21377552573578,-2.119049515396162,-0.13229155864134914,1.033161399844955,9.834196258429293,0.0011757842471988307,-0.2748976642065637,-0.1734420944169365,-23.44736609665157,-27.911451917261395,-80.1875
1772315247.8606532,-100.42405414463832,-1.9098371346328094,-2.0090063909902907,-0.06256092859624993,1.11773913694242,9.8127218928655,0.033107692901479926,-0.2951616023365751,-0.17889624832941878,-24.35728604174896,-27.568876095706575,-79.75
1772315247.8799284,-100.42405414463832,-1.9098371346328094,-2.0090063909902907,-0.06256092859624993,1.11773913694242,9.8127218928655,0.033107692901479926,-0.2951616023365751,-0.17889624832941878,-24.35728604174896,-27.568876095706575,-79.75
1772315247.8981612,-100.67598338117945,-1.4291063078726318,-1.8155028265407391,0.034286910145506805,1.0059147158853399,9.805121165881816,0.015748437427771603,-0.3150000684639489,-0.13853550937704992,-24.35728604174896,-27.568876095706575,-79.75
1772315247.9160607,-100.7882053651351,-1.1159726391274714,-1.7373323356745647,0.07740848840924677,0.9218351355319847,9.766611849906663,0.04937984364357804,-0.2782106087494769,-0.0818123086872342,-24.35728604174896,-27.568876095706575,-79.75
1772315247.92912,-100.7882053651351,-1.1159726391274714,-1.7373323356745647,0.07740848840924677,0.9218351355319847,9.766611849906663,0.04937984364357804,-0.2782106087494769,-0.0818123086872342,-24.35728604174896,-27.568876095706575,-79.75
1772315247.953931,-101.06108154933503,-0.4732266373643346,-1.6764133451654601,0.048400452211371306,0.998197065735602,9.718358256102796,0.09916532023831508,-0.17662272759005498,-0.11126473981463851,-24.75580742204739,-27.74939468047012,-78.0625
1772315247.971957,-101.06108154933503,-0.4732266373643346,-1.6764133451654601,0.048400452211371306,0.998197065735602,9.718358256102796,0.09916532023831508,-0.17662272759005498,-0.11126473981463851,-24.75580742204739,-27.74939468047012,-78.0625
1772315247.9894052,-101.27665171151818,-0.27255807471951055,-1.7202487131089168,0.003073930655093037,1.0366817503655796,9.812570565580835,0.061128845363509134,-0.06092710486922916,-0.13308135546456762,-24.75580742204739,-27.74939468047012,-78.0625
1772315248.013112,-101.45423842571076,-0.3157873752638846,-1.7327788852203154,-0.03875826236734171,1.0313016242265798,9.89868358706925,-0.034674290432835334,0.06333006522528335,-0.09926560120717749,-26.504623158752725,-28.129879264982794,-75.25
1772315248.0294495,-101.45423842571076,-0.3157873752638846,-1.7327788852203154,-0.03875826236734171,1.0313016242265798,9.89868358706925,-0.034674290432835334,0.06333006522528335,-0.09926560120717749,-26.504623158752725,-28.129879264982794,-75.25
1772315248.0427663,-101.53951059412927,-0.4671139619014975,-1.7462766351732442,-0.05951487045703996,0.9391219947173299,9.955990840924311,-0.04250297416441429,0.1519931604175753,-0.0719948316447661,-26.504623158752725,-28.129879264982794,-75.25
1772315248.0549376,-101.58308729054812,-0.6835666348052108,-1.7540877121436524,-0.06228624435937187,0.8534008220698227,9.810147034298318,-0.07921618358127502,0.17488139996297342,-0.030543261909900768,-26.504623158752725,-28.129879264982794,-75.25
1772315248.0678618,-101.58308729054812,-0.6835666348052108,-1.7540877121436524,-0.06228624435937187,0.8534008220698227,9.810147034298318,-0.07921618358127502,0.17488139996297342,-0.030543261909900768,-26.504623158752725,-28.129879264982794,-75.25
1772315248.0837767,-101.62712248225819,-0.8623974876520766,-1.773954185259362,-0.0031889154255165942,0.8239591315282914,9.713089610170787,-0.03220989944617232,0.15306305503315798,-0.05890486225480862,-25.717304105648655,-27.292955607401467,-75.75
1772315248.0956528,-101.72434243578839,-1.020017525675886,-1.8212538648529697,0.14255375254011513,0.8856191016064769,9.631773420079787,-0.01741590520626701,0.1441965064690263,-0.09708393964218458,-25.717304105648655,-27.292955607401467,-75.75
1772315248.1075478,-101.72434243578839,-1.020017525675886,-1.8212538648529697,0.14255375254011513,0.8856191016064769,9.631773420079787,-0.01741590520626701,0.1441965064690263,-0.09708393964218458,-25.717304105648655,-27.292955607401467,-75.75
1772315248.122293,-101.86837170329687,-1.1816524095943806,-1.8615737237026753,0.26483311442096097,1.000537356947672,9.661286196618573,-0.023827863066261976,0.14248959907399972,-0.11999138607461016,-25.717304105648655,-27.292955607401467,-75.75
1772315248.1373184,-102.09917016317925,-1.3728763977824434,-1.9224173718582571,0.32412482997297587,1.1257674900022778,9.73110329533561,-0.013933249952103814,0.1840947797831064,-0.22252947962927702,-24.511030190247265,-26.472096611579282,-75.25
1772315248.1584406,-102.35075512143621,-1.6022527967075275,-2.0010757918290767,0.2934999099372616,1.1773612335076562,9.777565794623703,-0.012701054458772298,0.2289612746870437,-0.23452861823673804,-24.511030190247265,-26.472096611579282,-75.25
1772315248.1741414,-102.35075512143621,-1.6022527967075275,-2.0010757918290767,0.2934999099372616,1.1773612335076562,9.777565794623703,-0.012701054458772298,0.2289612746870437,-0.23452861823673804,-24.511030190247265,-26.472096611579282,-75.25
1772315248.2040923,-102.6784226599112,-2.0587967098511957,-2.1273774512559327,0.1273798444224318,1.1199744965807372,9.811831180587124,-0.03464488958525646,0.29326777411427096,-0.19416787928436915,-24.511030190247265,-26.472096611579282,-75.25
1772315248.2249517,-103.05394910055426,-2.6208132552420227,-2.3559473133131115,0.004640467043517516,1.0762633057502988,9.821253965347061,-0.03059406201575944,0.284324975252528,-0.1810779098944117,-23.389448403881342,-27.130473818423678,-75.0
1772315248.2392507,-103.05394910055426,-2.6208132552420227,-2.3559473133131115,0.004640467043517516,1.0762633057502988,9.821253965347061,-0.03059406201575944,0.284324975252528,-0.1810779098944117,-23.389448403881342,-27.130473818423678,-75.0
1772315248.252336,-103.19163592139108,-2.8463388293302043,-2.4235810503279294,-0.0893878751818833,0.9203957258083407,9.827524723345398,-0.0050839115039996215,0.1857082267644942,-0.11344640137963143,-23.389448403881342,-27.130473818423678,-75.0
1772315248.2657914,-103.26546435262001,-2.9547833583991703,-2.5054830672978827,-0.1671980983943775,0.8097663944401351,9.79824672567114,0.04526734695704619,0.09834377708061876,-0.05890486225480862,-23.389448403881342,-27.130473818423678,-75.0
1772315248.2802024,-103.26546435262001,-2.9547833583991703,-2.5054830672978827,-0.1671980983943775,0.8097663944401351,9.79824672567114,0.04526734695704619,0.09834377708061876,-0.05890486225480862,-23.389448403881342,-27.130473818423678,-75.0
1772315248.293381,-103.26522163183043,-2.949682280983069,-2.6433748353604947,-0.1671980983943775,0.8097663944401351,9.79824672567114,0.13491428618478327,0.02997664980136815,0.020725784867432664,-22.422596833027033,-27.447261270726564,-75.75
1772315248.3057144,-103.16311401779544,-2.8481542246662603,-2.8154306921306276,-0.24611707089689402,0.7311960580411003,9.728585869665794,0.1910749099584352,-0.03320091482869269,0.11999138607461016,-22.422596833027033,-27.447261270726564,-75.75
1772315248.317676,-103.16311401779544,-2.8481542246662603,-2.8154306921306276,-0.24611707089689402,0.7311960580411003,9.728585869665794,0.1910749099584352,-0.03320091482869269,0.11999138607461016,-22.422596833027033,-27.447261270726564,-75.75
1772315248.3334296,-102.97478279199106,-2.6723559783338167,-3.024144350569749,-0.33176251625920433,0.7520383536248076,9.682227348156985,0.23489613019631855,-0.07442484404974307,0.19198621771937624,-22.422596833027033,-27.447261270726564,-75.75
1772315248.3567085,-102.61859048219743,-2.316008679493395,-3.3049036233548756,-0.38542491792346606,0.7747633124715404,9.718278504097878,0.22057684785810827,-0.11683674824954368,0.23234695667174513,-21.900488493721973,-27.69105243551338,-75.375
1772315248.378554,-102.61859048219743,-2.316008679493395,-3.3049036233548756,-0.38542491792346606,0.7747633124715404,9.718278504097878,0.22057684785810827,-0.11683674824954368,0.23234695667174513,-21.900488493721973,-27.69105243551338,-75.375
1772315248.4048107,-102.2771381296259,-1.8990286411300554,-3.4828850650730465,-0.38079304155257027,0.9440357546793599,9.789101709561214,0.19242279536590914,-0.17629310645008123,0.2181661564992912,-21.900488493721973,-27.69105243551338,-75.375
1772315248.4218726,-101.95417996002158,-1.5074287901078596,-3.483147746379236,-0.3624751677422929,1.063585872143373,9.943277336284241,0.05398402386140645,-0.20906376837808618,0.2083486794568231,-23.13790566562835,-28.59463142634442,-75.25
1772315248.4357967,-101.95417996002158,-1.5074287901078596,-3.483147746379236,-0.3624751677422929,1.063585872143373,9.943277336284241,0.05398402386140645,-0.20906376837808618,0.2083486794568231,-23.13790566562835,-28.59463142634442,-75.25
1772315248.4546251,-101.60867482326964,-1.1881977856796784,-3.3380628006289297,-0.3096846722559236,1.0697285599475952,10.04587949361382,-0.014075711778374033,-0.20157211561998223,0.2203478180642841,-23.13790566562835,-28.59463142634442,-75.25
1772315248.4762132,-101.36693010256072,-1.0415123797466312,-3.213866439628189,-0.22900527994443212,0.9732627320054754,10.067328519272985,-0.05896682663184007,-0.15005511168068986,0.22689280275926285,-23.13790566562835,-28.59463142634442,-75.25
1772315248.499514,-100.97241380005866,-0.8600219287740092,-3.0900382152765418,-0.1595582035777405,0.8904967037749604,9.99797481356486,-0.04078363755141033,-0.12146076751885067,0.2454369260617026,-23.55051957365931,-27.68372541423372,-75.75
1772315248.5140853,-100.69052028381873,-0.7456639108937153,-3.115533810166484,-0.08287112637659012,0.8492192326882394,9.77452977665983,0.06609706695336634,-0.058676645108397485,0.2617993877991494,-23.55051957365931,-27.68372541423372,-75.75
1772315248.526767,-100.69052028381873,-0.7456639108937153,-3.115533810166484,-0.08287112637659012,0.8492192326882394,9.77452977665983,0.06609706695336634,-0.058676645108397485,0.2617993877991494,-23.55051957365931,-27.68372541423372,-75.75
1772315248.548712,-100.42325868832322,-0.6484790818595451,-3.2439011694109063,0.05710186171931668,0.8767252942861801,9.542201807961158,0.15291796427143667,-0.009769122917489445,0.23343778745424157,-23.55051957365931,-27.68372541423372,-75.75
1772315248.5655613,-100.09460865018025,-0.5821329725812631,-3.5794403687420515,0.13092896709541357,0.9376894241320765,9.387590140065653,0.2051826515198392,0.05462103664085032,0.20180369476184434,-24.472135360276106,-28.37564256379623,-75.375
1772315248.5837402,-100.09460865018025,-0.5821329725812631,-3.5794403687420515,0.13092896709541357,0.9376894241320765,9.387590140065653,0.2051826515198392,0.05462103664085032,0.20180369476184434,-24.472135360276106,-28.37564256379623,-75.375
1772315248.5997026,-99.90392488071664,-0.6167831185894981,-3.8631384758921485,0.1538355283476158,1.0361549364727711,9.405121823670187,0.21407621048252468,0.15924148110226904,0.15817046346198613,-24.472135360276106,-28.37564256379623,-75.375
1772315248.6136487,-99.90392488071664,-0.6167831185894981,-3.8631384758921485,0.1538355283476158,1.0361549364727711,9.405121823670187,0.21407621048252468,0.15924148110226904,0.15817046346198613,-24.472135360276106,-28.37564256379623,-75.375
1772315248.6376834,-99.73084300206214,-0.742380888509587,-4.258635906537069,0.12032627113183514,1.0795988011739452,9.540558096438085,0.15867067985148411,0.17845273473272522,0.07090400086226964,-24.472135360276106,-28.37564256379623,-75.375
1772315248.6510007,-99.67901005030717,-0.8933199833026875,-4.5381930266128245,0.09745302850433349,1.0935613991425785,9.670830763530656,0.10833424105744076,0.13888647300764395,-0.003272492347489368,-24.69986186330378,-28.47879604080397,-75.375
1772315248.6638215,-99.67901005030717,-0.8933199833026875,-4.5381930266128245,0.09745302850433349,1.0935613991425785,9.670830763530656,0.10833424105744076,0.13888647300764395,-0.003272492347489368,-24.69986186330378,-28.47879604080397,-75.375
1772315248.6826448,-99.67080702616883,-0.9830608787257318,-4.69704461368559,0.06079601235100601,1.0123534666358527,9.757525768239718,0.09847404817533759,0.1236423868155723,0.003272492347489368,-24.69986186330378,-28.47879604080397,-75.375
1772315248.6996422,-99.6173867191974,-1.071478432110643,-4.959861255048527,0.06079601235100601,1.0123534666358527,9.757525768239718,0.1270856024532043,0.11863974499366008,0.022907446432425576,-24.69986186330378,-28.47879604080397,-75.375
1772315248.7131243,-99.52918824327666,-1.0995506763174225,-5.183914957267532,-0.00930505789401903,0.9376069004893143,9.701486527378083,0.14686502839899435,0.12520420344887756,0.06544984694978735,-22.983175450116736,-28.936221180885934,-76.1875
1772315248.72697,-99.52918824327666,-1.0995506763174225,-5.183914957267532,-0.00930505789401903,0.9376069004893143,9.701486527378083,0.14686502839899435,0.12520420344887756,0.06544984694978735,-22.983175450116736,-28.936221180885934,-76.1875
1772315248.740251,-99.39408288589327,-1.118031522681701,-5.436354790847249,-0.08694779091997286,0.8995317949498003,9.63074192151081,0.17749829154485894,0.14746284004833304,0.1090830782496456,-22.983175450116736,-28.936221180885934,-76.1875
1772315248.7544174,-99.25499501123443,-1.1410681565388354,-5.723698954790155,-0.14275888126565908,0.8833344846361887,9.583662176575166,0.2028067015623388,0.1709020417930375,0.12435470920459599,-22.983175450116736,-28.936221180885934,-76.1875
1772315248.7703896,-99.25499501123443,-1.1410681565388354,-5.723698954790155,-0.14275888126565908,0.8833344846361887,9.583662176575166,0.2028067015623388,0.1709020417930375,0.12435470920459599,-22.983175450116736,-28.936221180885934,-76.1875
1772315248.789015,-99.05630364132323,-1.1309846271029391,-6.154980433942107,-0.17351977057256085,0.8827902391321214,9.599162696138176,0.21409342059855216,0.17242202836078654,0.11235557059713497,-23.85321449822966,-29.742001581962278,-75.75
1772315248.8035648,-98.97747029959112,-1.1936804122841163,-6.43057303766819,-0.19675127801336967,0.8885222145595435,9.67303524119428,0.20965154125847257,0.1584347576115751,0.07308566242726255,-23.85321449822966,-29.742001581962278,-75.75
1772315248.816018,-98.97747029959112,-1.1936804122841163,-6.43057303766819,-0.19675127801336967,0.8885222145595435,9.67303524119428,0.20965154125847257,0.1584347576115751,0.07308566242726255,-23.85321449822966,-29.742001581962278,-75.75
1772315248.8315625,-98.91343643095695,-1.2701976046733503,-6.681544410765842,-0.2152586690676649,0.8909565405617748,9.738922153255315,0.17337121367775069,0.1671488055804843,0.04690572364734761,-23.85321449822966,-29.742001581962278,-75.75
1772315248.8460875,-98.91343643095695,-1.2701976046733503,-6.681544410765842,-0.2152586690676649,0.8909565405617748,9.738922153255315,0.17337121367775069,0.1671488055804843,0.04690572364734761,-23.85321449822966,-29.742001581962278,-75.75
1772315248.8612735,-98.83898313210814,-1.3154307012851034,-6.900126737327902,-0.22757513107319408,0.8925765573230564,9.782769157226902,0.15000826223065747,0.18171404892755585,0.061086523819801536,-22.9905024713964,-30.586252260823265,-77.75
1772315248.8794935,-98.76143508186952,-1.3502583288979892,-7.137592630925974,-0.2409531782057755,0.9537364982785044,9.758427061249755,0.17511254130483228,0.18709794223752438,0.050178215994836975,-22.9905024713964,-30.586252260823265,-77.75
1772315248.895874,-98.70326453718704,-1.3803131732141336,-7.355590111122099,-0.2622782756591447,1.0218614970714612,9.742227668295993,0.1398848982236655,0.17233836822967408,0.03599741582238305,-22.9905024713964,-30.586252260823265,-77.75
1772315248.9140916,-98.68276070574743,-1.4065374493034508,-7.57010388017972,-0.30746114365556865,1.0788658220192278,9.788314052268769,0.14734954058321567,0.15057165364794114,0.007635815477475192,-21.957981634305682,-32.10832756151423,-76.5625
1772315248.9287086,-98.68276070574743,-1.4065374493034508,-7.57010388017972,-0.30746114365556865,1.0788658220192278,9.788314052268769,0.14734954058321567,0.15057165364794114,0.007635815477475192,-21.957981634305682,-32.10832756151423,-76.5625
1772315248.9489155,-98.65510920109185,-1.2819361550131132,-7.679100096360939,-0.3370094073771193,1.0913312680912075,9.849090031349885,0.0015864365828340055,-0.09867578866961758,0.026179938779914945,-21.957981634305682,-32.10832756151423,-76.5625
1772315248.964815,-98.50546415172225,-1.115334552173182,-7.762821102389575,-0.44360581972074836,1.0969719561131726,9.859429761150322,0.007718013201912666,-0.10428102303891866,0.19416787928436915,-21.957981634305682,-32.10832756151423,-76.5625
