timestamp,yaw,pitch,roll,ax,ay,az,gx,gy,gz,mx,my,mz
1772911243.1511424,-0.05377092551772214,0.6692781362155349,-9.186528384363926,-0.09626334219262105,-1.5527296458213626,9.472954456117206,0.0,0.001090830782496456,0.0,-10.5,50.0,2.5
1772911243.1740363,-0.05377092551772214,0.6692781362155349,-9.186528384363926,-0.09751329597039202,-1.5618518839239333,9.572319508762144,0.0,0.001090830782496456,0.0,-10.875,51.0625,2.0625
1772911243.1852126,-0.05377092551772214,0.6692781362155349,-9.186528384363926,-0.09751329597039202,-1.5618518839239333,9.572319508762144,0.0,0.001090830782496456,0.0,-10.875,51.0625,2.0625
1772911243.198781,-0.05377092551772214,0.6692781362155349,-9.186528384363926,-0.09500001453928063,-1.5679226314791175,9.638445841316983,-0.002181661564992912,0.002181661564992912,0.0,-10.875,51.0625,2.0625
1772911243.2134144,-0.05377092551772214,0.6692781362155349,-9.186528384363926,-0.09500001453928063,-1.5679226314791175,9.638445841316983,-0.002181661564992912,0.002181661564992912,0.0,-10.875,51.0625,2.0625
1772911243.228699,-0.0538119094307628,0.6692781362155349,-9.193589836822794,-0.09332745382206915,-1.5686175344550797,9.665726618416098,0.015271630954950384,0.001090830782496456,0.002181661564992912,-10.875,51.0625,2.0625
1772911243.2477105,-0.0538119094307628,0.6692781362155349,-9.193589836822794,-0.09332745382206915,-1.5686175344550797,9.665726618416098,0.015271630954950384,0.001090830782496456,0.002181661564992912,-10.875,51.0625,2.0625
1772911243.2706544,-0.06134449881064417,0.675689564137909,-9.193643880059742,-0.09221438334849234,-1.5690799846230075,9.68388167082931,0.008726646259971648,0.003272492347489368,-0.00545415391248228,-10.875,52.1875,3.6875
1772911243.2922816,-0.0683164689164449,0.6751290227932712,-9.193684758992829,-0.08478342396750009,-1.5928035219950925,9.74279521930755,-0.002181661564992912,-0.007635815477475192,0.00545415391248228,-10.875,52.1875,3.6875
1772911243.3106077,-0.0683164689164449,0.6751290227932712,-9.193684758992829,-0.08478342396750009,-1.5928035219950925,9.74279521930755,-0.002181661564992912,-0.007635815477475192,0.00545415391248228,-10.875,52.1875,3.6875
1772911243.3270113,-0.0689189477429071,0.6821001466873364,-9.20076050830592,-0.07983820350870505,-1.6085912711069383,9.782001527712362,-0.007635815477475192,0.01090830782496456,0.006544984694978736,-9.75,52.25,4.5
1772911243.338592,-0.0689189477429071,0.6821001466873364,-9.20076050830592,-0.07983820350870505,-1.6085912711069383,9.782001527712362,-0.007635815477475192,0.01090830782496456,0.006544984694978736,-9.75,52.25,4.5
1772911243.35163,-0.0689189477429071,0.6821001466873364,-9.20076050830592,-0.07654721453510906,-1.588991836414284,9.781331994334048,0.003272492347489368,0.002181661564992912,-0.007635815477475192,-9.75,52.25,4.5
1772911243.388772,-0.0689189477429071,0.6821001466873364,-9.20076050830592,-0.07654721453510906,-1.588991836414284,9.781331994334048,0.003272492347489368,0.002181661564992912,-0.007635815477475192,-9.75,52.25,4.5
1772911243.4197056,-12.350923451057222,0.6820540396434037,-9.200884288536729,-0.07435709813593656,-1.569258408151715,9.780886427349957,-0.001090830782496456,0.001090830782496456,-0.004363323129985824,-10.875,51.5,2.875
1772911243.4585092,-12.350923451057222,0.6820540396434037,-9.200884288536729,-0.09966049379604555,-1.5561260320798125,9.780589907499353,-0.004363323129985824,0.006544984694978736,-0.008726646259971648,-10.875,51.5,2.875
1772911243.4892044,-12.350923451057222,0.6820540396434037,-9.200884288536729,-0.09966049379604555,-1.5561260320798125,9.780589907499353,-0.004363323129985824,0.006544984694978736,-0.008726646259971648,-10.875,51.5,2.875
1772911243.5127406,-12.343832691858053,0.6826073241997584,-9.200783989531933,-0.0830485038772042,-1.554076805916853,9.777047465143802,0.0,0.003272492347489368,-0.001090830782496456,-10.875,52.25,3.25
1772911243.5310915,-12.343832691858053,0.6826073241997584,-9.200783989531933,-0.0830485038772042,-1.554076805916853,9.777047465143802,0.0,0.003272492347489368,-0.001090830782496456,-10.875,52.25,3.25
1772911243.5603852,-12.37928825590835,0.6798409020535184,-9.201285483987098,-0.09875430381285669,-1.5761288507479954,9.774690009327855,-0.002181661564992912,0.003272492347489368,0.001090830782496456,-10.875,52.25,3.25
1772911243.5746002,-12.37928825590835,0.6798409020535184,-9.201285483987098,-0.09875430381285669,-1.5761288507479954,9.774690009327855,-0.002181661564992912,0.003272492347489368,0.001090830782496456,-10.875,52.25,3.25
1772911243.5973127,-12.37928825590835,0.6798409020535184,-9.201285483987098,-0.08244544456619739,-1.5707335700017226,9.77646626052417,0.001090830782496456,0.003272492347489368,-0.002181661564992912,-11.25,52.25,4.0
1772911243.657469,-12.37928825590835,0.6798409020535184,-9.201285483987098,-0.08244544456619739,-1.5707335700017226,9.77646626052417,0.001090830782496456,0.003272492347489368,-0.002181661564992912,-11.25,52.25,4.0
1772911243.6816428,-12.30852476015626,0.6785430749265645,-9.200061694372621,-0.08497252774871802,-1.5805235177635908,9.777648335853291,-0.002181661564992912,0.004363323129985824,0.001090830782496456,-11.25,52.25,4.0
1772911243.701653,-12.30852476015626,0.6785430749265645,-9.200061694372621,-0.08497252774871802,-1.5805235177635908,9.777648335853291,-0.002181661564992912,0.004363323129985824,0.001090830782496456,-11.25,52.25,4.0
1772911243.7184446,-12.30852476015626,0.6785430749265645,-9.200061694372621,-0.0866542733773167,-1.5736581718089544,9.778434993780175,0.001090830782496456,0.001090830782496456,0.002181661564992912,-10.5,52.6875,3.6875
1772911243.7508624,-12.265403314538872,0.6749305066433037,-9.198698128030616,-0.0877734563068195,-1.575779584181722,9.775613394135652,-0.003272492347489368,0.001090830782496456,-0.001090830782496456,-10.5,52.6875,3.6875
1772911243.772511,-12.265403314538872,0.6749305066433037,-9.198698128030616,-0.0877734563068195,-1.575779584181722,9.775613394135652,-0.003272492347489368,0.001090830782496456,-0.001090830782496456,-10.5,52.6875,3.6875
1772911243.801014,-12.265403314538872,0.6749305066433037,-9.198698128030616,-0.0877734563068195,-1.575779584181722,9.775613394135652,-0.003272492347489368,0.001090830782496456,-0.001090830782496456,-10.5,52.6875,3.6875
1772911243.819923,-12.223594042841027,0.6783509623880293,-9.19864755684778,-0.08851826004431113,-1.5771913604180698,9.773735651091554,0.001090830782496456,0.0,0.0,-10.1875,51.875,3.25
1772911243.839929,-12.209417477978427,0.6794575307146129,-9.198448643388362,-0.08566880690428952,-1.5781308817327855,9.772486034071472,0.0,-0.001090830782496456,0.0,-10.1875,51.875,3.25
1772911243.8533847,-12.209417477978427,0.6794575307146129,-9.198448643388362,-0.08566880690428952,-1.5781308817327855,9.772486034071472,0.0,-0.001090830782496456,0.0,-10.1875,51.875,3.25
1772911243.8659568,-12.209417477978427,0.6794575307146129,-9.198448643388362,-0.08711763937740172,-1.5821012343799072,9.771654427903744,0.0,0.001090830782496456,0.001090830782496456,-10.1875,51.875,3.25
1772911243.889395,-12.13867939411134,0.6781579960236672,-9.19724366887019,-0.09811715632569686,-1.588088571422141,9.771101003288772,0.001090830782496456,0.001090830782496456,-0.001090830782496456,-9.75,51.5,3.6875
1772911243.9043176,-12.13867939411134,0.6781579960236672,-9.19724366887019,-0.10543721198213199,-1.5920730773408105,9.774077817096984,0.0,0.001090830782496456,-0.001090830782496456,-9.75,51.5,3.6875
1772911243.9305646,-12.13867939411134,0.6781579960236672,-9.19724366887019,-0.10543721198213199,-1.5920730773408105,9.774077817096984,0.0,0.001090830782496456,-0.001090830782496456,-9.75,51.5,3.6875
1772911243.9435465,-12.13867939411134,0.6781579960236672,-9.19724366887019,-0.10361840383647129,-1.5880344981051988,9.77940396514048,0.0,0.001090830782496456,-0.001090830782496456,-9.75,51.5,3.6875
1772911243.9609928,-12.13867939411134,0.6781579960236672,-9.19724366887019,-0.10240800733295234,-1.5853468687377852,9.782948457166455,0.0,0.002181661564992912,0.0,-11.25,51.875,2.875
1772911243.974075,-12.13867939411134,0.6781579960236672,-9.19724366887019,-0.10240800733295234,-1.5853468687377852,9.782948457166455,0.0,0.002181661564992912,0.0,-11.25,51.875,2.875
1772911243.994785,-12.118136185043735,0.6799181740085867,-9.197492732896873,-0.10160250198087536,-1.586903393123878,9.778617053600533,0.001090830782496456,0.002181661564992912,0.001090830782496456,-11.25,51.875,2.875
1772911244.0096183,-12.118136185043735,0.6799181740085867,-9.197492732896873,-0.10160250198087536,-1.586903393123878,9.778617053600533,0.001090830782496456,0.002181661564992912,0.001090830782496456,-11.25,51.875,2.875
1772911244.0352864,-12.124506236998087,0.6792645643060956,-9.197045597397336,-0.1010664471671525,-1.5879392427153063,9.775734552912358,-0.001090830782496456,0.002181661564992912,-0.003272492347489368,-11.25,52.25,2.5
1772911244.048546,179.11765661970168,-90.0,177.84670164682467,-0.09736459696942518,-1.5852834773398843,9.77381628090402,0.0,0.0,0.0,-11.25,52.25,2.5
1772911244.0623167,-12.124506236998087,0.6792645643060956,-9.197045597397336,-0.09490105701521387,-1.5835160951493839,9.772539692310975,0.0,0.0,0.0,-11.25,52.25,2.5
1772911244.0751953,-12.124506236998087,0.6792645643060956,-9.197045597397336,-0.09490105701521387,-1.5835160951493839,9.772539692310975,0.0,0.0,0.0,-11.25,52.25,2.5
1772911244.0953236,-12.13867939411134,0.6781579960236672,-9.19724366887019,-0.09660671040255009,-1.5823399220445586,9.768345025155412,0.0,0.001090830782496456,0.004363323129985824,-11.6875,51.875,4.0
1772911244.123117,-12.124506236998087,0.6792645643060956,-9.197045597397336,-0.09774180367842557,-1.581557191982012,9.765553521020887,0.001090830782496456,0.0,0.001090830782496456,-11.6875,51.875,4.0
1772911244.1406674,-12.124506236998087,0.6792645643060956,-9.197045597397336,-0.09849719557369799,-1.5810362938690548,9.763695806202506,0.0,0.001090830782496456,0.001090830782496456,-11.6875,51.875,4.0
1772911244.152618,-12.124506236998087,0.6792645643060956,-9.197045597397336,-0.09849719557369799,-1.5810362938690548,9.763695806202506,0.0,0.001090830782496456,0.001090830782496456,-11.6875,51.875,4.0
1772911244.1658971,-12.124506236998087,0.6792645643060956,-9.197045597397336,-0.09899990044172141,-1.5806896419936949,9.759114406035588,-0.002181661564992912,0.001090830782496456,-0.001090830782496456,-10.5,51.5,3.25
1772911244.1798973,-12.124506236998087,0.6792645643060956,-9.197045597397336,-0.09899990044172141,-1.5806896419936949,9.759114406035588,-0.002181661564992912,0.001090830782496456,-0.001090830782496456,-10.5,51.5,3.25
1772911244.20523,-12.14576623341467,0.677604711977341,-9.197342704523466,-0.09933444491580967,-1.580458949042998,9.759410647109416,-0.001090830782496456,-0.001090830782496456,-0.001090830782496456,-10.5,51.5,3.25
1772911244.2195399,-12.14576623341467,0.677604711977341,-9.197342704523466,-0.09933444491580967,-1.580458949042998,9.759410647109416,-0.001090830782496456,-0.001090830782496456,-0.001090830782496456,-10.5,51.5,3.25
1772911244.250437,-12.13867939411134,0.6781579960236672,-9.19724366887019,-0.09955708052620878,-1.5803054254613185,9.759607792234819,0.0,0.0,0.003272492347489368,-10.5,51.5,2.5
1772911244.2724547,-12.13867939411134,0.6781579960236672,-9.19724366887019,-0.09955708052620878,-1.5803054254613185,9.759607792234819,0.0,0.0,0.003272492347489368,-10.5,51.5,2.5
1772911244.2878761,-12.131592728670048,0.6787112801332348,-9.197144633161479,-0.09970524203792666,-1.5802032572326814,9.763084101820839,-0.001090830782496456,-0.001090830782496456,0.0,-10.5,51.5,2.5
1772911244.317512,-12.131592728670048,0.6787112801332348,-9.197144633161479,-0.09980384186890237,-1.5801352654178173,9.765397547017413,0.0,-0.001090830782496456,0.001090830782496456,-10.875,51.875,2.875
1772911244.3465216,-12.131592728670048,0.6787112801332348,-9.197144633161479,-0.09980384186890237,-1.5801352654178173,9.765397547017413,0.0,-0.001090830782496456,0.001090830782496456,-10.875,51.875,2.875
1772911244.3605163,-12.131592728670048,0.6787112801332348,-9.197144633161479,-0.09986945895498443,-1.5767449059172243,9.763592007245537,-0.001090830782496456,0.001090830782496456,0.001090830782496456,-10.875,51.875,2.875
1772911244.3773873,-12.131592728670048,0.6787112801332348,-9.197144633161479,-0.09986945895498443,-1.5767449059172243,9.763592007245537,-0.001090830782496456,0.001090830782496456,0.001090830782496456,-10.875,51.875,2.875
1772911244.3950517,-12.131592728670048,0.6787112801332348,-9.197144633161479,-0.09991312639278116,-1.5778337712496961,9.762390440696555,-0.001090830782496456,-0.001090830782496456,0.002181661564992912,-10.875,51.875,2.875
1772911244.4111252,-12.131592728670048,0.6787112801332348,-9.197144633161479,-0.09659707487751826,-1.5785583989650336,9.758245699873266,-0.002181661564992912,-0.001090830782496456,0.001090830782496456,-10.5,52.25,3.25
1772911244.455019,-12.131592728670048,0.6787112801332348,-9.197144633161479,-0.09773539134415275,-1.5790406306149687,9.755487421155156,0.0,0.001090830782496456,0.001090830782496456,-10.5,52.25,3.25
1772911244.4701927,-12.131592728670048,0.6787112801332348,-9.197144633161479,-0.09773539134415275,-1.5790406306149687,9.755487421155156,0.0,0.001090830782496456,0.001090830782496456,-10.5,52.25,3.25
1772911244.4912019,-12.131592728670048,0.6787112801332348,-9.197144633161479,-0.09514781652955051,-1.5793615503911198,9.756996929187565,0.001090830782496456,0.0,0.001090830782496456,-11.25,51.875,3.25
1772911244.5296915,-12.131592728670048,0.6787112801332348,-9.197144633161479,-0.09677092610285673,-1.5795751189172398,9.758001489920824,-0.002181661564992912,0.002181661564992912,0.001090830782496456,-11.25,51.875,3.25
1772911244.5517952,-12.131592728670048,0.6787112801332348,-9.197144633161479,-0.09450597568525068,-1.5797172463856557,9.758670013867128,0.0,0.0,-0.001090830782496456,-9.75,51.5,2.5
1772911244.567495,-12.131592728670048,0.6787112801332348,-9.197144633161479,-0.09450597568525068,-1.5797172463856557,9.758670013867128,0.0,0.0,-0.001090830782496456,-9.75,51.5,2.5
1772911244.59356,-12.131592728670048,0.6787112801332348,-9.197144633161479,-0.09634378819080722,-1.5798118306282187,9.759114909085492,-0.001090830782496456,-0.001090830782496456,0.0,-9.75,51.5,2.5
1772911244.6148596,-12.131592728670048,0.6787112801332348,-9.197144633161479,-0.09756683188354423,-1.5765296636777497,9.759410981883509,-0.002181661564992912,0.002181661564992912,0.0,-9.75,51.5,2.5
1772911244.6410198,-12.131592728670048,0.6787112801332348,-9.197144633161479,-0.10172586550608687,-1.5743454182364198,9.759608015023238,0.0,-0.004363323129985824,0.002181661564992912,-10.875,51.875,3.6875
1772911244.6560438,-12.131592728670048,0.6787112801332348,-9.197144633161479,-0.10172586550608687,-1.5743454182364198,9.759608015023238,0.0,-0.004363323129985824,0.002181661564992912,-10.875,51.875,3.6875
1772911244.676803,-12.131592728670048,0.6787112801332348,-9.197144633161479,-0.10114854421511989,-1.5728918272948351,9.759739138376723,-0.001090830782496456,-0.002181661564992912,-0.001090830782496456,-10.875,51.875,3.6875
1772911244.6924825,-12.131592728670048,0.6787112801332348,-9.197144633161479,-0.10114854421511989,-1.5728918272948351,9.759739138376723,-0.001090830782496456,-0.002181661564992912,-0.001090830782496456,-10.875,51.875,3.6875
1772911244.7113414,-12.131592728670048,0.6787112801332348,-9.197144633161479,-0.10076434334508275,-1.5752695904682046,9.756481287796404,0.0,-0.003272492347489368,0.001090830782496456,-10.5,50.875,3.25
1772911244.732228,-12.131592728670048,0.6787112801332348,-9.197144633161479,-0.10076434334508275,-1.5752695904682046,9.756481287796404,0.0,-0.003272492347489368,0.001090830782496456,-10.5,50.875,3.25
1772911244.754128,-12.131592728670048,0.6787112801332348,-9.197144633161479,-0.10050866195787796,-1.5735068535914076,9.75431322462778,-0.001090830782496456,-0.001090830782496456,0.0,-10.5,50.875,3.25
1772911244.7779052,-12.131592728670048,0.6787112801332348,-9.197144633161479,-0.10368362055816079,-1.5723337718909605,9.752870402807911,0.0,0.0,0.001090830782496456,-10.5,51.875,2.875
1772911244.7946877,-12.131592728670048,0.6787112801332348,-9.197144633161479,-0.10579652004003758,-1.571553099123494,9.755255332711483,0.0,-0.002181661564992912,0.001090830782496456,-10.5,51.875,2.875
1772911244.817893,-12.131592728670048,0.6787112801332348,-9.197144633161479,-0.10720263104259285,-1.5743786818247507,9.756842476920898,-0.001090830782496456,0.0,0.0,-10.5,51.875,2.875
1772911244.8395438,-12.131592728670048,0.6787112801332348,-9.197144633161479,-0.10720263104259285,-1.5743786818247507,9.756842476920898,-0.001090830782496456,0.0,0.0,-10.5,51.875,2.875
1772911244.861038,-12.131592728670048,0.6787112801332348,-9.197144633161479,-0.1081383822075043,-1.5762590755486101,9.757898703662702,0.0,-0.002181661564992912,0.0,-9.75,51.875,4.5
1772911244.8769915,-12.131592728670048,0.6787112801332348,-9.197144633161479,-0.10876111415472745,-1.5775104565664644,9.758601610760547,-0.001090830782496456,0.0,0.0,-9.75,51.875,4.5
1772911244.8906941,-12.131592728670048,0.6787112801332348,-9.197144633161479,-0.10876111415472745,-1.5775104565664644,9.758601610760547,-0.001090830782496456,0.0,0.0,-9.75,51.875,4.5
1772911244.9084413,-12.131592728670048,0.6787112801332348,-9.197144633161479,-0.1091755353092328,-1.5783432366550043,9.755724275874856,0.0,0.0,0.0,-9.75,51.875,4.5
1772911244.926366,-12.131592728670048,0.6787112801332348,-9.197144633161479,-0.1091755353092328,-1.5783432366550043,9.755724275874856,0.0,0.0,0.0,-9.75,51.875,4.5
1772911244.9384093,-12.131592728670048,0.6787112801332348,-9.197144633161479,-0.10945132795816848,-1.5755523307938453,9.753809441650365,0.001090830782496456,0.0,-0.001090830782496456,-10.5,50.5,-2044.0
1772911244.9544692,-12.131592728670048,0.6787112801332348,-9.197144633161479,-0.10963486488522942,-1.5770401258270246,9.752535140864067,-0.002181661564992912,0.003272492347489368,-0.002181661564992912,-10.5,50.5,-2044.0
1772911244.977512,-12.131592728670048,0.6787112801332348,-9.197144633161479,-0.10975700665994667,-1.5746851250945264,9.755032219632977,0.0,0.001090830782496456,-0.002181661564992912,-10.5,50.5,-2044.0
1772911245.008134,-12.131592728670048,0.6787112801332348,-9.197144633161479,-0.10975700665994667,-1.5746851250945264,9.755032219632977,0.0,0.001090830782496456,-0.002181661564992912,-10.5,50.5,-2044.0
1772911245.0271542,-12.131592728670048,0.6787112801332348,-9.197144633161479,-0.1031480672319692,-1.5731178984141307,9.75669399765949,0.0,0.001090830782496456,-0.001090830782496456,-10.1875,51.1875,3.6875
1772911245.041736,-12.131592728670048,0.6787112801332348,-9.197144633161479,-0.09874989186934095,-1.5720749265653966,9.757799892372857,0.001090830782496456,0.001090830782496456,0.001090830782496456,-10.1875,51.1875,3.6875
1772911245.0559213,-12.131592728670048,0.6787112801332348,-9.197144633161479,-0.09874989186934095,-1.5720749265653966,9.757799892372857,0.001090830782496456,0.001090830782496456,0.001090830782496456,-10.1875,51.1875,3.6875
1772911245.0707574,-12.131592728670048,0.6787112801332348,-9.197144633161479,-0.09582295529634983,-1.571380840450823,9.75853585295095,0.0,0.0,-0.001090830782496456,-10.1875,51.1875,3.6875
1772911245.0904949,-12.131592728670048,0.6787112801332348,-9.197144633161479,-0.0938751117030481,-1.5709189338950242,9.76237073820177,0.0,-0.003272492347489368,0.002181661564992912,-10.5,51.875,3.25
1772911245.1161594,-12.131592728670048,0.6787112801332348,-9.197144633161479,-0.09926906696518321,-1.5706115402419745,9.761577699790397,0.0,-0.001090830782496456,-0.001090830782496456,-10.5,51.875,3.25
1772911245.135266,-12.131592728670048,0.6787112801332348,-9.197144633161479,-0.10285868393770581,-1.570406973199682,9.761049941586448,0.0,0.001090830782496456,0.0,-10.5,51.875,3.25
1772911245.162015,-12.131592728670048,0.6787112801332348,-9.197144633161479,-0.10524753393427064,-1.5702708361181998,9.760698724397164,-0.001090830782496456,0.0,0.0,-10.5,51.5,3.6875
1772911245.1819115,-12.131592728670048,0.6787112801332348,-9.197144633161479,-0.10524753393427064,-1.5702708361181998,9.760698724397164,-0.001090830782496456,0.0,0.0,-10.5,51.5,3.6875
1772911245.2133813,-12.131592728670048,0.6787112801332348,-9.197144633161479,-0.10014706350714281,-1.5701802384112244,9.76046499328105,0.0,-0.001090830782496456,0.0,-10.5,51.5,3.6875
1772911245.2367215,-12.131592728670048,0.6787112801332348,-9.197144633161479,-0.09675275741387714,-1.5734650583565943,9.756964336126904,0.0,0.0,0.0,-9.75,50.875,3.6875
1772911245.2497976,-12.131592728670048,0.6787112801332348,-9.197144633161479,-0.09675275741387714,-1.5734650583565943,9.756964336126904,0.0,0.0,0.0,-9.75,50.875,3.6875
1772911245.263687,-12.131592728670048,0.6787112801332348,-9.197144633161479,-0.09449388462569232,-1.575651069336395,9.76467002301768,0.0,-0.001090830782496456,0.001090830782496456,-9.75,50.875,3.6875
1772911245.2904277,-12.131592728670048,0.6787112801332348,-9.197144633161479,-0.09449388462569232,-1.575651069336395,9.76467002301768,0.0,-0.001090830782496456,0.001090830782496456,-9.75,50.875,3.6875
1772911245.304654,-12.131592728670048,0.6787112801332348,-9.197144633161479,-0.09299063001841772,-1.580450946931429,9.76979807156533,0.0,-0.002181661564992912,0.001090830782496456,-10.1875,51.5,2.875
1772911245.319534,-12.131592728670048,0.6787112801332348,-9.197144633161479,-0.09533534257705012,-1.5836452118527782,9.773210730589735,0.0,-0.002181661564992912,0.001090830782496456,-10.1875,51.5,2.875
1772911245.346782,-12.131592728670048,0.6787112801332348,-9.197144633161479,-0.09533534257705012,-1.5836452118527782,9.773210730589735,0.0,-0.002181661564992912,0.001090830782496456,-10.1875,51.5,2.875
1772911245.3643138,-12.131592728670048,0.6787112801332348,-9.197144633161479,-0.10358594600730328,-1.5824258477683395,9.768791593633939,0.0,-0.001090830782496456,0.001090830782496456,-10.1875,51.5,2.875
1772911245.4050014,-0.0005155074010447497,0.6787403365409104,-9.197536693904398,0.2257477271484603,-1.5692162709155435,9.76250559564753,-0.0003787304169048337,-0.0034286558928725112,0.002181661564992912,-10.1875,51.5,2.875
1772911245.760155,-0.0005155074010447497,0.6787403365409104,-9.197536693904398,0.2293042484781774,-1.5623503561149408,9.758512336272096,-0.0019036931548886723,-0.0015249627379838385,-0.002181661564992912,-21.821879842901986,47.985602633727005,3.25
1772911246.0668175,-0.0005155074010447497,0.6787403365409104,-9.197536693904398,0.23690300169986833,-1.5645862309551828,9.743092079611154,-0.0010664698095522367,-0.00022924646421580098,0.0,-21.167438343323592,48.509846206534135,2.875
1772911246.149103,-0.0005155074010447497,0.6787403365409104,-9.197536693904398,0.2342721489848252,-1.5597768636968508,9.741369405938595,-0.0012957162737680377,0.0008372233453364357,0.002181661564992912,-20.783108118789098,48.20889516648066,3.6875
1772911246.2071671,-0.0005155074010447497,0.6787403365409104,-9.197536693904398,0.23357257065060227,-1.558497989696793,9.744256436062187,0.00045849292843160196,-0.0021329396191044733,0.0,-21.246247472530765,48.87647152092691,2.5
1772911246.2475727,-0.0005155074010447497,0.6787403365409104,-9.197536693904398,0.23381000999265775,-1.560917320352713,9.7461777223592,0.00022924646421580098,-0.0010664698095522367,-0.001090830782496456,-21.246247472530765,48.87647152092691,2.5
1772911246.2972865,-0.0005155074010447497,0.6787403365409104,-9.197536693904398,0.23069761620542456,-1.563230358787212,9.750801428635006,-0.0008372233453364357,-0.0012957162737680377,0.0,-20.783108118789098,48.20889516648066,2.0625
1772911246.3481395,-0.0005155074010447497,0.6787403365409104,-9.197536693904398,0.2286263529077376,-1.5647696600270393,9.757223565218691,0.0012957162737680377,-0.0008372233453364357,-0.002181661564992912,-20.783108118789098,48.20889516648066,2.0625
1772911246.4023495,-0.0005155074010447497,0.6787403365409104,-9.197536693904398,0.2263306387967156,-1.5664757664314402,9.764341631567156,0.0015249627379838387,-0.0019036931548886723,0.002181661564992912,-21.389580254169893,47.758890667606856,3.1875
1772911246.4217236,-0.0005155074010447497,0.6787403365409104,-9.197536693904398,0.2263306387967156,-1.5664757664314402,9.764341631567156,0.0015249627379838387,-0.0019036931548886723,0.002181661564992912,-21.389580254169893,47.758890667606856,3.1875
1772911246.4377158,-0.0005155074010447497,0.6787403365409104,-9.197536693904398,0.22969358615025448,-1.569496848669015,9.76288930730874,0.0,0.0,-0.001090830782496456,-22.24960937636023,47.89365864965197,3.25
1772911246.4911706,-0.0005155074010447497,0.6787403365409104,-9.197536693904398,0.23193159004745117,-1.5715073451504213,9.761922801738288,0.00045849292843160196,-0.0021329396191044733,0.0,-22.24960937636023,47.89365864965197,3.25
1772911246.5219755,-0.0005155074010447497,0.6787403365409104,-9.197536693904398,0.23697951957983623,-1.5697622995713736,9.757506449846806,-0.0012957162737680377,0.0008372233453364357,0.0,-19.98875327093807,48.37964827976287,2.875
1772911246.5491045,-0.0005155074010447497,0.6787403365409104,-9.197536693904398,0.23697951957983623,-1.5697622995713736,9.757506449846806,-0.0012957162737680377,0.0008372233453364357,0.0,-19.98875327093807,48.37964827976287,2.875
1772911246.5807734,-0.0005155074010447497,0.6787403365409104,-9.197536693904398,0.23934770346394962,-1.5677105918349816,9.75499545852051,-0.00045849292843160196,0.0021329396191044733,-0.001090830782496456,-19.98875327093807,48.37964827976287,2.875
1772911246.6010268,-0.0005155074010447497,0.6787403365409104,-9.197536693904398,0.24092370338447974,-1.5663452032554896,9.753324421842471,-0.00022924646421580098,0.0010664698095522367,-0.001090830782496456,-20.940726377203447,48.94214579526623,4.0
1772911246.6151152,-0.0005155074010447497,0.6787403365409104,-9.197536693904398,0.2419725137265199,-1.5654365524082277,9.75221236559994,-0.0010664698095522367,-0.00022924646421580098,-0.001090830782496456,-20.940726377203447,48.94214579526623,4.0
1772911246.646813,-0.0005155074010447497,0.6787403365409104,-9.197536693904398,0.2361296712591687,-1.5662378572370277,9.751472304593017,-0.0025914325475360754,0.0016744466906728713,0.0,-20.940726377203447,48.94214579526623,4.0
1772911246.6672144,-0.0005155074010447497,0.6787403365409104,-9.197536693904398,0.2361296712591687,-1.5662378572370277,9.751472304593017,-0.0025914325475360754,0.0016744466906728713,0.0,-20.940726377203447,48.94214579526623,4.0
1772911246.6952236,-0.0005155074010447497,0.6787403365409104,-9.197536693904398,0.2315383239572946,-1.5635007096324325,9.754324913967253,-0.0015249627379838387,0.0019036931548886723,0.002181661564992912,-20.71743384444979,47.903374071153344,3.6875
1772911246.708559,-0.0005155074010447497,0.6787403365409104,-9.197536693904398,0.2317532406336072,-1.5609761675688378,9.752878181932752,-0.0010664698095522367,-0.00022924646421580098,0.002181661564992912,-20.71743384444979,47.903374071153344,3.6875
1772911246.7229388,-0.0005155074010447497,0.6787403365409104,-9.197536693904398,0.23259926618959545,-1.5625665200434982,9.755260509632167,0.0,0.0,-0.001090830782496456,-20.71743384444979,47.903374071153344,3.6875
1772911246.7359815,-0.0005155074010447497,0.6787403365409104,-9.197536693904398,0.23259926618959545,-1.5625665200434982,9.755260509632167,0.0,0.0,-0.001090830782496456,-20.71743384444979,47.903374071153344,3.6875
1772911246.7537587,-0.0005155074010447497,0.6787403365409104,-9.197536693904398,0.23316228674638098,-1.5636248818499834,9.756845922103784,-0.0015249627379838387,0.0019036931548886723,-0.002181661564992912,-20.783108118789098,48.20889516648066,3.6875
1772911246.7830224,-0.0005155074010447497,0.6787403365409104,-9.197536693904398,0.23353697063757,-1.5643292098095234,9.767936331515385,0.00022924646421580098,-0.0010664698095522367,0.001090830782496456,-20.783108118789098,48.20889516648066,3.6875
1772911246.8082497,-0.0005155074010447497,0.6787403365409104,-9.197536693904398,0.23051591156466317,-1.5655009331074172,9.775316875090814,-0.0006877393926474029,0.0031994094286567102,0.0,-20.783108118789098,48.20889516648066,3.6875
1772911246.8427474,-0.0005155074010447497,0.6787403365409104,-9.197536693904398,0.22850543049908473,-1.5662807018731586,9.77019320927223,0.0,0.0,-0.001090830782496456,-21.167438343323592,48.509846206534135,3.6875
1772911246.8765647,-0.0005155074010447497,0.6787403365409104,-9.197536693904398,0.22646447689980848,-1.5635292222591717,9.76678346690506,-0.00022924646421580098,0.0010664698095522367,-0.001090830782496456,-21.167438343323592,48.509846206534135,3.6875
1772911246.9002755,-0.0005155074010447497,0.6787403365409104,-9.197536693904398,0.22837665209543553,-1.5609951424034259,9.764514321449028,0.0008372233453364357,0.0012957162737680377,-0.001090830782496456,-21.167438343323592,48.509846206534135,3.6875
1772911246.918643,-0.0005155074010447497,0.6787403365409104,-9.197536693904398,0.2296491833277288,-1.5593087405669537,9.763004230496053,-0.0010664698095522367,-0.00022924646421580098,0.002181661564992912,-21.61287278692355,48.79766239171974,3.6875
1772911246.9450955,-0.0005155074010447497,0.6787403365409104,-9.197536693904398,0.2296491833277288,-1.5593087405669537,9.763004230496053,-0.0010664698095522367,-0.00022924646421580098,0.002181661564992912,-21.61287278692355,48.79766239171974,3.6875
1772911246.9706366,-0.0005155074010447497,0.6787403365409104,-9.197536693904398,0.2304960386477147,-1.5581864589831242,9.75530905842103,-0.00022924646421580098,0.0010664698095522367,0.0,-21.61287278692355,48.79766239171974,3.6875
1772911246.9986327,-0.0005155074010447497,0.6787403365409104,-9.197536693904398,0.23176261231185036,-1.5607100001427925,9.756878230780446,0.0015249627379838387,-0.0019036931548886723,0.0,-21.97949810131633,48.71885326251257,3.25
1772911247.0142522,-0.0005155074010447497,0.6787403365409104,-9.197536693904398,0.23176261231185036,-1.5607100001427925,9.756878230780446,0.0015249627379838387,-0.0019036931548886723,0.0,-21.97949810131633,48.71885326251257,3.25
1772911247.0410872,-0.0005155074010447497,0.6787403365409104,-9.197536693904398,0.23330850384545665,-1.5656597956117497,9.757922497456834,-0.0010664698095522367,-0.00022924646421580098,0.001090830782496456,-21.97949810131633,48.71885326251257,3.25
1772911247.0568674,-0.0005155074010447497,0.6787403365409104,-9.197536693904398,0.23433727739233168,-1.5689538292035026,9.758617445264747,0.0,0.0,-0.001090830782496456,-21.97949810131633,48.71885326251257,3.25
1772911247.092229,-0.0005155074010447497,0.6787403365409104,-9.197536693904398,0.23431891378694464,-1.5678755647450477,9.765770148682476,0.0,0.0,-0.001090830782496456,-20.783108118789098,48.20889516648066,4.0
1772911247.114936,-0.0005155074010447497,0.6787403365409104,-9.197536693904398,0.2375771000296944,-1.5664549908842706,9.763839969491404,0.0021329396191044733,0.00045849292843160196,0.0,-20.783108118789098,48.20889516648066,4.0
1772911247.1864367,-0.0005155074010447497,0.6787403365409104,-9.197536693904398,0.2375771000296944,-1.5664549908842706,9.763839969491404,0.0021329396191044733,0.00045849292843160196,0.0,-20.783108118789098,48.20889516648066,4.0
1772911247.2216413,-0.0005155074010447497,0.6787403365409104,-9.197536693904398,0.23974538657791922,-1.5655096148487733,9.762555456801259,-0.0010664698095522367,-0.00022924646421580098,0.001090830782496456,-21.690531294223362,47.37456044307236,4.5
1772911247.2754302,-0.0005155074010447497,0.6787403365409104,-9.197536693904398,0.23974538657791922,-1.5655096148487733,9.762555456801259,-0.0010664698095522367,-0.00022924646421580098,0.001090830782496456,-21.690531294223362,47.37456044307236,4.5
1772911247.3243015,-0.0005155074010447497,0.6787403365409104,-9.197536693904398,0.24118835705441502,-1.564880477657692,9.761700627954914,0.0010664698095522367,0.00022924646421580098,0.0,-21.690531294223362,47.37456044307236,4.5
1772911247.3656821,-0.0005155074010447497,0.6787403365409104,-9.197536693904398,0.24144563687880777,-1.5611913868679503,9.764476860614055,-0.0021329396191044733,-0.00045849292843160196,-0.001090830782496456,-20.783108118789098,48.20889516648066,3.6875
1772911247.4130259,-0.0005155074010447497,0.6787403365409104,-9.197536693904398,0.24161685372793718,-1.5587363381572217,9.766324412436163,-0.00045849292843160196,0.0021329396191044733,-0.002181661564992912,-20.783108118789098,48.20889516648066,3.6875
1772911247.4657955,-0.0005155074010447497,0.6787403365409104,-9.197536693904398,0.23916339052009422,-1.5610759385906015,9.76755393753527,-0.0010664698095522367,-0.00022924646421580098,-0.001090830782496456,-21.022954939777108,47.83769979681403,2.875
1772911247.490468,-0.0005155074010447497,0.6787403365409104,-9.197536693904398,0.23426023114525474,-1.5633359174526453,9.77171728446135,0.0,0.0,-0.004363323129985824,-21.022954939777108,47.83769979681403,2.875
1772911247.5346282,-0.0005155074010447497,0.6787403365409104,-9.197536693904398,0.23426023114525474,-1.5633359174526453,9.77171728446135,0.0,0.0,-0.004363323129985824,-21.022954939777108,47.83769979681403,2.875
1772911247.608565,-0.0005155074010447497,0.6787403365409104,-9.197536693904398,0.2309972333531781,-1.5648399081397173,9.774487945333023,0.00022924646421580098,-0.0010664698095522367,0.001090830782496456,-21.167438343323592,48.509846206534135,2.875
1772911247.6620822,-0.0005155074010447497,0.6787403365409104,-9.197536693904398,0.22485233684694603,-1.563273391032966,9.776331789192811,0.0010664698095522367,0.00022924646421580098,0.002181661564992912,-21.167438343323592,48.509846206534135,2.875
1772911247.740069,-0.0005155074010447497,0.6787403365409104,-9.197536693904398,0.2240333838820401,-1.561527890488887,9.770868623269777,-0.0006079768811206348,-0.0023621860833202744,0.001090830782496456,-19.923078996598758,48.074127184435554,2.875
1772911247.8456976,-0.0005155074010447497,0.6787403365409104,-9.197536693904398,0.22382868663380315,-1.5628636471722888,9.764813445681119,0.0006877393926474029,-0.0031994094286567102,0.0,-21.08862921411642,48.14322089214135,3.6875
1772911247.9118779,-0.0005155074010447497,0.6787403365409104,-9.197536693904398,0.22405515700879447,-1.5645256175437448,9.763203294331072,0.0,0.0,-0.001090830782496456,-21.4552545285092,48.06441176293418,3.25
1772911247.9349322,-0.0005155074010447497,0.6787403365409104,-9.197536693904398,0.22405515700879447,-1.5645256175437448,9.763203294331072,0.0,0.0,-0.001090830782496456,-21.4552545285092,48.06441176293418,3.25
1772911247.966608,-0.0005155074010447497,0.6787403365409104,-9.197536693904398,0.2274762775305112,-1.5649286393518445,9.762131756594187,-0.0010664698095522367,-0.00022924646421580098,0.002181661564992912,-21.4552545285092,48.06441176293418,3.25
1772911248.0253842,-0.0005155074010447497,0.6787403365409104,-9.197536693904398,0.22904999411261456,-1.5619264388460863,9.76141866020015,-0.0023621860833202744,0.0006079768811206347,0.0,-21.900688972109158,48.35222794811978,3.6875
1772911248.0931277,-0.0005155074010447497,0.6787403365409104,-9.197536693904398,0.23266469102675932,-1.5559551000206027,9.760944102515726,0.0,0.0,-0.001090830782496456,-21.900688972109158,48.35222794811978,3.6875
1772911248.1474934,-0.0005155074010447497,0.6787403365409104,-9.197536693904398,0.23834063846131223,-1.5512782398277896,9.75728317797058,-0.00045849292843160196,0.0021329396191044733,-0.003272492347489368,-20.5129968437452,49.034089779341265,2.875
1772911248.1766798,-0.0005155074010447497,0.6787403365409104,-9.197536693904398,0.2421179180745199,-1.5481658416134243,9.754846873580991,0.0,0.0,0.0,-20.5129968437452,49.034089779341265,2.875
1772911248.2013211,-0.0005155074010447497,0.6787403365409104,-9.197536693904398,0.2421179180745199,-1.5481658416134243,9.754846873580991,0.0,0.0,0.0,-20.5129968437452,49.034089779341265,2.875
1772911248.2712584,-0.0005155074010447497,0.6787403365409104,-9.197536693904398,0.23775254722609415,-1.5579515038504648,9.757717807169302,-0.0019036931548886723,-0.0015249627379838385,-0.001090830782496456,-21.167438343323592,48.509846206534135,3.25
1772911248.2965353,-0.0005155074010447497,0.6787403365409104,-9.197536693904398,0.2365917377102498,-1.5605536401266284,9.758481226164934,-0.0012957162737680377,0.0008372233453364357,0.0,-21.167438343323592,48.509846206534135,3.25
1772911248.3379514,-0.0005155074010447497,0.6787403365409104,-9.197536693904398,0.23908963896154714,-1.5615823318419697,9.762334384685898,0.0011462323210790048,-0.005332349047761183,0.0,-20.861917247996274,48.57552048087344,3.25
1772911248.368717,-0.0005155074010447497,0.6787403365409104,-9.197536693904398,0.23908963896154714,-1.5615823318419697,9.762334384685898,0.0011462323210790048,-0.005332349047761183,0.0,-20.861917247996274,48.57552048087344,3.25
1772911248.394804,-0.0005155074010447497,0.6787403365409104,-9.197536693904398,0.2374815573239004,-1.5629699155959687,9.768243730346319,-0.00045849292843160196,0.0021329396191044733,0.001090830782496456,-20.861917247996274,48.57552048087344,3.25
1772911248.4193158,-0.0005155074010447497,0.6787403365409104,-9.197536693904398,0.23641139695749538,-1.563893337083929,9.772176333871611,0.0015249627379838387,-0.0019036931548886723,0.0,-20.861917247996274,48.57552048087344,3.25
1772911248.444497,-0.0005155074010447497,0.6787403365409104,-9.197536693904398,0.23569921718812742,-1.5645078637688725,9.768103214172996,-0.0015249627379838387,0.0019036931548886723,-0.001090830782496456,-20.434187714538027,48.66746446494848,3.25
1772911248.4674945,-0.0005155074010447497,0.6787403365409104,-9.197536693904398,0.23195486249018252,-1.5656198253216684,9.765392598513296,-0.00022924646421580098,0.0010664698095522367,0.001090830782496456,-20.434187714538027,48.66746446494848,3.25
1772911248.5003924,-0.0005155074010447497,0.6787403365409104,-9.197536693904398,0.23343644419156148,-1.5689272294219507,9.763588714071327,0.0021329396191044733,0.00045849292843160196,0.0,-20.940726377203447,48.94214579526623,2.5
1772911248.5290377,-0.0005155074010447497,0.6787403365409104,-9.197536693904398,0.23343644419156148,-1.5689272294219507,9.763588714071327,0.0021329396191044733,0.00045849292843160196,0.0,-20.940726377203447,48.94214579526623,2.5
1772911248.5490956,-0.0005155074010447497,0.6787403365409104,-9.197536693904398,0.23442242026347712,-1.571128269904564,9.765733360833224,0.0008372233453364357,0.0012957162737680377,0.001090830782496456,-20.940726377203447,48.94214579526623,2.5
1772911248.5680857,-0.0005155074010447497,0.6787403365409104,-9.197536693904398,0.23442242026347712,-1.571128269904564,9.765733360833224,0.0008372233453364357,0.0012957162737680377,0.001090830782496456,-20.940726377203447,48.94214579526623,2.5
1772911248.5997555,-0.0005155074010447497,0.6787403365409104,-9.197536693904398,0.23437557541658377,-1.56932263074151,9.767160599295993,-0.0012957162737680377,0.0008372233453364357,0.001090830782496456,-20.067562400145242,48.74627359415565,3.25
1772911248.615742,-0.0005155074010447497,0.6787403365409104,-9.197536693904398,0.23437557541658377,-1.56932263074151,9.767160599295993,-0.0012957162737680377,0.0008372233453364357,0.001090830782496456,-20.067562400145242,48.74627359415565,3.25
1772911248.6371665,-0.0005155074010447497,0.6787403365409104,-9.197536693904398,0.23434440069426746,-1.5681209980488087,9.768110410549667,-0.00045849292843160196,0.0021329396191044733,-0.002181661564992912,-20.067562400145242,48.74627359415565,3.25
1772911248.6543045,-0.0005155074010447497,0.6787403365409104,-9.197536693904398,0.23434440069426746,-1.5681209980488087,9.768110410549667,-0.00045849292843160196,0.0021329396191044733,-0.002181661564992912,-20.067562400145242,48.74627359415565,3.25
1772911248.6711588,-0.0005155074010447497,0.6787403365409104,-9.197536693904398,0.2375940612818103,-1.566618324006254,9.762052275914263,0.0012957162737680377,-0.0008372233453364357,-0.002181661564992912,-20.861917247996274,48.57552048087344,3.25
1772911248.6858377,-0.0005155074010447497,0.6787403365409104,-9.197536693904398,0.2375940612818103,-1.566618324006254,9.762052275914263,0.0012957162737680377,-0.0008372233453364357,-0.002181661564992912,-20.861917247996274,48.57552048087344,3.25
1772911248.7038069,-0.0005155074010447497,0.6787403365409104,-9.197536693904398,0.23975667410173274,-1.5656183112169024,9.758020654988199,-0.00022924646421580098,0.0010664698095522367,-0.001090830782496456,-20.861917247996274,48.57552048087344,3.25
1772911248.7217398,-0.0005155074010447497,0.6787403365409104,-9.197536693904398,0.23975667410173274,-1.5656183112169024,9.758020654988199,-0.00022924646421580098,0.0010664698095522367,-0.001090830782496456,-20.861917247996274,48.57552048087344,3.25
1772911248.7467837,-0.0005155074010447497,0.6787403365409104,-9.197536693904398,0.23792546175842313,-1.5656558147851427,9.75533765629806,-0.00045849292843160196,0.0021329396191044733,-0.001090830782496456,-20.861917247996274,48.57552048087344,3.25
1772911248.773411,-0.0005155074010447497,0.6787403365409104,-9.197536693904398,0.23343640338293298,-1.5663837738995432,9.75689726234815,0.0,0.0,0.001090830782496456,-20.35537858533085,48.300839150555696,2.875
1772911248.7954013,-0.0005155074010447497,0.6787403365409104,-9.197536693904398,0.23343640338293298,-1.5663837738995432,9.75689726234815,0.0,0.0,0.001090830782496456,-20.35537858533085,48.300839150555696,2.875
1772911248.8297765,-0.0005155074010447497,0.6787403365409104,-9.197536693904398,0.23044898518011203,-1.5668682225583406,9.757935162752545,-0.0017542092021996397,0.0029701629644409092,-0.001090830782496456,-20.35537858533085,48.300839150555696,2.875
1772911248.8518193,-0.0005155074010447497,0.6787403365409104,-9.197536693904398,0.22846089173778264,-1.5671906177291242,9.758625873877563,-0.00045849292843160196,0.0021329396191044733,-0.002181661564992912,-21.97949810131633,48.71885326251257,2.875
1772911248.8749585,-0.0005155074010447497,0.6787403365409104,-9.197536693904398,0.23040824477737118,-1.5667021672052117,9.759085534415512,0.0021329396191044733,0.00045849292843160196,0.0,-21.97949810131633,48.71885326251257,2.875
1772911248.8903573,-0.0005155074010447497,0.6787403365409104,-9.197536693904398,0.23040824477737118,-1.5667021672052117,9.759085534415512,0.0021329396191044733,0.00045849292843160196,0.0,-21.97949810131633,48.71885326251257,2.875
1772911248.9112322,-0.0005155074010447497,0.6787403365409104,-9.197536693904398,0.23170418647185856,-1.5663771088378977,9.762736545076093,0.0,0.0,0.001090830782496456,-22.55513047168755,47.82798437531265,3.6875
1772911248.938602,-0.0005155074010447497,0.6787403365409104,-9.197536693904398,0.23170418647185856,-1.5663771088378977,9.762736545076093,0.0,0.0,0.001090830782496456,-22.55513047168755,47.82798437531265,3.6875
1772911248.9693947,-0.0005155074010447497,0.6787403365409104,-9.197536693904398,0.23256662119292265,-1.5661607861255904,9.758476028471609,0.00022924646421580098,-0.0010664698095522367,0.0,-22.55513047168755,47.82798437531265,3.6875
1772911248.9983182,-0.0005155074010447497,0.6787403365409104,-9.197536693904398,0.23570796797408475,-1.5620434178513543,9.762330925679052,0.0,0.0,-0.002181661564992912,-21.61287278692355,48.79766239171974,3.6875
1772911249.02705,-0.0005155074010447497,0.6787403365409104,-9.197536693904398,0.23779849916580534,-1.5593033552588673,9.764896316708583,-0.0010664698095522367,-0.00022924646421580098,0.001090830782496456,-21.61287278692355,48.79766239171974,3.6875
1772911249.0463736,-0.0005155074010447497,0.6787403365409104,-9.197536693904398,0.23918972432113178,-1.5574798742120717,9.76660355578144,-0.00022924646421580098,0.0010664698095522367,0.002181661564992912,-21.61287278692355,48.79766239171974,3.6875
1772911249.0664613,-0.0005155074010447497,0.6787403365409104,-9.197536693904398,0.23918972432113178,-1.5574798742120717,9.76660355578144,-0.00022924646421580098,0.0010664698095522367,0.002181661564992912,-21.61287278692355,48.79766239171974,3.6875
1772911249.1080296,-0.0005155074010447497,0.6787403365409104,-9.197536693904398,0.24081857002967713,-1.5595367749620475,9.767739704313316,0.0,0.0,0.0,-21.821879842901986,47.985602633727005,3.25
1772911249.1385357,-0.0005155074010447497,0.6787403365409104,-9.197536693904398,0.23933514254499424,-1.564879027359748,9.76515068676235,0.00045849292843160196,-0.0021329396191044733,0.001090830782496456,-21.821879842901986,47.985602633727005,3.25
1772911249.1540244,-0.0005155074010447497,0.6787403365409104,-9.197536693904398,0.23834793812490854,-1.568434236653548,9.763427724503403,0.0010664698095522367,0.00022924646421580098,0.001090830782496456,-21.821879842901986,47.985602633727005,3.25
1772911249.1834073,-0.0005155074010447497,0.6787403365409104,-9.197536693904398,0.23698796370245864,-1.5675297817072822,9.762281112366823,0.00022924646421580098,-0.0010664698095522367,-0.001090830782496456,-21.61287278692355,48.79766239171974,4.0
1772911249.2163486,-0.0005155074010447497,0.6787403365409104,-9.197536693904398,0.23698796370245864,-1.5675297817072822,9.762281112366823,0.00022924646421580098,-0.0010664698095522367,-0.001090830782496456,-21.61287278692355,48.79766239171974,4.0
1772911249.2677622,-0.0005155074010447497,0.6787403365409104,-9.197536693904398,0.23608291591622793,-1.566927877043966,9.761518054798426,0.0015249627379838387,-0.0019036931548886723,0.002181661564992912,-21.61287278692355,48.79766239171974,4.0
1772911249.2884257,-0.0005155074010447497,0.6787403365409104,-9.197536693904398,0.2354806167245376,-1.5665273162142448,9.764355360217888,-0.0009169858568632039,0.004265879238208947,0.0,-21.534063657716377,48.43103707732696,2.0625
1772911249.3159301,-0.0005155074010447497,0.6787403365409104,-9.197536693904398,0.23507979334059048,-1.5662607474566228,9.766243555279763,0.00045849292843160196,-0.0021329396191044733,0.002181661564992912,-21.534063657716377,48.43103707732696,2.0625
1772911249.372151,-0.0005155074010447497,0.6787403365409104,-9.197536693904398,0.2373804559643853,-1.562109941000515,9.7641550162936,0.00045849292843160196,-0.0021329396191044733,0.0,-20.434187714538027,48.66746446494848,3.6875
1772911249.4073179,-0.0005155074010447497,0.6787403365409104,-9.197536693904398,0.2373804559643853,-1.562109941000515,9.7641550162936,0.00045849292843160196,-0.0021329396191044733,0.0,-20.434187714538027,48.66746446494848,3.6875
1772911249.435563,-0.0005155074010447497,0.6787403365409104,-9.197536693904398,0.23564111422343545,-1.5600506265802003,9.762765116928817,-0.0012957162737680377,0.0008372233453364357,0.002181661564992912,-20.434187714538027,48.66746446494848,3.6875
1772911249.4834046,-0.0005155074010447497,0.6787403365409104,-9.197536693904398,0.23775400874155353,-1.5579771749288513,9.761840154427748,-0.0010664698095522367,-0.00022924646421580098,0.002181661564992912,-20.434187714538027,48.66746446494848,3.6875
1772911249.518549,-0.0005155074010447497,0.6787403365409104,-9.197536693904398,0.23775400874155353,-1.5579771749288513,9.761840154427748,-0.0010664698095522367,-0.00022924646421580098,0.002181661564992912,-20.434187714538027,48.66746446494848,3.6875
1772911249.5475016,-0.0005155074010447497,0.6787403365409104,-9.197536693904398,0.23588970942378298,-1.55730031692553,9.761224602215794,0.00022924646421580098,-0.0010664698095522367,0.001090830782496456,-21.900688972109158,48.35222794811978,2.5
1772911249.5704758,-0.0005155074010447497,0.6787403365409104,-9.197536693904398,0.2353520399620734,-1.5601202825023188,9.760814959094908,-0.0021329396191044733,-0.00045849292843160196,0.0,-21.900688972109158,48.35222794811978,2.5
1772911249.5844352,-0.0005155074010447497,0.6787403365409104,-9.197536693904398,0.2353520399620734,-1.5601202825023188,9.760814959094908,-0.0021329396191044733,-0.00045849292843160196,0.0,-21.900688972109158,48.35222794811978,2.5
1772911249.6028569,-0.0005155074010447497,0.6787403365409104,-9.197536693904398,0.23499422694146713,-1.5619969380925924,9.760542346173972,-0.00045849292843160196,0.0021329396191044733,-0.001090830782496456,-20.35537858533085,48.300839150555696,3.1875
1772911249.6217868,-0.0005155074010447497,0.6787403365409104,-9.197536693904398,0.23499422694146713,-1.5619969380925924,9.760542346173972,-0.00045849292843160196,0.0021329396191044733,-0.001090830782496456,-20.35537858533085,48.300839150555696,3.1875
1772911249.644464,-0.0005155074010447497,0.6787403365409104,-9.197536693904398,0.23475610637328703,-1.563245831424303,9.763706037027694,0.0008372233453364357,0.0012957162737680377,-0.002181661564992912,-20.35537858533085,48.300839150555696,3.1875
1772911249.6665168,-0.0005155074010447497,0.6787403365409104,-9.197536693904398,0.23786804681214402,-1.5633739550768246,9.765811437950104,0.00045849292843160196,-0.0021329396191044733,0.0,-21.08862921411642,48.14322089214135,2.875
1772911249.678898,-0.0005155074010447497,0.6787403365409104,-9.197536693904398,0.23786804681214402,-1.5633739550768246,9.765811437950104,0.00045849292843160196,-0.0021329396191044733,0.0,-21.08862921411642,48.14322089214135,2.875
1772911249.6994655,-0.0005155074010447497,0.6787403365409104,-9.197536693904398,0.23993900841155094,-1.563459219936343,9.767212558745097,0.0019036931548886723,0.0015249627379838385,-0.001090830782496456,-21.08862921411642,48.14322089214135,2.875
1772911249.713237,-0.0005155074010447497,0.6787403365409104,-9.197536693904398,0.24131721022179933,-1.5635159627478816,9.761454765567983,-0.00045849292843160196,0.0021329396191044733,0.0,-21.08862921411642,48.14322089214135,2.875
1772911249.7325118,-0.0005155074010447497,0.6787403365409104,-9.197536693904398,0.24223438813099665,-1.5635537244551017,9.760968130234696,-0.0017542092021996397,0.0029701629644409092,0.0,-21.534063657716377,48.43103707732696,2.0
1772911249.7482965,-0.0005155074010447497,0.6787403365409104,-9.197536693904398,0.23957435276701905,-1.5642818553581097,9.757299168149148,0.0,0.0,0.0,-21.534063657716377,48.43103707732696,2.0
1772911249.7719476,-0.0005155074010447497,0.6787403365409104,-9.197536693904398,0.23957435276701905,-1.5642818553581097,9.757299168149148,0.0,0.0,0.0,-21.534063657716377,48.43103707732696,2.0
1772911249.7920465,-0.0005155074010447497,0.6787403365409104,-9.197536693904398,0.23780412894683395,-1.5647664183403063,9.758202626573526,-0.00022924646421580098,0.0010664698095522367,0.0,-21.534063657716377,48.43103707732696,2.0
1772911249.8148606,-0.0005155074010447497,0.6787403365409104,-9.197536693904398,0.23662606476919654,-1.565088889592035,9.755458756355338,0.0012957162737680377,-0.0008372233453364357,0.0,-21.534063657716377,48.43103707732696,2.5
1772911249.8309908,-0.0005155074010447497,0.6787403365409104,-9.197536693904398,0.23662606476919654,-1.565088889592035,9.755458756355338,0.0012957162737680377,-0.0008372233453364357,0.0,-21.534063657716377,48.43103707732696,2.5
1772911249.8456879,0.002544835650841676,0.5840988463997633,-10.084353335755218,0.23584207621881795,-1.5653034906078205,9.760322964790813,0.0006079768811206348,0.0023621860833202744,-0.003272492347489368,-21.534063657716377,48.43103707732696,2.5
1772911249.8646364,-0.0005155074010447497,0.6787403365409104,-9.197536693904398,0.23532034059626697,-1.5654463051865752,9.760214929460533,-0.00045849292843160196,0.0021329396191044733,-0.001090830782496456,-21.534063657716377,48.43103707732696,2.5
1772911249.8937728,-0.0005155074010447497,0.6787403365409104,-9.197536693904398,0.23427013045894926,-1.5622709396763936,9.760143033155066,-0.0010664698095522367,-0.00022924646421580098,0.001090830782496456,-21.022954939777108,47.83769979681403,3.6875
1772911249.9129095,-0.0005155074010447497,0.6787403365409104,-9.197536693904398,0.2335712273441802,-1.5601577694005244,9.760095186966911,0.0008372233453364357,0.0012957162737680377,0.0,-21.022954939777108,47.83769979681403,3.6875
1772911249.925459,-0.0005155074010447497,0.6787403365409104,-9.197536693904398,0.2335712273441802,-1.5601577694005244,9.760095186966911,0.0008372233453364357,0.0012957162737680377,0.0,-21.022954939777108,47.83769979681403,3.6875
1772911249.9396672,-0.0005155074010447497,0.6787403365409104,-9.197536693904398,0.23380911603723958,-1.562021885204592,9.760063345863172,-0.00022924646421580098,0.0010664698095522367,-0.001090830782496456,-21.022954939777108,47.83769979681403,3.6875
1772911249.9568267,-0.0005155074010447497,0.6787403365409104,-9.197536693904398,0.23380911603723958,-1.562021885204592,9.760063345863172,-0.00022924646421580098,0.0010664698095522367,-0.001090830782496456,-21.022954939777108,47.83769979681403,3.6875
1772911249.9900067,-0.0005155074010447497,0.6787403365409104,-9.197536693904398,0.2339674283050798,-1.5632624334486611,9.760042155964321,0.0006079768811206348,0.0023621860833202744,-0.001090830782496456,-21.022954939777108,47.83769979681403,2.5
1772911250.0428894,-0.0005155074010447497,0.6787403365409104,-9.197536693904398,0.23407278335086354,-1.5640880044472572,9.756682942616024,0.0008372233453364357,0.0012957162737680377,0.0,-21.022954939777108,47.83769979681403,2.5
1772911250.0640414,-0.0005155074010447497,0.6787403365409104,-9.197536693904398,0.23741330297393953,-1.5639344118159118,9.754447423657604,0.0021329396191044733,0.00045849292843160196,0.002181661564992912,-21.022954939777108,47.83769979681403,2.5
1772911250.0828521,-0.0005155074010447497,0.6787403365409104,-9.197536693904398,0.23741330297393953,-1.5639344118159118,9.754447423657604,0.0021329396191044733,0.00045849292843160196,0.002181661564992912,-21.022954939777108,47.83769979681403,2.5
1772911250.127514,-0.0005155074010447497,0.6787403365409104,-9.197536693904398,0.23963638146704733,-1.5638321976354934,9.762995045885116,-0.0012957162737680377,0.0008372233453364357,-0.001090830782496456,-21.4552545285092,48.06441176293418,4.0
1772911250.171338,-0.0005155074010447497,0.6787403365409104,-9.197536693904398,0.24111581537079665,-1.5637641752402323,9.768683392994328,-0.0012957162737680377,0.0008372233453364357,-0.001090830782496456,-21.4552545285092,48.06441176293418,4.0
1772911250.1910844,-0.0005155074010447497,0.6787403365409104,-9.197536693904398,0.23882995509038243,-1.5644219080047248,9.77246892445251,0.00022924646421580098,-0.0010664698095522367,-0.001090830782496456,-21.167438343323592,48.509846206534135,3.1875
1772911250.2119296,-0.0005155074010447497,0.6787403365409104,-9.197536693904398,0.23403833359149934,-1.565562622720817,9.771643041643452,-0.0010664698095522367,-0.00022924646421580098,0.0,-21.167438343323592,48.509846206534135,3.1875
1772911250.234751,-0.0005155074010447497,0.6787403365409104,-9.197536693904398,0.233416969118233,-1.5623483476960793,9.76774831415242,-0.0010664698095522367,-0.00022924646421580098,0.002181661564992912,-21.167438343323592,48.509846206534135,3.1875
1772911250.2487857,-0.0005155074010447497,0.6787403365409104,-9.197536693904398,0.233416969118233,-1.5623483476960793,9.76774831415242,-0.0010664698095522367,-0.00022924646421580098,0.002181661564992912,-21.167438343323592,48.509846206534135,3.1875
1772911250.2890298,-0.0005155074010447497,0.6787403365409104,-9.197536693904398,0.2330034580023702,-1.560209283572921,9.758466193099457,0.0012957162737680377,-0.0008372233453364357,0.0,-20.957280665437796,47.532178701486714,4.0
1772911250.307706,-0.0005155074010447497,0.6787403365409104,-9.197536693904398,0.23343127188266416,-1.562056167310871,9.758979268641435,-0.0008372233453364357,-0.0012957162737680377,0.001090830782496456,-20.957280665437796,47.532178701486714,4.0
1772911250.336304,-0.0005155074010447497,0.6787403365409104,-9.197536693904398,0.23044557022400577,-1.5639882487161125,9.76266582639051,-0.00022924646421580098,0.0010664698095522367,-0.002181661564992912,-21.167438343323592,48.509846206534135,3.1875
1772911250.3512106,-0.0005155074010447497,0.6787403365409104,-9.197536693904398,0.23044557022400577,-1.5639882487161125,9.76266582639051,-0.00022924646421580098,0.0010664698095522367,-0.002181661564992912,-21.167438343323592,48.509846206534135,3.1875
1772911250.3646648,-0.0005155074010447497,0.6787403365409104,-9.197536693904398,0.22845861912264145,-1.565274027308537,9.76511918939097,-0.0010664698095522367,-0.00022924646421580098,-0.001090830782496456,-21.167438343323592,48.509846206534135,3.1875
1772911250.3882105,-0.0005155074010447497,0.6787403365409104,-9.197536693904398,0.23040673237738152,-1.5654266976900288,9.766751875061917,-0.00022924646421580098,0.0010664698095522367,-0.001090830782496456,-21.167438343323592,48.509846206534135,3.1875
1772911250.4041328,-0.0005155074010447497,0.6787403365409104,-9.197536693904398,0.23170317998656004,-1.5655282981234717,9.76449329743032,-0.0008372233453364357,-0.0012957162737680377,0.001090830782496456,-21.246247472530765,48.87647152092691,4.375
1772911250.4374597,-0.0005155074010447497,0.6787403365409104,-9.197536693904398,0.23256595138819966,-1.5655959120769767,9.762990239246458,0.0010664698095522367,0.00022924646421580098,-0.002181661564992912,-21.246247472530765,48.87647152092691,4.375
1772911250.460141,-0.0005155074010447497,0.6787403365409104,-9.197536693904398,0.23641052313520264,-1.5649379074990581,9.761989970815357,0.0,0.0,0.0,-21.246247472530765,48.87647152092691,4.375
1772911250.477496,-0.0005155074010447497,0.6787403365409104,-9.197536693904398,0.23641052313520264,-1.5649379074990581,9.761989970815357,0.0,0.0,0.0,-21.246247472530765,48.87647152092691,4.375
1772911250.5088773,-0.0005155074010447497,0.6787403365409104,-9.197536693904398,0.23569863566915283,-1.565203013711525,9.76132430334819,0.0012957162737680377,-0.0008372233453364357,0.001090830782496456,-21.022954939777108,47.83769979681403,3.1875
1772911250.5283353,-0.0005155074010447497,0.6787403365409104,-9.197536693904398,0.23522488251280077,-1.565379438934491,9.760881309084782,0.0010664698095522367,0.00022924646421580098,-0.001090830782496456,-21.022954939777108,47.83769979681403,3.1875
1772911250.541578,-0.0005155074010447497,0.6787403365409104,-9.197536693904398,0.23522488251280077,-1.565379438934491,9.760881309084782,0.0010664698095522367,0.00022924646421580098,-0.001090830782496456,-21.022954939777108,47.83769979681403,3.1875
1772911250.5572035,-0.0005155074010447497,0.6787403365409104,-9.197536693904398,0.23490960507941794,-1.565496847949576,9.760586501351055,-0.0015249627379838387,0.0019036931548886723,-0.001090830782496456,-21.022954939777108,47.83769979681403,3.1875
1772911250.5741713,-0.0005155074010447497,0.6787403365409104,-9.197536693904398,0.23490960507941794,-1.565496847949576,9.760586501351055,-0.0015249627379838387,0.0019036931548886723,-0.001090830782496456,-21.022954939777108,47.83769979681403,3.1875
1772911250.5965624,-0.0005155074010447497,0.6787403365409104,-9.197536693904398,0.23797019848638126,-1.5648719814288918,9.763735421804796,-0.00045849292843160196,0.0021329396191044733,-0.003272492347489368,-21.167438343323592,48.509846206534135,3.6875
1772911250.6311228,-0.0005155074010447497,0.6787403365409104,-9.197536693904398,0.239303988300968,-1.561185732722593,9.765830993191015,-0.00045849292843160196,0.0021329396191044733,0.001090830782496456,-21.167438343323592,48.509846206534135,3.6875
1772911250.6475043,-0.0005155074010447497,0.6787403365409104,-9.197536693904398,0.23692120350616716,-1.5594355762953263,9.763880460832159,0.0012957162737680377,-0.0008372233453364357,0.001090830782496456,-21.167438343323592,48.509846206534135,3.6875
1772911250.66384,-0.0005155074010447497,0.6787403365409104,-9.197536693904398,0.23692120350616716,-1.5594355762953263,9.763880460832159,0.0012957162737680377,-0.0008372233453364357,0.001090830782496456,-21.167438343323592,48.509846206534135,3.6875
1772911250.6904907,-0.0005155074010447497,0.6787403365409104,-9.197536693904398,0.23603848775135622,-1.5615412737605083,9.762582403336214,-0.0006079768811206348,-0.0023621860833202744,0.0,-21.389580254169893,47.758890667606856,3.1875
1772911250.7324395,-0.0005155074010447497,0.6787403365409104,-9.197536693904398,0.2354510502771106,-1.5629425919014048,9.761718560572914,0.00022924646421580098,-0.0010664698095522367,-0.001090830782496456,-21.389580254169893,47.758890667606856,3.1875
1772911250.7698975,-0.0005155074010447497,0.6787403365409104,-9.197536693904398,0.23506011720010672,-1.5638751534704225,9.761143682863695,0.0010664698095522367,0.00022924646421580098,-0.001090830782496456,-20.861917247996274,48.57552048087344,3.6875
1772911250.8123255,-0.0005155074010447497,0.6787403365409104,-9.197536693904398,0.23479995560436923,-1.5644957627772083,9.760761108170014,0.0015249627379838387,-0.0019036931548886723,0.0,-20.861917247996274,48.57552048087344,3.6875
1772911250.8411167,-0.0005155074010447497,0.6787403365409104,-9.197536693904398,0.23462682096860138,-1.564908771338214,9.760506508985008,-0.0003787304169048337,-0.0034286558928725112,0.0,-20.861917247996274,48.57552048087344,2.875
1772911250.8657093,-0.0005155074010447497,0.6787403365409104,-9.197536693904398,0.23451160180253847,-1.5651836239219554,9.763682187778766,-0.00045849292843160196,0.0021329396191044733,-0.001090830782496456,-20.861917247996274,48.57552048087344,2.875
1772911250.9065106,-0.0005155074010447497,0.6787403365409104,-9.197536693904398,0.23373192382592717,-1.5620961282291308,9.765795566541355,0.0012957162737680377,-0.0008372233453364357,0.001090830782496456,-21.167438343323592,48.509846206534135,2.5
1772911250.9338205,-0.0005155074010447497,0.6787403365409104,-9.197536693904398,0.23321305684206606,-1.5600414343351428,9.76385688479255,0.00022924646421580098,-0.0010664698095522367,0.002181661564992912,-21.167438343323592,48.509846206534135,2.5
1772911250.954744,-0.0005155074010447497,0.6787403365409104,-9.197536693904398,0.23684116458610915,-1.5612414646094495,9.762566713745217,-0.0021329396191044733,-0.00045849292843160196,-0.002181661564992912,-22.328418505567406,48.26028396404475,3.6875
1772911250.9984057,-0.0005155074010447497,0.6787403365409104,-9.197536693904398,0.2392556297611508,-1.5620400713517841,9.761708119325371,-0.00022924646421580098,0.0010664698095522367,0.001090830782496456,-22.328418505567406,48.26028396404475,3.6875
1772911251.0331411,-0.0005155074010447497,0.6787403365409104,-9.197536693904398,0.24086242936379776,-1.562571535217786,9.761136734330092,-0.0008372233453364357,-0.0012957162737680377,0.001090830782496456,-21.821879842901986,47.985602633727005,3.6875
1772911251.067099,-0.0005155074010447497,0.6787403365409104,-9.197536693904398,0.2386613295332318,-1.563628219392449,9.754066260583883,0.00022924646421580098,-0.0010664698095522367,0.001090830782496456,-21.821879842901986,47.985602633727005,3.6875
1772911251.0933123,-0.0005155074010447497,0.6787403365409104,-9.197536693904398,0.23719652218388637,-1.5643314309067513,9.749360939288149,0.00022924646421580098,-0.0010664698095522367,0.0,-20.651759570110478,47.59785297582602,2.875
1772911251.12031,-0.0005155074010447497,0.6787403365409104,-9.197536693904398,0.2362217092558672,-1.564799410314132,9.752919823942358,0.0,0.0,0.0,-20.651759570110478,47.59785297582602,2.875
1772911251.1612086,-0.0005155074010447497,0.6787403365409104,-9.197536693904398,0.23557298214164432,-1.5651108453820715,9.758633333631707,0.0,0.0,0.0,-20.651759570110478,47.59785297582602,2.875
1772911251.1785686,-0.0005155074010447497,0.6787403365409104,-9.197536693904398,0.23557298214164432,-1.5651108453820715,9.758633333631707,0.0,0.0,0.0,-20.651759570110478,47.59785297582602,2.875
1772911251.202305,-0.0005155074010447497,0.6787403365409104,-9.197536693904398,0.2351412614938857,-1.5653181019408275,9.762435610505884,0.0010664698095522367,0.00022924646421580098,0.0,-22.40722763477458,48.62690927843753,2.5
1772911251.2353582,-0.0005155074010447497,0.6787403365409104,-9.197536693904398,0.234853956225438,-1.5654560288654724,9.764965983291432,-0.0015249627379838387,0.0019036931548886723,-0.001090830782496456,-22.40722763477458,48.62690927843753,2.5
1772911251.252056,-0.0005155074010447497,0.6787403365409104,-9.197536693904398,0.234853956225438,-1.5654560288654724,9.764965983291432,-0.0015249627379838387,0.0019036931548886723,-0.001090830782496456,-22.40722763477458,48.62690927843753,2.5
1772911251.2888548,-0.0005155074010447497,0.6787403365409104,-9.197536693904398,0.22908869099424295,-1.5667797422928722,9.756628065565412,-0.00045849292843160196,0.0021329396191044733,-0.001090830782496456,-20.71743384444979,47.903374071153344,3.1875
1772911251.3180864,-0.0005155074010447497,0.6787403365409104,-9.197536693904398,0.22908869099424295,-1.5667797422928722,9.756628065565412,-0.00045849292843160196,0.0021329396191044733,-0.001090830782496456,-20.71743384444979,47.903374071153344,3.1875
1772911251.350008,-0.0005155074010447497,0.6787403365409104,-9.197536693904398,0.22435897761636134,-1.5678338216342234,9.75628051877573,0.00022924646421580098,-0.0010664698095522367,0.001090830782496456,-20.957280665437796,47.532178701486714,4.0
1772911251.3665154,-0.0005155074010447497,0.6787403365409104,-9.197536693904398,0.22435897761636134,-1.5678338216342234,9.75628051877573,0.00022924646421580098,-0.0010664698095522367,0.001090830782496456,-20.957280665437796,47.532178701486714,4.0
1772911251.388987,-0.0005155074010447497,0.6787403365409104,-9.197536693904398,0.22440805973394853,-1.5678332131276758,9.757524726794577,-0.0010664698095522367,-0.00022924646421580098,0.0,-20.957280665437796,47.532178701486714,4.0
1772911251.403837,-0.0005155074010447497,0.6787403365409104,-9.197536693904398,0.2277111303519195,-1.5671298072646869,9.761697845039723,0.00022924646421580098,-0.0010664698095522367,0.0,-20.22403003665223,47.68979695990106,2.875
1772911251.4262896,-0.0005155074010447497,0.6787403365409104,-9.197536693904398,0.2266388799334629,-1.567364699429105,9.761129896907764,-0.00022924646421580098,0.0010664698095522367,0.0,-20.22403003665223,47.68979695990106,2.875
1772911251.466986,-0.0005155074010447497,0.6787403365409104,-9.197536693904398,0.22919571627480187,-1.566818016631929,9.760751933770342,-0.00022924646421580098,0.0010664698095522367,-0.002181661564992912,-21.61287278692355,48.79766239171974,3.1875
1772911251.495654,-0.0005155074010447497,0.6787403365409104,-9.197536693904398,0.22919571627480187,-1.566818016631929,9.760751933770342,-0.00022924646421580098,0.0010664698095522367,-0.002181661564992912,-21.61287278692355,48.79766239171974,3.1875
1772911251.5283065,-0.0005155074010447497,0.6787403365409104,-9.197536693904398,0.22762685528122967,-1.567157206245934,9.760500403524512,-0.0003787304169048337,-0.0034286558928725112,0.002181661564992912,-21.61287278692355,48.79766239171974,3.1875
1772911251.5619528,0.002544835650841676,0.5840988463997633,-10.084353335755218,0.22658279581533303,-1.5673829331450584,9.76033301295569,0.0,0.0,0.0,-21.61287278692355,48.79766239171974,3.1875
1772911251.5803123,0.002544835650841676,0.5840988463997633,-10.084353335755218,0.22658279581533303,-1.5673829331450584,9.76033301295569,0.0,0.0,0.0,-21.61287278692355,48.79766239171974,3.1875
1772911251.5969934,-0.0005155074010447497,0.6787403365409104,-9.197536693904398,0.2258879859036872,-1.5675331518748907,9.760221616402012,0.0017542092021996397,-0.0029701629644409092,0.0,-21.167438343323592,48.509846206534135,2.0
1772911251.629277,-0.0005155074010447497,0.6787403365409104,-9.197536693904398,0.22542559766902218,-1.567633120761541,9.753457259825282,0.00045849292843160196,-0.0021329396191044733,0.0,-21.167438343323592,48.509846206534135,2.0
1772911251.645114,-0.0005155074010447497,0.6787403365409104,-9.197536693904398,0.22511788346406764,-1.5676996489388813,9.748955656086283,0.00045849292843160196,-0.0021329396191044733,0.001090830782496456,-21.167438343323592,48.509846206534135,2.0
1772911251.660998,-0.0005155074010447497,0.6787403365409104,-9.197536693904398,0.22818351011506316,-1.567040921789054,9.745959889084189,-0.00022924646421580098,0.0010664698095522367,-0.003272492347489368,-21.690531294223362,47.37456044307236,4.375
1772911251.6889145,-0.0005155074010447497,0.6787403365409104,-9.197536693904398,0.22818351011506316,-1.567040921789054,9.745959889084189,-0.00022924646421580098,0.0010664698095522367,-0.003272492347489368,-21.690531294223362,47.37456044307236,4.375
1772911251.7168894,-0.0005155074010447497,0.6787403365409104,-9.197536693904398,0.22952064949732826,-1.5633321392123083,9.747311351316524,-0.0008372233453364357,-0.0012957162737680377,-0.001090830782496456,-21.690531294223362,47.37456044307236,4.375
1772911251.7446184,-0.0005155074010447497,0.6787403365409104,-9.197536693904398,0.2336809078364,-1.5601609849286213,9.744865622628001,-0.0010664698095522367,-0.00022924646421580098,0.001090830782496456,-21.08862921411642,48.14322089214135,3.1875
1772911251.764104,-0.0005155074010447497,0.6787403365409104,-9.197536693904398,0.23644951328792152,-1.5580506171769422,9.749928240921008,-0.0008372233453364357,-0.0012957162737680377,0.001090830782496456,-21.08862921411642,48.14322089214135,3.1875
1772911251.784506,-0.0005155074010447497,0.6787403365409104,-9.197536693904398,0.23644951328792152,-1.5580506171769422,9.749928240921008,-0.0008372233453364357,-0.0012957162737680377,0.001090830782496456,-21.08862921411642,48.14322089214135,3.1875
1772911251.8152366,-0.0005155074010447497,0.6787403365409104,-9.197536693904398,0.23502158227155992,-1.5573491919212308,9.753297356841852,-0.0006079768811206348,-0.0023621860833202744,0.0,-21.08862921411642,48.14322089214135,3.1875
1772911251.8417637,-0.0005155074010447497,0.6787403365409104,-9.197536693904398,0.23407131013120586,-1.5568824012489886,9.755539465851683,-0.0008372233453364357,-0.0012957162737680377,0.001090830782496456,-21.900688972109158,48.35222794811978,3.6875
1772911251.8554506,-0.0005155074010447497,0.6787403365409104,-9.197536693904398,0.23414191554571442,-1.5598421642880045,9.757031564351726,0.0003787304169048337,0.0034286558928725112,0.0,-21.900688972109158,48.35222794811978,3.6875
1772911251.873262,-0.0005155074010447497,0.6787403365409104,-9.197536693904398,0.23414191554571442,-1.5598421642880045,9.757031564351726,0.0003787304169048337,0.0034286558928725112,0.0,-21.900688972109158,48.35222794811978,3.6875
1772911251.8943648,-0.0005155074010447497,0.6787403365409104,-9.197536693904398,0.227648088626356,-1.563217855345108,9.758024539235672,-0.0001494839526890328,-0.004495125702424748,0.0,-21.900688972109158,48.35222794811978,3.6875
1772911251.9340248,-0.0005155074010447497,0.6787403365409104,-9.197536693904398,0.2233265193523227,-1.5654643400346702,9.758685352928682,-0.0015249627379838387,0.0019036931548886723,-0.003272492347489368,-21.167438343323592,48.509846206534135,2.875
1772911251.9498796,-0.0005155074010447497,0.6787403365409104,-9.197536693904398,0.23096478523522387,-1.568120754791659,9.762470228766928,0.0010664698095522367,0.00022924646421580098,0.0,-21.167438343323592,48.509846206534135,2.875
1772911251.9702759,-0.0005155074010447497,0.6787403365409104,-9.197536693904398,0.23604796585527396,-1.5698885691383377,9.764989021357446,-0.0006079768811206348,-0.0023621860833202744,-0.001090830782496456,-21.167438343323592,48.509846206534135,2.875
1772911251.9920585,-0.0005155074010447497,0.6787403365409104,-9.197536693904398,0.23604796585527396,-1.5698885691383377,9.764989021357446,-0.0006079768811206348,-0.0023621860833202744,-0.001090830782496456,-21.167438343323592,48.509846206534135,2.875
1772911252.0098271,-0.0005155074010447497,0.6787403365409104,-9.197536693904398,0.23405135603203284,-1.5619568096959517,9.766665249689678,0.00022924646421580098,-0.0010664698095522367,-0.001090830782496456,-21.389580254169893,47.758890667606856,3.6875
1772911252.0397005,-0.0005155074010447497,0.6787403365409104,-9.197536693904398,0.23405135603203284,-1.5619568096959517,9.766665249689678,0.00022924646421580098,-0.0010664698095522367,-0.001090830782496456,-21.389580254169893,47.758890667606856,3.6875
1772911252.057217,-0.0005155074010447497,0.6787403365409104,-9.197536693904398,0.23272263449825897,-1.5566783123906023,9.767780760920083,0.00045849292843160196,-0.0021329396191044733,0.001090830782496456,-21.389580254169893,47.758890667606856,3.6875
1772911252.081979,-0.0005155074010447497,0.6787403365409104,-9.197536693904398,0.2325413860690034,-1.5564359384155706,9.76852312118284,0.00022924646421580098,-0.0010664698095522367,0.0,-21.022954939777108,47.83769979681403,3.1875
1772911252.1055017,-0.0005155074010447497,0.6787403365409104,-9.197536693904398,0.2325413860690034,-1.5564359384155706,9.76852312118284,0.00022924646421580098,-0.0010664698095522367,0.0,-21.022954939777108,47.83769979681403,3.1875
1772911252.1270304,-0.0005155074010447497,0.6787403365409104,-9.197536693904398,0.2298533611556904,-1.5602480491683604,9.769017153644997,0.00022924646421580098,-0.0010664698095522367,-0.002181661564992912,-21.022954939777108,47.83769979681403,3.1875
1772911252.143987,-0.0005155074010447497,0.6787403365409104,-9.197536693904398,0.2298533611556904,-1.5602480491683604,9.769017153644997,0.00022924646421580098,-0.0010664698095522367,-0.002181661564992912,-21.022954939777108,47.83769979681403,3.1875
1772911252.1660566,-0.0005155074010447497,0.6787403365409104,-9.197536693904398,0.2273615096944075,-1.5595145592732746,9.766000815022538,-0.0010664698095522367,-0.00022924646421580098,0.0,-20.434187714538027,48.66746446494848,2.875
1772911252.1841044,-0.0005155074010447497,0.6787403365409104,-9.197536693904398,0.2273615096944075,-1.5595145592732746,9.766000815022538,-0.0010664698095522367,-0.00022924646421580098,0.0,-20.434187714538027,48.66746446494848,2.875
1772911252.2112005,-0.0005155074010447497,0.6787403365409104,-9.197536693904398,0.22640621129140728,-1.562296836958714,9.767338587071322,0.00022924646421580098,-0.0010664698095522367,0.001090830782496456,-20.434187714538027,48.66746446494848,2.875
1772911252.2389593,-0.0005155074010447497,0.6787403365409104,-9.197536693904398,0.22577047087559304,-1.564148411678296,9.764883747718576,-0.0010664698095522367,-0.00022924646421580098,-0.001090830782496456,-21.167438343323592,48.509846206534135,3.25
1772911252.2543108,-0.0005155074010447497,0.6787403365409104,-9.197536693904398,0.2253473927305544,-1.5653806139707327,9.766595191258995,0.00022924646421580098,-0.0010664698095522367,-0.001090830782496456,-21.167438343323592,48.509846206534135,3.25
1772911252.2933128,-0.0005155074010447497,0.6787403365409104,-9.197536693904398,0.2253473927305544,-1.5653806139707327,9.766595191258995,0.00022924646421580098,-0.0010664698095522367,-0.001090830782496456,-21.167438343323592,48.509846206534135,3.25
1772911252.344118,-0.0005155074010447497,0.6787403365409104,-9.197536693904398,0.22833624596812357,-1.565497629923069,9.767734137817067,0.00022924646421580098,-0.0010664698095522367,0.0,-20.783108118789098,48.20889516648066,2.5
1772911252.3577535,-0.0005155074010447497,0.6787403365409104,-9.197536693904398,0.23429870233572625,-1.5681429088405159,9.768492094028597,0.0016744466906728713,0.0025914325475360754,-0.001090830782496456,-20.783108118789098,48.20889516648066,2.5
1772911252.3725932,-0.0005155074010447497,0.6787403365409104,-9.197536693904398,0.2375636495346852,-1.5666329053933752,9.768996505420445,-0.0006079768811206348,-0.0023621860833202744,0.001090830782496456,-20.783108118789098,48.20889516648066,2.5
1772911252.3952842,-0.0005155074010447497,0.6787403365409104,-9.197536693904398,0.2375636495346852,-1.5666329053933752,9.768996505420445,-0.0006079768811206348,-0.0023621860833202744,0.001090830782496456,-20.783108118789098,48.20889516648066,2.5
1772911252.4214766,-0.0005155074010447497,0.6787403365409104,-9.197536693904398,0.23973643542374248,-1.565628014967147,9.765987073859755,0.0017542092021996397,-0.0029701629644409092,-0.001090830782496456,-21.821879842901986,47.985602633727005,3.6875
1772911252.4433868,-0.0005155074010447497,0.6787403365409104,-9.197536693904398,0.24047939925262254,-1.561688864596854,9.763984330773669,0.00022924646421580098,-0.0010664698095522367,0.0,-21.821879842901986,47.985602633727005,3.6875
1772911252.4598844,-0.0005155074010447497,0.6787403365409104,-9.197536693904398,0.24047939925262254,-1.561688864596854,9.763984330773669,0.00022924646421580098,-0.0010664698095522367,0.0,-21.821879842901986,47.985602633727005,3.6875
1772911252.475938,-0.0005155074010447497,0.6787403365409104,-9.197536693904398,0.23770342636429256,-1.5597704049372956,9.759306415914667,0.00022924646421580098,-0.0010664698095522367,0.002181661564992912,-21.821879842901986,47.985602633727005,3.6875
1772911252.4961982,-0.0005155074010447497,0.6787403365409104,-9.197536693904398,0.23912645443375785,-1.5577906905557792,9.759538427539052,0.00022924646421580098,-0.0010664698095522367,-0.001090830782496456,-21.534063657716377,48.43103707732696,4.0
1772911252.517116,-0.0005155074010447497,0.6787403365409104,-9.197536693904398,0.23912645443375785,-1.5577906905557792,9.759538427539052,0.00022924646421580098,-0.0010664698095522367,-0.001090830782496456,-21.534063657716377,48.43103707732696,4.0
1772911252.541325,-0.0005155074010447497,0.6787403365409104,-9.197536693904398,0.24147946553507957,-1.5630140267837385,9.759692828683342,0.0,0.0,-0.002181661564992912,-21.534063657716377,48.43103707732696,4.0
1772911252.5764828,-0.0005155074010447497,0.6787403365409104,-9.197536693904398,0.24163936632079522,-1.5599492846609566,9.759795580920093,-0.00022924646421580098,0.0010664698095522367,-0.001090830782496456,-19.316606861217966,48.524131683309356,3.1875
1772911252.60013,-0.0005155074010447497,0.6787403365409104,-9.197536693904398,0.23917837239915912,-1.5618831409393368,9.759863961385832,-0.0012957162737680377,0.0008372233453364357,-0.001090830782496456,-19.316606861217966,48.524131683309356,3.1875
1772911252.6207435,-0.0005155074010447497,0.6787403365409104,-9.197536693904398,0.23754060843541372,-1.5631701006900087,9.759909467821922,-0.00022924646421580098,0.0010664698095522367,0.001090830782496456,-19.316606861217966,48.524131683309356,3.1875
1772911252.6528292,-0.0005155074010447497,0.6787403365409104,-9.197536693904398,0.23645069481256337,-1.5640265580277986,9.75659464013948,-0.00022924646421580098,0.0010664698095522367,0.0,-21.08862921411642,48.14322089214135,2.0
1772911252.6665318,-0.0005155074010447497,0.6787403365409104,-9.197536693904398,0.23645069481256337,-1.5640265580277986,9.75659464013948,-0.00022924646421580098,0.0010664698095522367,0.0,-21.08862921411642,48.14322089214135,2.0
1772911252.70333,-0.0005155074010447497,0.6787403365409104,-9.197536693904398,0.23524267355975265,-1.5649758246893801,9.752920603770137,-0.0023621860833202744,0.0006079768811206347,-0.001090830782496456,-21.08862921411642,48.14322089214135,2.0
1772911252.7253733,-0.0005155074010447497,0.6787403365409104,-9.197536693904398,0.23524267355975265,-1.5649758246893801,9.752920603770137,-0.0023621860833202744,0.0006079768811206347,-0.001090830782496456,-21.08862921411642,48.14322089214135,2.0
1772911252.7443178,-0.0005155074010447497,0.6787403365409104,-9.197536693904398,0.23492144482242547,-1.5652282471781216,9.751943629183744,-0.0015249627379838387,0.0019036931548886723,0.0,-19.70093708575246,48.825082723362826,2.875
1772911252.769978,-0.0005155074010447497,0.6787403365409104,-9.197536693904398,0.23797807770309418,-1.564693230615956,9.751293463510022,-0.0006877393926474029,0.0031994094286567102,0.0,-19.70093708575246,48.825082723362826,2.875
1772911252.8066447,-0.0005155074010447497,0.6787403365409104,-9.197536693904398,0.23603882481467398,-1.5617697769620404,9.750860785516986,0.0,0.0,0.0,-20.861917247996274,48.57552048087344,2.875
1772911252.8197076,-0.0005155074010447497,0.6787403365409104,-9.197536693904398,0.23545127458898335,-1.5630946582294767,9.75391795485327,-0.008840767452160463,0.004794093607802813,-0.004363323129985824,-20.861917247996274,48.57552048087344,2.875
1772911252.844986,-0.013837503212658857,0.671425083764413,-9.189826704272456,0.20749100852379573,-1.563059545148493,9.755952466895748,0.018050224250861256,0.0094587854036456,-0.01090830782496456,-20.861917247996274,48.57552048087344,2.875
1772911252.8572223,-0.013837503212658857,0.671425083764413,-9.189826704272456,0.20749100852379573,-1.563059545148493,9.755952466895748,0.018050224250861256,0.0094587854036456,-0.01090830782496456,-20.861917247996274,48.57552048087344,2.875
1772911252.8839886,-0.013874635818351862,0.672906693506836,-9.175961325706274,0.18747776197669283,-1.5564953637513372,9.784067305591583,0.004495125702424748,-0.0001494839526890327,-0.001090830782496456,-20.783108118789098,48.20889516648066,2.0625
1772911252.9006371,-0.013874635818351862,0.672906693506836,-9.175961325706274,0.18747776197669283,-1.5564953637513372,9.784067305591583,0.004495125702424748,-0.0001494839526890327,-0.001090830782496456,-20.783108118789098,48.20889516648066,2.0625
1772911252.9373846,-0.006201425439133554,0.6734857547094062,-9.175419101132144,0.203592833115207,-1.5457999661801314,9.802777416680334,-0.0008372233453364357,-0.0012957162737680377,0.006544984694978736,-20.783108118789098,48.20889516648066,2.0625
1772911252.9664319,-0.006201425439133554,0.6734857547094062,-9.175419101132144,0.21572323475810598,-1.5452231126059128,9.781777669531069,-0.004495125702424748,0.0001494839526890327,0.003272492347489368,-21.389580254169893,47.758890667606856,2.875
1772911252.9891284,-0.006201425439133554,0.6734857547094062,-9.175419101132144,0.2237958815459902,-1.544839222996147,9.76780257238578,0.006548302810002453,0.005870604487719553,-0.007635815477475192,-21.389580254169893,47.758890667606856,2.875
1772911253.0064166,-0.006201425439133554,0.6734857547094062,-9.175419101132144,0.22424713144520203,-1.5216908996301768,9.77188274817693,0.0010664698095522367,0.00022924646421580098,-0.003272492347489368,-21.389580254169893,47.758890667606856,2.875
1772911253.0284712,-0.006201425439133554,0.6734857547094062,-9.175419101132144,0.2278178402293357,-1.50558294810516,9.77459805958739,-0.005332349047761183,-0.0011462323210790048,0.003272492347489368,-19.98875327093807,48.37964827976287,2.875
1772911253.0548513,-0.006201425439133554,0.6734857547094062,-9.175419101132144,0.2278178402293357,-1.50558294810516,9.77459805958739,-0.005332349047761183,-0.0011462323210790048,0.003272492347489368,-19.98875327093807,48.37964827976287,2.875
1772911253.1081276,-0.06951950716303083,0.6758633345126877,-9.106487580129247,0.2276021758867787,-1.5479007145630932,9.760893875033288,0.04973530956168579,0.022964244651648848,-0.039269908169872414,-19.70093708575246,48.825082723362826,1.6875
1772911253.140609,-0.09724963993482252,0.6736375749511756,-9.106414567550294,0.21559374661204983,-1.5671911777249492,9.800736204337248,0.007006795738434055,0.00373766486861508,-0.028361600344907856,-19.70093708575246,48.825082723362826,1.6875
1772911253.1662803,-0.09724963993482252,0.6736375749511756,-9.106414567550294,0.21559374661204983,-1.5671911777249492,9.800736204337248,0.007006795738434055,0.00373766486861508,-0.028361600344907856,-19.70093708575246,48.825082723362826,1.6875
1772911253.1795933,-0.1111141660931058,0.6725247515510239,-9.106377658720737,0.20268126471191042,-1.5571359163515726,9.827250829421052,-0.007006795738434055,-0.00373766486861508,0.0,-20.783108118789098,48.20889516648066,3.1875
1772911253.1949613,-0.1111141660931058,0.6725247515510239,-9.106377658720737,0.20268126471191042,-1.5571359163515726,9.827250829421052,-0.007006795738434055,-0.00373766486861508,0.0,-20.783108118789098,48.20889516648066,3.1875
1772911253.2161553,-0.1041819480729391,0.6730811585426993,-9.106396146678,0.22679222241924019,-1.5434142431454314,9.824825345982639,-0.00959822828597013,-0.0020632181779422086,0.011999138607461015,-20.783108118789098,48.20889516648066,3.1875
1772911253.241481,-0.1041634485991884,0.6723349004244271,-9.113328376214653,0.24283779543642284,-1.5342826229078776,9.823211213848799,-0.010355689119779797,-0.00892052996368723,0.007635815477475192,-20.783108118789098,48.20889516648066,3.1875
1772911253.255753,-0.1041634485991884,0.6723349004244271,-9.113328376214653,0.24283779543642284,-1.5342826229078776,9.823211213848799,-0.010355689119779797,-0.00892052996368723,0.007635815477475192,-20.783108118789098,48.20889516648066,3.1875
1772911253.2798893,-0.1041634485991884,0.6723349004244271,-9.113328376214653,0.22805568981124283,-1.537100045933098,9.818791915237448,-0.007694535131081458,-0.0005382554399583703,-0.009817477042468103,-21.389580254169893,47.758890667606856,2.0
1772911253.2967613,-0.1041634485991884,0.6723349004244271,-9.113328376214653,0.2231393700053768,-1.5618678586027037,9.819196033085712,-0.00464460965511378,-0.004345641749735715,-0.004363323129985824,-21.389580254169893,47.758890667606856,2.0
1772911253.3308744,-0.1041634485991884,0.6723349004244271,-9.113328376214653,0.23621964917846294,-1.5748355567163361,9.81611985729212,-0.0016047252495106068,0.007465288666865657,0.002181661564992912,-20.783108118789098,48.20889516648066,2.875
1772911253.3434956,-0.1041634485991884,0.6723349004244271,-9.113328376214653,0.23621964917846294,-1.5748355567163361,9.81611985729212,-0.0016047252495106068,0.007465288666865657,0.002181661564992912,-20.783108118789098,48.20889516648066,2.875
1772911253.3573725,-0.1041634485991884,0.6723349004244271,-9.113328376214653,0.24281542612582294,-1.5736541939012794,9.797347138128023,-0.005182865095072151,0.0033488933813457427,-0.001090830782496456,-20.783108118789098,48.20889516648066,2.875
1772911253.3801947,-0.12100319575711131,0.698930241611808,-9.116837441001413,0.23412321393663538,-1.5756800137792617,9.78485410322933,-0.009149776427903033,0.011422158929332035,-0.011999138607461015,-20.783108118789098,48.20889516648066,2.875
1772911253.4143713,-0.0878394615767909,0.7302062331048549,-9.112413986787386,0.20871620172110422,-1.5812461797302413,9.776540128060594,0.007993503036459524,0.009528506844807865,0.025089107997418487,-20.22403003665223,47.68979695990106,3.1875
1772911253.454171,-0.05119529556323732,0.7914784637995919,-9.160789859126684,0.1735916786219495,-1.595709220478543,9.76766215875167,-0.03772525589196212,0.019784351312331888,0.017453292519943295,-20.22403003665223,47.68979695990106,3.1875
1772911253.4742856,0.051895022950430685,0.8177450255157713,-9.19033815605629,0.17200972903513784,-1.7067168300607825,9.778479527886592,-0.02757873109566912,-0.0014652823671860778,0.11126473981463851,-20.22403003665223,47.68979695990106,3.1875
1772911253.4953663,0.051895022950430685,0.8177450255157713,-9.19033815605629,0.17200972903513784,-1.7067168300607825,9.778479527886592,-0.02757873109566912,-0.0014652823671860778,0.11126473981463851,-20.22403003665223,47.68979695990106,3.1875
1772911253.513532,0.36943653798750015,0.906785421434999,-9.187420356471169,0.17703936990836464,-1.7929697813608336,9.785678366207952,-0.010605017724724606,0.023382573298622436,0.19853120241435498,-21.08862921411642,48.14322089214135,3.1875
1772911253.5360935,0.36943653798750015,0.906785421434999,-9.187420356471169,0.17703936990836464,-1.7929697813608336,9.785678366207952,-0.010605017724724606,0.023382573298622436,0.19853120241435498,-21.08862921411642,48.14322089214135,3.1875
1772911253.5730438,1.4032868043366997,1.696631779101842,-8.625881199107477,-0.010290306746495156,-2.009863316891145,9.871702027473969,0.17575722214985373,0.24642537955050745,0.31525009614147576,-22.24960937636023,47.89365864965197,3.6875
1772911253.5988855,1.8497915622556362,2.23568430779843,-8.003584422938198,-0.1969866228825345,-2.1243054108639585,9.971486031490615,0.29682608215855455,0.35278399972210683,0.31634092692397225,-22.24960937636023,47.89365864965197,3.6875
1772911253.6291223,1.8497915622556362,2.23568430779843,-8.003584422938198,-0.1969866228825345,-2.1243054108639585,9.971486031490615,0.29682608215855455,0.35278399972210683,0.31634092692397225,-22.24960937636023,47.89365864965197,3.6875
1772911253.6475303,2.2348759489355285,3.1627150070902617,-7.758630729932285,-0.31560692846713645,-2.226628602136911,10.047926506625291,0.3117064541404634,0.4340850338530216,0.29670597283903605,-21.519778180941152,46.58020559522134,3.1875
1772911253.6625283,2.2348759489355285,3.1627150070902617,-7.758630729932285,-0.31560692846713645,-2.226628602136911,10.047926506625291,0.3117064541404634,0.4340850338530216,0.29670597283903605,-21.519778180941152,46.58020559522134,3.1875
1772911253.69148,2.6213752178960297,3.9864586156301445,-7.548803975717187,-0.3882204085799436,-2.3241572060571185,10.088761453809402,0.3218429378663919,0.4284537168998824,0.3119776037939864,-21.519778180941152,46.58020559522134,3.1875
1772911253.7241378,3.2432335832837875,4.835770518052045,-7.444201760524339,-0.39705438671890275,-2.3976804275896577,10.082485537930985,0.27228723546848865,0.3631296477715221,0.35124751196385884,-21.48778779402422,44.34961394385506,2.0
1772911253.7636857,4.054211826417768,5.381408387547818,-7.50225447509679,-0.40036589438005704,-2.442635902285685,10.078308986020474,0.17035515166093027,0.23522242601502671,0.42978732830360367,-21.48778779402422,44.34961394385506,2.0
1772911253.7981431,5.06319811301816,5.663305706090461,-7.728991987825297,-0.3960288517025911,-2.471147266692977,10.098945319330406,0.017262640205958076,0.04945642379703673,0.5094179754258449,-19.984150783308632,41.22073922760222,0.5
1772911253.8213503,5.9234196265500225,5.703743926071808,-7.8892001375305245,-0.39503779511882503,-2.4494703751918645,10.116023680332537,-0.050323204302077415,-0.05656306418772655,0.5465062220307244,-19.984150783308632,41.22073922760222,0.5
1772911253.8405144,5.9234196265500225,5.703743926071808,-7.8892001375305245,-0.39503779511882503,-2.4494703751918645,10.116023680332537,-0.050323204302077415,-0.05656306418772655,0.5465062220307244,-19.984150783308632,41.22073922760222,0.5
1772911253.8661509,6.9602462361255935,5.684863911116969,-7.973679500123704,-0.34373313677541434,-2.3523060805140448,10.127389138801663,-0.09157639468777856,-0.11898669179280816,0.6119560689805118,-19.984150783308632,41.22073922760222,0.5
1772911253.9074845,9.064679827933055,5.522168394827699,-8.118557893267866,-0.21329968079811307,-2.0407475798944583,9.969468249089948,-0.05374125307319616,-0.1911875887962532,0.7744898555724837,-20.828711374460795,30.874695362536087,-1.5
1772911253.924914,9.064679827933055,5.522168394827699,-8.118557893267866,-0.21329968079811307,-2.0407475798944583,9.969468249089948,-0.05374125307319616,-0.1911875887962532,0.7744898555724837,-20.828711374460795,30.874695362536087,-1.5
1772911253.9463272,10.929041106542808,5.3154414709917575,-8.199119943542668,-0.17847033876310628,-1.9681333972928317,9.869292774489825,-0.021537994463142262,-0.15414003122657396,0.8377580409572782,-20.070309225491275,25.859579343894204,-3.5
1772911253.9641516,13.010492103941198,5.346906180614266,-8.3756294797258,-0.1519906020205489,-1.9670011699803738,9.802627115176817,-0.0464360554807733,-0.05907473422373586,0.9653852425093635,-20.070309225491275,25.859579343894204,-3.5
1772911253.996015,13.010492103941198,5.346906180614266,-8.3756294797258,-0.1519906020205489,-1.9670011699803738,9.802627115176817,-0.0464360554807733,-0.05907473422373586,0.9653852425093635,-20.070309225491275,25.859579343894204,-3.5
1772911254.0154037,14.767740272937212,5.5866378125623015,-8.270153841423527,-0.13831124927159252,-2.0115749802074543,9.75826186360822,-0.031226592382392927,-0.015638398867107724,1.0602875205865552,-18.640878856353417,15.938420889873504,-11.0
1772911254.036876,16.01557421629609,5.773912817592976,-8.19195729074525,-0.13574860685954435,-2.0426443548088487,9.554791475501045,-0.04472201056003167,0.0004283697173380908,1.150826475533761,-18.640878856353417,15.938420889873504,-11.0
1772911254.0646539,16.01557421629609,5.773912817592976,-8.19195729074525,-0.13574860685954435,-2.0426443548088487,9.554791475501045,-0.04472201056003167,0.0004283697173380908,1.150826475533761,-18.640878856353417,15.938420889873504,-11.0
1772911254.0926251,18.843609382593282,6.08421376953312,-8.006572477741653,-0.128205383835597,-2.0586442677040635,9.406003758299605,-0.03782453449282864,-0.06280235802198644,1.299179461953279,-19.45977748107913,13.20528532016198,-17.6875
1772911254.1268432,21.29020628129053,6.2832355357827385,-7.80966786189049,-0.07562772475035415,-1.9085221004488053,9.30698719456975,-0.02302335897105735,-0.0953246666781474,1.4671674024577332,-19.45977748107913,13.20528532016198,-17.6875
1772911254.152378,24.832577134574162,6.762670884126212,-7.501608108043417,0.046867733578744644,-1.6426819406714874,9.274543894568216,-0.033848148141022515,0.032890998002701295,1.6504269739171378,-19.623659295272773,10.101529691737507,-22.5
1772911254.1783693,28.57204274460228,7.3788244711034086,-6.990312546116527,0.15885899349477706,-1.2573482499749196,9.306475028149714,0.015039897004962333,0.07017784310696082,1.7038776822594641,-19.623659295272773,10.101529691737507,-22.5
1772911254.2005813,30.502595457913134,7.731053279725188,-6.614677813855758,0.23338792594455268,-1.000912983275719,9.331069952561387,0.07664581735404724,0.11577724129378694,1.7453292519943295,-19.623659295272773,10.101529691737507,-22.5
1772911254.2191014,32.46447234329116,8.121725951377478,-6.175525945549685,0.20391649531249303,-1.0354385965044555,9.514693185380017,0.1019716820376271,0.18481889315003328,1.786780821729195,-21.238063389756878,8.987368271783936,-33.5
1772911254.2472563,35.368967104108535,8.658983044594812,-5.646391871645981,0.07732775431838643,-1.1019394794288884,9.804147980980872,-0.0025222771577630733,0.13111610620412736,1.7115134977369395,-21.238063389756878,8.987368271783936,-33.5
1772911254.277154,37.97770319616789,9.018752950346563,-5.308629931569062,-0.12691151657721306,-1.2883209527114259,10.133926494031407,-0.075510192154722,0.013893664683883325,1.4748032179352084,-21.238063389756878,8.987368271783936,-33.5
1772911254.3003335,37.97770319616789,9.018752950346563,-5.308629931569062,-0.12691151657721306,-1.2883209527114259,10.133926494031407,-0.075510192154722,0.013893664683883325,1.4748032179352084,-21.238063389756878,8.987368271783936,-33.5
1772911254.346018,40.799120498667186,9.10252195438883,-5.168575656319808,-0.262830469856088,-1.4123557411634782,10.353390410599168,-0.1122481746972694,-0.07991608032664474,1.2893619849108109,-24.168221782486334,10.722830182491608,-42.0625
1772911254.372106,43.21635189802476,8.841679569323679,-5.120029347353623,-0.23961414527418282,-1.3233399656060836,10.298734493063268,-0.09057908026799931,-0.24819910484204682,1.0461067204141012,-24.168221782486334,10.722830182491608,-42.0625
1772911254.3951993,44.99958306476613,8.601888700855067,-4.994169039147905,-0.007278839877325354,-1.0156098755553848,10.018168435855415,-0.03214244613647761,-0.25014239622700424,1.0450158896316049,-23.016957041743897,12.504567956891433,-46.0625
1772911254.4134746,44.99958306476613,8.601888700855067,-4.994169039147905,-0.007278839877325354,-1.0156098755553848,10.018168435855415,-0.03214244613647761,-0.25014239622700424,1.0450158896316049,-23.016957041743897,12.504567956891433,-46.0625
1772911254.434807,46.74422143107615,8.35202137549932,-4.859436851161023,0.1459317086915092,-0.8042781241629903,9.831454858911805,-0.02018203176718721,-0.2486871549301827,1.0231992739816758,-23.016957041743897,12.504567956891433,-46.0625
1772911254.4557583,47.7948862012132,8.209219047133457,-4.842323864451312,0.20537632606910222,-0.6727782161545215,9.92128620845159,-0.09363904681433151,-0.22877340180589076,0.8944812416470939,-23.016957041743897,12.504567956891433,-46.0625
1772911254.48189,49.471195829972544,7.881879242731713,-5.033034230494766,0.1900729281841897,-0.6483826197536824,10.141633330039722,-0.15602251013795512,-0.24999347832570448,0.6992225315802283,-23.774783879759738,16.624820344013237,-53.5
1772911254.5108337,50.0629852262879,7.696202482407457,-5.1311056223491,0.17988868784193593,-0.6321476228655918,10.288271878017996,-0.09256253593441476,-0.2441624720680537,0.4821472058634335,-23.774783879759738,16.624820344013237,-53.5
1772911254.530481,50.0629852262879,7.696202482407457,-5.1311056223491,0.17988868784193593,-0.6321476228655918,10.288271878017996,-0.09256253593441476,-0.2441624720680537,0.4821472058634335,-23.774783879759738,16.624820344013237,-53.5
1772911254.5517242,50.79901223604598,7.365780662503011,-5.1261508572776995,0.2298387215690419,-0.5509834754221127,10.048001911198368,0.04014825444885868,-0.23348716685077756,0.4068798818711781,-23.774783879759738,16.624820344013237,-53.5
1772911254.569781,51.938023243379995,6.990771825094404,-4.6830042979313165,0.44848392922890473,-0.34078374522797084,9.613805772271109,0.2062682161340628,-0.16542161517080295,0.5137812985558308,-23.588627100150543,19.030159852981882,-60.5
1772911254.5964475,52.686132936069114,6.841940182669839,-4.396323676230393,0.5827418579606777,-0.1485716605966112,9.324853092103695,0.20686615194481892,-0.14744111236110397,0.6697701004528239,-23.588627100150543,19.030159852981882,-60.5
1772911254.6239052,53.446935742978845,6.719101550996619,-4.167710958405323,0.6164920904833424,-0.032607680871654235,9.296468784923862,0.13096718830282758,-0.12135778684371443,0.6741334235828098,-23.588627100150543,19.030159852981882,-60.5
1772911254.644224,54.62110389858268,6.620322359347354,-3.9876736647926085,0.6072576048184583,-0.07857980179276279,9.408038702154627,-0.027219516768104034,-0.08618493132060888,0.7035858547102141,-22.64179936011269,19.68118191919379,-62.0625
1772911254.6709619,54.62110389858268,6.620322359347354,-3.9876736647926085,0.6072576048184583,-0.07857980179276279,9.408038702154627,-0.027219516768104034,-0.08618493132060888,0.7035858547102141,-22.64179936011269,19.68118191919379,-62.0625
1772911254.6913855,55.78457754915167,6.629862430019618,-4.144235898337628,0.49603152150866564,-0.19334909374195658,9.512393241119938,-0.16512321331681412,-0.07789302643016055,0.6915867161027531,-22.64179936011269,19.68118191919379,-62.0625
1772911254.706147,56.93064511266626,6.669614331688656,-4.4044450434422755,0.42347939070112556,-0.37205699143921883,9.581840021084771,-0.20885851657882035,-0.07167381473662968,0.6904958853202566,-23.202603375110602,22.884871020333634,-65.5625
1772911254.7291899,57.72463251140534,6.700174531674659,-4.502724213146439,0.37519675810911257,-0.4909851010587264,9.470835827135993,-0.14761124450591126,-0.06073970589543349,0.717766654882668,-23.202603375110602,22.884871020333634,-65.5625
1772911254.7430482,57.72463251140534,6.700174531674659,-4.502724213146439,0.37519675810911257,-0.4909851010587264,9.470835827135993,-0.14761124450591126,-0.06073970589543349,0.717766654882668,-23.202603375110602,22.884871020333634,-65.5625
1772911254.7601306,58.972510994870596,6.774085347169173,-4.540801455109988,0.35428242833983115,-0.5745622408044394,9.396963776061176,-0.10594920049221175,-0.041742372576615526,0.743946593662583,-23.202603375110602,22.884871020333634,-65.5625
1772911254.77615,58.972510994870596,6.774085347169173,-4.540801455109988,0.35428242833983115,-0.5745622408044394,9.396963776061176,-0.10594920049221175,-0.041742372576615526,0.743946593662583,-23.202603375110602,22.884871020333634,-65.5625
1772911254.800291,60.65245729122547,7.107479836115537,-4.50596230608444,0.3403641755067458,-0.6301818936873872,9.511713224934415,-0.08802894410469977,0.05136959197090064,0.767944870877505,-21.801776391878782,23.505628632489646,-67.5625
1772911254.850317,61.91116855389046,7.023419083889298,-4.457728213600981,0.33110173372339896,-0.667196151368756,9.588077701324222,-0.1213394028571532,0.19595099314157322,0.7668540400950086,-21.801776391878782,23.505628632489646,-67.5625
1772911254.8915746,65.28639768312694,8.166940807219586,-3.9156838575606105,0.5428834678767119,-0.5214129582327283,9.430880353720505,-0.0031207790199084605,0.2325205416934811,0.980656873464314,-21.874321965306656,27.70926020409247,-71.0
1772911254.9143665,65.28639768312694,8.166940807219586,-3.9156838575606105,0.5428834678767119,-0.5214129582327283,9.430880353720505,-0.0031207790199084605,0.2325205416934811,0.980656873464314,-21.874321965306656,27.70926020409247,-71.0
1772911254.9316819,67.01239734952348,8.688203613527659,-3.5601960399209296,0.6344696402325112,-0.45592537663893357,9.346958072883817,0.008749831767490668,0.2551556952286584,1.064650843716541,-21.874321965306656,27.70926020409247,-71.0
1772911254.9450264,68.18911752885116,9.018151164911485,-3.3225406960667803,0.5527750854051964,-0.5764460435467763,9.220861386606597,-0.0066989188654700054,0.2284041464079612,1.0602875205865552,-21.849778188431973,30.271642660521785,-73.75
1772911254.959514,68.18911752885116,9.018151164911485,-3.3225406960667803,0.5527750854051964,-0.5764460435467763,9.220861386606597,-0.0066989188654700054,0.2284041464079612,1.0602875205865552,-21.849778188431973,30.271642660521785,-73.75
1772911254.9747007,69.31121000315648,9.292990287804948,-3.181905303397381,0.3531659445312478,-0.7768318289458207,9.106839445115513,-0.09861444574008464,0.16290047011581837,0.9937468428542714,-21.849778188431973,30.271642660521785,-73.75
1772911254.9996758,70.76972723936919,9.569678882446594,-3.212739093979506,0.20354864426306032,-0.9753806651570988,9.03095911676174,-0.20779261282065736,0.04794037002663887,0.8072147790473774,-21.849778188431973,30.271642660521785,-73.75
1772911255.0138996,70.76972723936919,9.569678882446594,-3.212739093979506,0.20354864426306032,-0.9753806651570988,9.03095911676174,-0.20779261282065736,0.04794037002663887,0.8072147790473774,-21.849778188431973,30.271642660521785,-73.75
1772911255.0451825,73.18469572018203,9.774054339778536,-3.548544798735673,0.1625734841497794,-0.9804226580099579,9.271201892171035,-0.1933199623639684,-0.06610217815428818,0.7221299780126539,-17.83118520688658,32.98937456390632,-76.0625
1772911255.0689964,73.18469572018203,9.774054339778536,-3.548544798735673,0.1625734841497794,-0.9804226580099579,9.271201892171035,-0.1933199623639684,-0.06610217815428818,0.7221299780126539,-17.83118520688658,32.98937456390632,-76.0625
1772911255.0871656,74.51161817604984,9.751081469326605,-3.547049910957653,0.3056998296298378,-0.791344854242658,9.501612553618846,-0.12412882655503304,-0.08693291713544331,0.7843073326149519,-17.83118520688658,32.98937456390632,-76.0625
1772911255.113002,74.51161817604984,9.751081469326605,-3.547049910957653,0.3056998296298378,-0.791344854242658,9.501612553618846,-0.12412882655503304,-0.08693291713544331,0.7843073326149519,-17.83118520688658,32.98937456390632,-76.0625
1772911255.1392622,76.44712917056444,9.602154826795422,-3.486622064774523,0.3932158037253109,-0.6295412107859828,9.65494827495663,-0.06620032465237619,-0.1280366235684554,0.868301302867179,-18.972766958483238,36.51571435956151,-80.0625
1772911255.1755555,77.91685127203584,9.258266806099394,-3.8472702127510123,0.37296693846036455,-0.5387347153389852,9.756991484634685,-0.25162606258075154,-0.26719700421225406,0.5945027764605685,-18.972766958483238,36.51571435956151,-80.0625
1772911255.2212577,78.65550164162823,8.905818816994588,-4.067979160869216,0.2558784937237784,-0.6648095819745315,9.834935435900048,-0.13833093416326966,-0.2751999822676888,0.4134248665661568,-20.21712630520807,36.95143338166009,-80.5
1772911255.2594001,79.66462828904226,8.416892170456817,-3.9242727542753078,0.1779574417152096,-0.7487109973719482,9.88680626477616,0.14154264886784793,-0.21727034826225344,0.46142142099600086,-20.21712630520807,36.95143338166009,-80.5
1772911255.2724614,80.48391758939542,7.842026595435122,-3.52539191396208,0.21388285477439503,-0.7035606545929891,9.764105471714077,0.22288328122883147,-0.17523904885062436,0.47778388273344774,-23.4842208692281,39.956949037874644,-81.0625
1772911255.292587,81.01706765719698,7.234364184163822,-3.28557397185843,0.23779081585212386,-0.6735136058359679,9.68244946458893,0.22405907070961473,-0.10804140977846895,0.46687557490848314,-23.4842208692281,39.956949037874644,-81.0625
1772911255.3069446,81.01706765719698,7.234364184163822,-3.28557397185843,0.23779081585212386,-0.6735136058359679,9.68244946458893,0.22405907070961473,-0.10804140977846895,0.46687557490848314,-23.4842208692281,39.956949037874644,-81.0625
1772911255.3420253,81.75424373916138,7.092038793493445,-2.9676775163056215,0.1824861350851139,-0.7201487585076662,9.638143639126469,0.120491572390063,-0.062243454389909796,0.4188790204786391,-23.4842208692281,39.956949037874644,-81.0625
1772911255.3633826,82.63651612945232,7.020647386075196,-2.8162853034856057,0.10603978358315783,-0.8691939734707854,9.638764612575574,0.006578426021095964,-0.040984345691416596,0.385063266221249,-23.117595554835315,40.035758167081816,-81.875
1772911255.3840475,83.01461263309983,6.698059204885071,-3.0632774475959317,0.05586859152898518,-0.971652306101598,9.67262898054242,-0.049336497004051946,-0.05077222221153377,0.36324665057131983,-23.117595554835315,40.035758167081816,-81.875
1772911255.4052813,83.60907594174152,6.5054210083489385,-3.2300895904902465,-0.0029800315614492844,-1.0487315962192658,9.731961567915093,-0.08688214573223153,-0.07334769537591328,0.35015668118136234,-23.117595554835315,40.035758167081816,-81.875
1772911255.4305525,84.13300994701792,6.145896996386073,-3.5066054559807833,-0.01668287761861989,-1.0911325884740553,9.821623417632969,-0.09929101195958903,-0.08828831378000909,0.31852258848896514,-25.990644472819476,41.20814725133245,-83.5
1772911255.4764845,84.13300994701792,6.145896996386073,-3.5066054559807833,-0.01668287761861989,-1.0911325884740553,9.821623417632969,-0.09929101195958903,-0.08828831378000909,0.31852258848896514,-25.990644472819476,41.20814725133245,-83.5
1772911255.4966433,84.82700012764313,6.0286925340806174,-3.623530197862723,-0.02653576117802973,-1.0681848671884648,9.881292377031727,-0.03645909677789834,-0.053582860152921144,0.2181661564992912,-25.990644472819476,41.20814725133245,-83.5
1772911255.528049,85.2863895598608,5.614267589351095,-3.585189554456663,0.0434402430739464,-0.8996011052580303,9.91765629125833,-0.0137642628719233,-0.03977843299953983,0.21707532571679475,-26.821559762861284,43.58664173961169,-85.5
1772911255.5487273,85.44509704654926,5.279000267447219,-3.471974956070895,0.09116989651141426,-0.7768962729376613,9.941856069964597,0.07486205099214337,0.04621741613831126,0.13744467859455345,-26.821559762861284,43.58664173961169,-85.5
1772911255.5667439,85.44509704654926,5.279000267447219,-3.471974956070895,0.09116989651141426,-0.7768962729376613,9.941856069964597,0.07486205099214337,0.04621741613831126,0.13744467859455345,-26.821559762861284,43.58664173961169,-85.5
1772911255.5930173,85.6308733959478,4.758030880406553,-3.226249012482291,0.1579603264508104,-0.6671791247251,10.011482539681486,0.12575363394527264,0.04823099501582021,0.10471975511965978,-26.821559762861284,43.58664173961169,-85.5
1772911255.6132221,85.6308733959478,4.758030880406553,-3.226249012482291,0.1579603264508104,-0.6671791247251,10.011482539681486,0.12575363394527264,0.04823099501582021,0.10471975511965978,-26.821559762861284,43.58664173961169,-85.5
1772911255.6450841,85.80422836149327,4.199726839338274,-2.747609386197733,0.20240861147748965,-0.5941635882104922,10.057818177499447,0.15720947279188138,0.0628029240733757,0.04581489286485115,-29.052151414227556,43.55465135269476,-86.25
1772911255.6626768,85.76421473017496,3.990277452904496,-2.6339715328872755,0.22596762133216045,-0.628983339065755,10.078618691742353,0.12246442093472466,0.06872316786152852,-0.02945243112740431,-29.052151414227556,43.55465135269476,-86.25
1772911255.6997375,85.67618221863816,3.6200843333017785,-2.5885143199291827,0.24164587921906006,-0.6521554942978294,10.07908075478476,0.0871811136376096,0.08233794678076278,-0.05126904677733343,-29.052151414227556,43.55465135269476,-86.25
1772911255.722331,85.67618221863816,3.6200843333017785,-2.5885143199291827,0.24164587921906006,-0.6521554942978294,10.07908075478476,0.0871811136376096,0.08233794678076278,-0.05126904677733343,-29.052151414227556,43.55465135269476,-86.25
1772911255.7568934,85.54713420328883,3.1804788975064704,-2.603718152659895,0.2987820897077428,-0.6301650340799801,10.072698029163261,0.03978790801851507,0.09000235870075073,-0.04908738521234052,-28.08247339782047,42.61239366793076,-88.1875
1772911255.7953496,85.4496597203265,3.2102650376190125,-2.6611284909719313,0.33680559953466976,-0.6155306284545378,10.06845039656187,-0.020233369221788245,0.06817430529981637,-0.04036073895236887,-28.08247339782047,42.61239366793076,-88.1875
1772911255.823992,85.36081256739348,3.296176205397078,-2.7116337985626138,0.3082250839698165,-0.7371278623911154,10.048898085978212,-0.04002776160448464,0.046067366134232964,-0.055632369907319255,-28.13386219538456,41.067083281152456,-87.75
1772911255.8706172,85.20919542792788,3.3491214002903233,-2.8744932496281046,0.25234457784562114,-0.9012464321586612,10.025850906576451,-0.07969630888140418,0.007415083315043139,-0.06435901616729091,-28.13386219538456,41.067083281152456,-87.75
1772911255.9101374,84.96466716499823,2.9143492984866572,-4.102944899049338,0.14556284532942154,-1.0654173679174879,9.814217159313317,-0.16223281286389998,-0.07057722171598392,0.007635815477475192,-29.325682122637943,41.25838542698918,-87.25
1772911255.9941566,84.96466716499823,2.9143492984866572,-4.102944899049338,0.14556284532942154,-1.0654173679174879,9.814217159313317,-0.16223281286389998,-0.07057722171598392,0.007635815477475192,-29.325682122637943,41.25838542698918,-87.25
1772911256.0412292,85.10928700377922,2.7801090460225586,-4.969154425349909,0.08006174489355905,-1.0924255620959396,9.752594461682508,-0.15957165887520164,-0.062194947192255066,0.04690572364734761,-31.325567063563902,42.23490231012924,-85.375
1772911256.1010208,85.10101445270007,2.6269102416061254,-5.491981671763319,0.036471494248727164,-1.110399213620402,9.724965691609118,-0.15102985932841925,-0.07597929220490737,-0.017453292519943295,-31.325567063563902,42.23490231012924,-85.375
1772911256.1666942,84.8448042682456,2.3432070786413615,-6.002592584896941,-0.0026478710289326384,-1.1465841922953492,9.805767875285603,-0.05520710149177149,-0.04422391940153132,-0.050178215994836975,-32.67500524923163,43.159455084751535,-85.75
1772911256.2208219,-108.38863540263765,-3.963144252804531,-0.9636423180017188,-0.011082418751670015,-1.1653606182198892,9.80383845657118,-0.06635037465645448,-0.013146810971827422,-0.05126904677733343,-33.50876466168625,43.172014628665714,-85.0
1772911256.2562096,-108.38863540263765,-3.963144252804531,-0.9636423180017188,-0.011082418751670015,-1.1653606182198892,9.80383845657118,-0.06635037465645448,-0.013146810971827422,-0.05126904677733343,-33.50876466168625,43.172014628665714,-85.0
1772911256.2834666,84.66889815819044,2.3085232193483844,-6.468020987468654,-0.017153919423364607,-1.1916407489029281,9.802554449969751,-0.04571875892842164,0.010255844467524021,0.00545415391248228,-33.50876466168625,43.172014628665714,-85.0
1772911256.351452,84.6588211316881,2.4060798887285224,-6.613696429914687,-0.028407458569445338,-1.2551601780685877,9.82177062816371,-0.0387220042603521,0.029611826062517818,-0.007635815477475192,-36.04487740837984,43.074349967409475,-83.375
1772911256.3697696,84.58041153243681,2.6970446298216486,-6.781636464645283,-0.03449056134353532,-1.3039724626538178,9.834558780093014,-0.0639089921129967,0.1000685549341277,-0.01090830782496456,-36.04487740837984,43.074349967409475,-83.375
1772911256.4271843,84.58041153243681,2.6970446298216486,-6.781636464645283,-0.03449056134353532,-1.3039724626538178,9.834558780093014,-0.0639089921129967,0.1000685549341277,-0.01090830782496456,-36.04487740837984,43.074349967409475,-83.375
1772911256.5021248,84.48917871200055,3.3466631434523237,-6.8966610819451,-0.05418783246330224,-1.343241904336736,9.82968870551967,-0.061078838082269576,0.20109426000657663,0.002181661564992912,-36.51658156171552,43.48437459072601,-84.1875
1772911256.5398731,84.66344160574404,3.8531850178358407,-7.09402998765935,-0.08196679043131483,-1.4443808346434184,9.82644772529341,-0.1505719324513769,0.041272706475040895,0.0818123086872342,-36.51658156171552,43.48437459072601,-84.1875
1772911256.5791247,84.706407006202,3.91889844012975,-7.272854280310774,-0.08990836301755173,-1.5607437682216343,9.84101644769355,-0.11213885502603839,-0.012947687718705135,0.03490658503988659,-35.3167721458218,44.44548780753908,-87.75
1772911256.617658,84.9564692156281,3.599773451177401,-7.458603977930912,0.02021845316955445,-1.6339024118657173,9.850711769707551,-0.019714063819780362,-0.14705347297661314,0.061086523819801536,-35.3167721458218,44.44548780753908,-87.75
1772911256.6561904,84.9564692156281,3.599773451177401,-7.458603977930912,0.02021845316955445,-1.6339024118657173,9.850711769707551,-0.019714063819780362,-0.14705347297661314,0.061086523819801536,-35.3167721458218,44.44548780753908,-87.75
1772911256.700598,85.54256844825521,3.289943380097903,-7.629307913720993,0.08928861369285782,-1.6629662298732584,9.823712781130832,-0.024917011055581518,-0.11246794614250996,0.17235126363444003,-35.63143335169681,45.01712543359013,-88.5625
1772911256.729789,85.94228215323339,3.0841554141419936,-7.774710323161607,0.03335142970657965,-1.6220961313108098,9.80574525583149,-0.040924099269229575,-0.10028832637936826,0.11126473981463851,-35.63143335169681,45.01712543359013,-88.5625
1772911256.7461832,-108.54223875303568,-5.060268386563762,-1.1886691023893123,-0.005280143194358477,-1.5883567232324158,9.793788068455186,-0.026382293422767596,-0.08488921504684084,0.04690572364734761,-37.25555286768229,45.43513954554701,-87.0
1772911256.7991138,85.91617256371332,2.6508082283862,-7.993547160312735,-0.01790739534898809,-1.5630915204154128,9.769105135290193,-0.011152748183658221,-0.07268951314297013,-0.06654067773228381,-37.25555286768229,45.43513954554701,-87.0
1772911256.840187,85.91617256371332,2.6508082283862,-7.993547160312735,-0.01790739534898809,-1.5630915204154128,9.769105135290193,-0.011152748183658221,-0.07268951314297013,-0.06654067773228381,-37.25555286768229,45.43513954554701,-87.0
1772911256.8754427,85.75448914854809,2.476892844898858,-8.118932799151542,0.001961568259790251,-1.5504650239530742,9.75267891899532,-0.0020531771075777056,-0.006020088440408586,-0.0545415391248228,-38.879672383667774,45.85315365750388,-87.375
1772911256.9045837,85.76954944755484,2.4835120700582585,-8.114228160484034,0.02737975456450032,-1.6147141868872708,9.775198572617136,0.010973707071264936,-0.004335600679371211,0.02399827721492203,-38.879672383667774,45.85315365750388,-87.375
1772911256.924156,85.7988625084861,2.485680903159919,-8.113891042087827,0.02737975456450032,-1.6147141868872708,9.775198572617136,0.0016744466906728713,0.0025914325475360754,0.02399827721492203,-38.879672383667774,45.85315365750388,-87.375
1772911256.9611416,85.7988625084861,2.485680903159919,-8.113891042087827,0.02737975456450032,-1.6147141868872708,9.775198572617136,0.0016744466906728713,0.0025914325475360754,0.02399827721492203,-38.879672383667774,45.85315365750388,-87.375
1772911257.0396044,85.78032618515087,2.459040906292674,-8.150360353628482,0.05083608764453904,-1.6560652852924447,9.79018515054144,0.009448744333281097,-0.0024319075244825386,-0.014180800172453928,-37.993373551741705,45.596177237327844,-86.1875
1772911257.0581267,85.67856591592302,2.3115536346118817,-8.222373570230918,0.06574301437621688,-1.6803135723420524,9.786778103909741,0.012349185856559742,-0.010734419536684631,-0.030543261909900768,-37.993373551741705,45.596177237327844,-86.1875
1772911257.078393,85.62164053664785,2.249888175638369,-8.275121180525781,0.09387984787950744,-1.6856917170163792,9.781165640728231,0.014781093381042281,-0.0012856752034035338,-0.032724923474893676,-37.993373551741705,45.596177237327844,-86.1875
1772911257.0947113,85.62164053664785,2.249888175638369,-8.275121180525781,0.09387984787950744,-1.6856917170163792,9.781165640728231,0.014781093381042281,-0.0012856752034035338,-0.032724923474893676,-37.993373551741705,45.596177237327844,-86.1875
1772911257.1198728,85.6483899351359,2.223710397538593,-8.295375289050058,0.171390738275095,-1.5995781649527534,9.817312462363164,-0.01645554007171515,-0.001305757344132541,0.02945243112740431,-37.41317112609664,46.16839017433257,-85.75
1772911257.1657655,85.6483899351359,2.223710397538593,-8.295375289050058,0.171390738275095,-1.5995781649527534,9.817312462363164,-0.01645554007171515,-0.001305757344132541,0.02945243112740431,-37.41317112609664,46.16839017433257,-85.75
1772911257.1924596,85.72200838649658,2.223495754379492,-8.333422816344656,0.17347846229951416,-1.547849429594967,9.848317479090323,-0.02636277733342785,0.0032590897994544707,0.006544984694978736,-37.848890148195224,44.92403082760774,-87.75
1772911257.2144623,85.71430059519082,2.201911800402717,-8.305533121905537,0.1405439414731132,-1.5447533940853415,9.862260747958878,0.026452580915319122,-0.02443900203781017,-0.00545415391248228,-37.848890148195224,44.92403082760774,-87.75
1772911257.2450202,85.71430059519082,2.201911800402717,-8.305533121905537,0.1405439414731132,-1.5447533940853415,9.862260747958878,0.026452580915319122,-0.02443900203781017,-0.00545415391248228,-37.848890148195224,44.92403082760774,-87.75
1772911257.2655196,85.69411527573992,2.211623657631431,-8.29736110573855,0.11862638576584701,-1.5426930170386686,9.801292491780675,0.0029701629644409092,0.0017542092021996395,-0.013089969389957472,-38.59185619848216,46.29858810110384,-87.0
1772911257.2825427,85.70379648997888,2.2109361190252756,-8.307042319977544,0.1638862136893756,-1.5968879867485208,9.760718798354127,-0.016306056119026118,0.0031893683582922064,0.014180800172453928,-38.59185619848216,46.29858810110384,-87.0
1772911257.2988374,85.70379648997888,2.2109361190252756,-8.307042319977544,0.1638862136893756,-1.5968879867485208,9.760718798354127,-0.016306056119026118,0.0031893683582922064,0.014180800172453928,-38.59185619848216,46.29858810110384,-87.0
1772911257.3370492,85.71887012892125,2.1755986301058723,-8.386749959658712,0.19400612358707855,-1.6329541336929485,9.74709790544589,0.006099850951935355,-0.007614772619554689,0.003272492347489368,-37.993373551741705,45.596177237327844,-88.1875
1772911257.3605697,85.71945072882477,2.162995896649913,-8.404861574638044,0.19769855207756112,-1.6604707561425998,9.771484470443996,-0.0013754787852948058,0.0063988188573134205,-0.00545415391248228,-37.993373551741705,45.596177237327844,-88.1875
1772911257.4001267,85.72044778215779,2.1462242667363687,-8.417378421078968,0.19312581290406006,-1.6460786908320308,9.794403680449093,-0.005332349047761183,-0.0011462323210790048,0.006544984694978736,-38.164126665023915,46.39053208517887,-87.0
1772911257.4453218,85.71663141862915,2.108083204586319,-8.472122947286438,0.19008270606493866,-1.6365009321377508,9.809656158683135,0.004116395285519914,-0.0035781398455615437,0.004363323129985824,-38.164126665023915,46.39053208517887,-87.0
1772911257.4601665,85.71663141862915,2.108083204586319,-8.472122947286438,0.19008270606493866,-1.6365009321377508,9.809656158683135,0.004116395285519914,-0.0035781398455615437,0.004363323129985824,-38.164126665023915,46.39053208517887,-87.0
1772911257.473173,85.70281690667667,2.0761977784019225,-8.512998964600525,0.19132795947423398,-1.6294240398086037,9.796390730615308,0.0020531771075777056,0.006020088440408586,-0.013089969389957472,-38.08531753581674,46.02390677078609,-87.0
1772911257.4904633,85.70281690667667,2.0761977784019225,-8.512998964600525,0.19132795947423398,-1.6294240398086037,9.796390730615308,0.0020531771075777056,0.006020088440408586,-0.013089969389957472,-38.08531753581674,46.02390677078609,-87.0
1772911257.5086858,85.70459268916315,2.049666444719723,-8.524089754534124,0.19542706872472784,-1.6240114461089443,9.78756273642071,-0.00022924646421580098,0.0010664698095522367,0.003272492347489368,-38.08531753581674,46.02390677078609,-87.0
1772911257.5386329,85.6976400695766,2.0056103776315255,-8.547760940435309,0.20585719846584397,-1.6084892016874186,9.781687804899361,-0.0027409165002251082,-0.002820679011751876,0.002181661564992912,-38.08531753581674,46.02390677078609,-87.0
1772911257.5744758,85.69358629926275,1.9730442494172011,-8.598318879418942,0.21279833329637335,-1.5981593214197245,9.76774276847723,0.00045849292843160196,-0.0021329396191044733,-0.003272492347489368,-38.59185619848216,46.29858810110384,-86.5625
