timestamp,yaw,pitch,roll,ax,ay,az,gx,gy,gz,mx,my,mz
1772919580.0397081,-0.09493371958303674,1.3535885093919917,-8.02362481134709,-0.21893917705559743,-1.3785363914909254,9.77135868372756,0.0,0.0,0.001090830782496456,28.0625,40.1875,-102.0
1772919580.066668,-0.09493371958303674,1.3535885093919917,-8.02362481134709,-0.21893917705559743,-1.3785363914909254,9.77135868372756,0.0,0.0,0.001090830782496456,28.0625,40.1875,-102.0
1772919580.084616,-0.09493371958303674,1.3535885093919917,-8.02362481134709,-0.22263914588798822,-1.3790259848867892,9.774249300550519,0.0,-0.001090830782496456,0.0,28.0625,40.1875,-102.0
1772919580.0964556,-0.09493371958303674,1.3535885093919917,-8.02362481134709,-0.22263914588798822,-1.3790259848867892,9.774249300550519,0.0,-0.001090830782496456,0.0,28.0625,40.1875,-102.0
1772919580.1208234,-0.15922402738167776,1.3489495208794329,-8.150241284593516,-0.22510143381458428,-1.37935180382262,9.779518085463213,-0.1189005552921137,0.002181661564992912,-0.05235987755982989,28.5,40.1875,-101.0625
1772919580.1353416,-0.15922402738167776,1.3489495208794329,-8.150241284593516,-0.22510143381458428,-1.37935180382262,9.779518085463213,-0.1189005552921137,0.002181661564992912,-0.05235987755982989,28.5,40.1875,-101.0625
1772919580.1564856,-0.0802361261284814,1.3265848007058687,-8.12859672317456,-0.2267400589241756,-1.637142234148372,9.783024402966426,0.01090830782496456,-0.022907446432425576,0.06544984694978735,28.5,40.1875,-101.0625
1772919580.1795056,-0.0802361261284814,1.3265848007058687,-8.12859672317456,-0.2267400589241756,-1.637142234148372,9.783024402966426,0.01090830782496456,-0.022907446432425576,0.06544984694978735,28.5,40.1875,-101.0625
1772919580.2040405,-0.0802361261284814,1.3265848007058687,-8.12859672317456,-0.2267400589241756,-1.637142234148372,9.783024402966426,0.01090830782496456,-0.022907446432425576,0.06544984694978735,28.5,40.1875,-101.0625
1772919580.2404559,-0.14239409817709223,1.336220957179824,-7.988914553558433,-0.15596457209341238,-1.795753676219905,9.800255666650147,-0.04145156973486533,0.01090830782496456,0.011999138607461015,28.5,39.75,-102.0
1772919580.3161883,-0.044044802877455866,1.329096850454265,-8.015924191562936,-0.2944640478069441,-1.7670681135930169,9.810205478421647,0.016362461737446838,-0.002181661564992912,-0.00545415391248228,28.0625,42.375,-101.5625
1772919580.4004552,0.17277646018532444,1.344155965641716,-7.9711556074520695,-0.38663390175378265,-1.4837143672253221,9.796756296764984,-0.007635815477475192,-0.013089969389957472,0.06435901616729091,27.0,45.25,-101.5625
1772919580.4567587,0.09617545513616564,1.331873644098307,-8.000213185364293,-0.4479719099506725,-1.4289500825791412,9.807876686853595,-0.008726646259971648,0.00545415391248228,-0.04036073895236887,27.0,45.25,-101.5625
1772919580.503261,0.13074270478576755,1.3412651480867561,-7.985729902482383,-0.34495186580052195,-1.3155674936359056,9.818622293941987,0.006544984694978736,0.003272492347489368,0.013089969389957472,27.0,45.6875,-99.0625
1772919580.5656266,0.07532060013202173,1.3303992059953134,-7.993406569360919,-0.27639317722789425,-1.3170502165290356,9.825773375423015,0.01090830782496456,-0.020725784867432664,-0.019634954084936207,27.0,45.6875,-99.0625
1772919580.669996,0.1533783146678891,1.3217464540387103,-7.964328201372955,-0.27425458802869457,-1.3080016169293556,9.830532340265826,-0.014180800172453928,0.001090830782496456,0.016362461737446838,26.5625,50.0625,-99.1875
1772919580.719989,0.2608927309880206,1.2941141274486234,-7.928390521822508,-0.27283138080623387,-1.301979874975249,9.81028359625636,0.006544984694978736,0.0,0.025089107997418487,26.5625,50.0625,-99.1875
1772919580.7551842,0.2817518695100353,1.2955881171540915,-7.935205242201062,-0.27188425229795266,-1.297972472972056,9.796808283311352,-0.008726646259971648,0.002181661564992912,-0.001090830782496456,25.5,52.6875,-96.0
1772919580.7875512,0.2817518695100353,1.2955881171540915,-7.935205242201062,-0.27188425229795266,-1.297972472972056,9.796808283311352,-0.008726646259971648,0.002181661564992912,-0.001090830782496456,25.5,52.6875,-96.0
1772919580.8336954,0.3384534971294287,1.2923527706533393,-7.899366941531437,-0.21104193812406125,-1.409039389753404,9.751044384295044,-0.002181661564992912,0.004363323129985824,0.015271630954950384,25.5,52.6875,-96.0
1772919580.85089,-150.23516531923008,-14.682272041344692,-10.369811051209846,-0.23745429184090633,-1.4963336290019138,9.72058902071594,-0.014180800172453928,0.007635815477475192,0.022907446432425576,24.0625,53.75,-96.0
1772919580.8655918,-150.23516531923008,-14.682272041344692,-10.369811051209846,-0.23745429184090633,-1.4963336290019138,9.72058902071594,-0.014180800172453928,0.007635815477475192,0.022907446432425576,24.0625,53.75,-96.0
1772919580.8932316,0.4863806232414454,1.2815750015924499,-7.904845307688479,-0.18812918404775586,-1.5544269700812507,9.680250646218832,-0.004363323129985824,-0.014180800172453928,0.06435901616729091,24.0625,53.75,-96.0
1772919580.9361925,0.4863806232414454,1.2815750015924499,-7.904845307688479,-0.18812918404775586,-1.5544269700812507,9.680250646218832,-0.004363323129985824,-0.014180800172453928,0.06435901616729091,24.0625,53.75,-96.0
1772919580.9662297,0.8008034743820965,1.2962875366711848,-7.908057378284935,-0.20882566312608133,-1.5228400937707018,9.58650367445379,0.003272492347489368,-0.011999138607461015,0.09708393964218458,23.25,54.875,-94.0
1772919580.9857767,0.8008034743820965,1.2962875366711848,-7.908057378284935,-0.20882566312608133,-1.5228400937707018,9.58650367445379,0.003272492347489368,-0.011999138607461015,0.09708393964218458,23.25,54.875,-94.0
1772919581.0147915,0.9343724681686115,1.2915064658349997,-7.906717187184606,-0.18914782168469324,-1.4850938218979626,9.524116111966444,-0.00545415391248228,-0.013089969389957472,0.061086523819801536,23.25,54.875,-94.0
1772919581.044161,1.2414875407850712,1.3127555490836356,-7.903460553024659,-0.20950355509453517,-1.4599740996201394,9.54950012019224,0.001090830782496456,-0.014180800172453928,0.08726646259971647,23.0,57.875,-92.375
1772919581.0606904,1.2414875407850712,1.3127555490836356,-7.903460553024659,-0.20950355509453517,-1.4599740996201394,9.54950012019224,0.001090830782496456,-0.014180800172453928,0.08726646259971647,23.0,57.875,-92.375
1772919581.0888684,1.3820567513618804,1.308457381887688,-7.902117026655711,-0.20632450975374672,-1.3797000826108636,9.566392894108557,-0.001090830782496456,-0.016362461737446838,0.07635815477475191,23.0,57.875,-92.375
1772919581.1087275,1.5362641953828748,1.3119053944263557,-7.886495485021868,-0.20420889059171535,-1.3262786210107163,9.591015293274493,0.0,-0.008726646259971648,0.09272061651219876,21.75,57.5,-90.5
1772919581.1262355,1.5362641953828748,1.3119053944263557,-7.886495485021868,-0.20420889059171535,-1.3262786210107163,9.591015293274493,0.0,-0.008726646259971648,0.09272061651219876,21.75,57.5,-90.5
1772919581.1469252,1.711244340039021,1.3167962429042206,-7.877243569166694,-0.202800969672398,-1.3275234638531588,9.62078167169848,0.006544984694978736,-0.019634954084936207,0.10799224746714914,21.75,57.5,-90.5
1772919581.185185,1.9356914456394052,1.3181297629714557,-7.868089608712281,-0.1784482320768638,-1.3283518928589986,9.640590864027411,-0.002181661564992912,-0.015271630954950384,0.14180800172453928,23.25,58.5625,-89.5625
1772919581.209431,2.1805755189050515,1.3276463260912634,-7.851141155122328,-0.19903798602545267,-1.3289032031082266,9.653773660239136,0.013089969389957472,-0.011999138607461015,0.10144726277217041,23.25,58.5625,-89.5625
1772919581.3153956,2.1805755189050515,1.3276463260912634,-7.851141155122328,-0.19903798602545267,-1.3289032031082266,9.653773660239136,0.013089969389957472,-0.011999138607461015,0.10144726277217041,23.25,58.5625,-89.5625
1772919581.3629346,2.8573214451126483,1.3867952855127013,-7.793682571036256,-0.1725988967877839,-1.312544535383952,9.629095546783361,0.002181661564992912,0.007635815477475192,0.10581058590215622,21.75,59.25,-88.5
1772919581.407031,3.540210535800163,1.4548077446649699,-7.799171807381075,-0.21187087726852344,-1.3016580247517393,9.612672537951134,-0.007635815477475192,-0.013089969389957472,0.10471975511965978,22.5625,60.0,-86.5
1772919581.4565246,3.8142001577328606,1.4456489423909693,-7.803275432980559,-0.17779393084994005,-1.2944131735362936,9.595052985615679,-0.008726646259971648,-0.017453292519943295,0.12217304763960307,22.5625,60.0,-86.5
1772919581.5080347,4.29670539974241,1.4715599770465602,-7.797639173431974,-0.21532811440455543,-1.3330782581778573,9.593362705481686,0.0,-0.015271630954950384,0.10690141668465268,21.0625,60.375,-84.75
1772919581.5511642,4.29670539974241,1.4715599770465602,-7.797639173431974,-0.21532811440455543,-1.3330782581778573,9.593362705481686,0.0,-0.015271630954950384,0.10690141668465268,21.0625,60.375,-84.75
1772919581.5723963,4.430353738655661,1.466359213246009,-7.789282803735028,-0.20351046549533575,-1.358809440089522,9.665830300495207,-0.008726646259971648,-0.017453292519943295,0.11344640137963143,21.0625,60.375,-84.75
1772919581.6300638,4.814784120204258,1.491923738406353,-7.770395036632173,-0.19564595215803815,-1.3424821371424056,9.714056675460627,0.015271630954950384,-0.01090830782496456,0.14944381720201447,21.5,60.0,-84.75
1772919581.6763587,5.205815362193477,1.5187700978371361,-7.772079991353109,-0.15027086589660432,-1.331616499419024,9.726080119032291,0.008726646259971648,-0.008726646259971648,0.1439896632895322,21.5,60.0,-84.75
1772919581.7147136,5.708736297388994,1.559580262536823,-7.758234645334395,-0.1200742528625454,-1.3478013208424757,9.734081586418569,-0.003272492347489368,-0.009817477042468103,0.1407171709420428,21.0625,61.5,-84.5
1772919581.7488089,5.924486845566666,1.5874442813127585,-7.740338209043597,-0.11001407932860699,-1.3585721387034813,9.739406473581889,0.0,-0.009817477042468103,0.1308996938995747,21.0625,61.5,-84.5
1772919581.7732425,5.924486845566666,1.5874442813127585,-7.740338209043597,-0.11001407932860699,-1.3585721387034813,9.739406473581889,0.0,-0.009817477042468103,0.1308996938995747,21.0625,61.5,-84.5
1772919581.7945175,6.260321950630921,1.6097885504491436,-7.72892663573973,-0.10331914622127278,-1.3824655562086583,9.689428339189082,-0.003272492347489368,-0.007635815477475192,0.15926129424448257,22.1875,61.1875,-82.875
1772919581.8215141,6.6237890444498655,1.6392513145419838,-7.688241118810607,-0.09886374302564495,-1.3348092362123232,9.65616844904301,0.025089107997418487,-0.013089969389957472,0.16035212502697901,22.1875,61.1875,-82.875
1772919581.8723946,6.6237890444498655,1.6392513145419838,-7.688241118810607,-0.09886374302564495,-1.3348092362123232,9.65616844904301,0.025089107997418487,-0.013089969389957472,0.16035212502697901,22.1875,61.1875,-82.875
1772919581.9112124,7.198909084572407,1.6621188860221208,-7.653182722230773,-0.12934983904226324,-1.303094487610738,9.694246374419865,0.01090830782496456,-0.011999138607461015,0.1636246173744684,21.5,61.5,-82.5
1772919581.945691,7.562940889753482,1.6789611800114592,-7.641027741913382,-0.17305377734055194,-1.2819886766933382,9.763073260595018,0.006544984694978736,-0.009817477042468103,0.15707963267948966,21.5,61.5,-82.5
1772919581.986889,7.562940889753482,1.6789611800114592,-7.641027741913382,-0.17305377734055194,-1.2819886766933382,9.763073260595018,0.006544984694978736,-0.009817477042468103,0.15707963267948966,21.5,61.5,-82.5
1772919582.0140524,8.291481376431769,1.7195559058353285,-7.616838537426179,-0.17872247812184802,-1.2846685538317617,9.808876784497885,0.01090830782496456,-0.019634954084936207,0.16035212502697901,21.5,61.1875,-80.5
1772919582.0410554,8.663024049355219,1.7367442108410769,-7.604733372075028,-0.18918515858290244,-1.3232482109117067,9.789181842386565,-0.011999138607461015,-0.011999138607461015,0.1712604328519436,21.5,61.1875,-80.5
1772919582.0855813,9.020357192202757,1.758797198504714,-7.578238481341834,-0.19614795555393538,-1.3489225417354025,9.766039743296442,0.01090830782496456,-0.020725784867432664,0.1636246173744684,20.6875,61.875,-78.0625
1772919582.1258888,9.020357192202757,1.758797198504714,-7.578238481341834,-0.19614795555393538,-1.3489225417354025,9.766039743296442,0.01090830782496456,-0.020725784867432664,0.1636246173744684,20.6875,61.875,-78.0625
1772919582.1635115,9.391402164862656,1.789770735090028,-7.565099668448923,-0.18379460028220612,-1.3105240969912462,9.725902264824388,0.002181661564992912,-0.011999138607461015,0.17889624832941878,19.5625,61.5,-78.875
1772919582.204865,10.202375814119977,1.876342869356526,-7.528229737325456,-0.17248992897738746,-1.3036585572784887,9.717237667893373,0.004363323129985824,-0.007635815477475192,0.19525871006686563,19.5625,61.5,-78.875
1772919582.224244,10.202375814119977,1.876342869356526,-7.528229737325456,-0.17248992897738746,-1.3036585572784887,9.717237667893373,0.004363323129985824,-0.007635815477475192,0.19525871006686563,19.5625,61.5,-78.875
1772919582.2577019,10.518030326663029,1.8964494632285807,-7.516102317576787,-0.18169235504208037,-1.3191602875366686,9.72819703396227,0.01090830782496456,-0.017453292519943295,0.18653206380689397,19.5625,61.5,-78.875
1772919582.2933812,11.00249282624583,1.9268991723080282,-7.4943027508389655,-0.18781646679029873,-1.329476515857814,9.73549036965698,0.01090830782496456,-0.016362461737446838,0.1712604328519436,20.6875,61.5,-77.0
1772919582.354175,11.598824010570139,1.96374836313857,-7.46296169705907,-0.19189199474792737,-1.336341850565715,9.767104896748465,-0.003272492347489368,-0.013089969389957472,0.17016960206944712,20.6875,61.5,-77.0
1772919582.4046214,12.028190389509225,1.9777982619718781,-7.457205140350172,-0.1912591013697795,-1.3141497604644543,9.778108676248484,-0.006544984694978736,-0.016362461737446838,0.19416787928436915,20.375,62.25,-78.0625
1772919582.4250114,12.457665604451293,1.984081522136068,-7.444829370546482,-0.19418302960382375,-1.32614206606251,9.785431568585476,-0.002181661564992912,-0.013089969389957472,0.19853120241435498,20.375,62.25,-78.0625
1772919582.5064697,13.16064959454188,2.0297753429746255,-7.432729279145276,-0.1961288711811617,-1.3307776997678658,9.77357931309708,-0.00545415391248228,-0.004363323129985824,0.18544123302439752,20.6875,61.1875,-75.0
1772919582.535111,13.16064959454188,2.0297753429746255,-7.432729279145276,-0.1961288711811617,-1.3307776997678658,9.77357931309708,-0.00545415391248228,-0.004363323129985824,0.18544123302439752,20.6875,61.1875,-75.0
1772919582.5662518,13.745123105408299,2.0529337090750635,-7.416927993272853,-0.2074591421363636,-1.3338626622153584,9.76569176946792,0.01090830782496456,-0.014180800172453928,0.16580627893946132,20.6875,61.1875,-75.0
1772919582.6079435,13.745123105408299,2.0529337090750635,-7.416927993272853,-0.2074591421363636,-1.3338626622153584,9.76569176946792,0.01090830782496456,-0.014180800172453928,0.16580627893946132,20.6875,61.1875,-75.0
1772919582.6892917,14.522571219676411,2.058870830753735,-7.387529956746591,-0.21499931088963084,-1.3359156702628763,9.760442697292351,0.002181661564992912,-0.016362461737446838,0.2007128639793479,19.5625,62.25,-75.25
1772919582.7314336,15.420687527410045,2.0552062071738066,-7.38648531352242,-0.20998187384376812,-1.3372819241848968,9.760294610102807,-0.001090830782496456,-0.01090830782496456,0.17016960206944712,19.5625,62.25,-75.25
1772919582.7665956,15.420687527410045,2.0552062071738066,-7.38648531352242,-0.20998187384376812,-1.3372819241848968,9.760294610102807,-0.001090830782496456,-0.01090830782496456,0.17016960206944712,19.5625,62.25,-75.25
1772919582.818836,16.43154899135773,2.082640897726802,-7.3522583033822695,-0.20776583789776193,-1.3655571247939609,9.760130475561787,-0.001090830782496456,-0.02181661564992912,0.1908953869368798,21.0625,62.25,-73.6875
1772919582.8701227,17.046917715535944,2.100295036914885,-7.337082140582644,-0.21854852520014467,-1.3603530927659102,9.746706383199585,0.00545415391248228,-0.02181661564992912,0.22689280275926285,20.6875,61.875,-73.25
1772919582.9046595,17.386322529865875,2.122038762152995,-7.33100865911203,-0.22572428314937096,-1.3568898675840892,9.707666794323602,-0.008726646259971648,-0.009817477042468103,0.20725784867432664,20.6875,61.875,-73.25
1772919583.0175526,18.400366010087783,2.1489115945884816,-7.297029814284255,-0.2336776364481587,-1.3764671346886457,9.658825465014312,0.004363323129985824,-0.018544123302439753,0.19853120241435498,22.1875,61.1875,-73.0
1772919583.1195433,19.239019284683234,2.142482867282518,-7.305347788743356,-0.2491729845109556,-1.3910293644292626,9.679289030331356,0.004363323129985824,-0.15162547876700738,0.1559888018969932,20.6875,61.1875,-71.75
1772919583.2253952,20.30793089470737,2.12284356905363,-7.272233881069891,-0.2661751889670062,-1.4007203656508782,9.692907304456847,-0.006544984694978736,-0.009817477042468103,0.18435040224190105,21.5,60.375,-72.0625
1772919583.2738667,20.935631254541576,2.114443951608927,-7.269432018970764,-0.27079974269080076,-1.3971342835863285,9.671864108395397,-0.014180800172453928,-0.011999138607461015,0.1832595714594046,21.5,60.375,-72.0625
1772919583.3250506,21.78256661629809,2.1419834875757617,-7.265638791827964,-0.2224154652066929,-1.2538784440378834,9.678646588358577,-0.004363323129985824,-0.011999138607461015,0.1930770485018727,21.0625,60.375,-71.25
1772919583.3642793,21.78256661629809,2.1419834875757617,-7.265638791827964,-0.2224154652066929,-1.2538784440378834,9.678646588358577,-0.004363323129985824,-0.011999138607461015,0.1930770485018727,21.0625,60.375,-71.25
1772919583.3975534,22.447610239868567,2.136030671860615,-7.26274439306085,-0.18815634803934594,-1.2492359494748333,9.69247976650051,-0.002181661564992912,-0.008726646259971648,0.20616701789183017,22.5625,60.375,-69.25
1772919583.4263492,22.782552411432455,2.1421637597864542,-7.2520748734297955,-0.17204751167852966,-1.2561817563251438,9.715066038856518,0.009817477042468103,-0.015271630954950384,0.20507618710933373,22.5625,60.375,-69.25
1772919583.4531262,23.276548988484777,2.140536611619831,-7.256791520986555,-0.1512919259059411,-1.260804113194279,9.676575163487138,0.0,-0.009817477042468103,0.17780541754692233,22.5625,60.75,-70.5625
1772919583.49723,23.276548988484777,2.140536611619831,-7.256791520986555,-0.1512919259059411,-1.260804113194279,9.676575163487138,0.0,-0.009817477042468103,0.17780541754692233,22.5625,60.75,-70.5625
1772919583.5252156,23.73570153392726,2.1338733959395677,-7.248639804976707,-0.16758532079524274,-1.2571900166409404,9.701136591509856,-0.006544984694978736,-0.01090830782496456,0.21271200258680892,22.5625,60.75,-70.5625
1772919583.6107733,24.365715922131958,2.140406320229369,-7.215107108206581,-0.1784283930849263,-1.1979179767323678,9.717481947489848,-0.00545415391248228,-0.015271630954950384,0.18435040224190105,21.5,60.75,-69.375
1772919583.6537702,25.106861335647487,2.122423651175816,-7.201374522964028,-0.2257856770564894,-1.1919242133584758,9.728359599304941,0.009817477042468103,-0.02181661564992912,0.18653206380689397,21.5,60.75,-69.375
1772919583.6680799,25.106861335647487,2.122423651175816,-7.201374522964028,-0.2257856770564894,-1.1919242133584758,9.728359599304941,0.009817477042468103,-0.02181661564992912,0.18653206380689397,21.5,60.75,-69.375
1772919583.6864462,25.610981087297713,2.097904574178802,-7.197403592540998,-0.25730142052404004,-1.1611745371293196,9.735598555076553,0.008726646259971648,-0.02181661564992912,0.1734420944169365,23.0,61.5,-68.5625
1772919583.7084749,25.84154009862983,2.098715349014536,-7.19646493417712,-0.20133722647942706,-1.1674718647537616,9.740415999278127,0.002181661564992912,-0.008726646259971648,0.20943951023931956,23.0,61.5,-68.5625
1772919583.7333043,26.150616449939104,2.1013087206624483,-7.180218547576972,-0.16409368050374695,-1.1716626659420688,9.750312177994536,0.011999138607461015,-0.018544123302439753,0.1832595714594046,23.0,61.5,-68.5625
1772919583.7509325,26.150616449939104,2.1013087206624483,-7.180218547576972,-0.1694145220604748,-1.2112478260990838,9.756897974382746,0.0,0.006544984694978736,0.1810779098944117,22.1875,60.75,-69.0
1772919583.7806487,26.452113342308444,2.1133990753602263,-7.176215076862233,-0.1694145220604748,-1.2112478260990838,9.756897974382746,0.0,0.006544984694978736,0.1810779098944117,22.1875,60.75,-69.0
1772919583.8144875,26.754350899760897,2.1187054819799083,-7.173852120496608,-0.17295548267878247,-1.2543168665249613,9.737864966359698,0.002181661564992912,-0.011999138607461015,0.17998707911191522,22.1875,60.75,-69.0
1772919583.9095755,27.388687611320965,2.1278475636184324,-7.15511042731643,-0.17531195241514436,-1.2829788318156774,9.72519871213299,0.003272492347489368,-0.025089107997418487,0.17671458676442586,23.25,61.5,-67.75
1772919583.9401252,28.46801113322728,2.0877267799322423,-7.05357218545737,-0.17688015670120144,-1.2451861505170885,9.736840131680362,0.0272707695624114,-0.02945243112740431,0.3327033886614191,23.25,61.5,-67.75
1772919583.9749022,28.973641462203855,2.10002335440405,-7.027359839167168,-0.22141023133073473,-1.2200355432847894,9.74458736634596,-0.013089969389957472,-0.017453292519943295,0.29670597283903605,23.25,61.5,-67.75
1772919583.9944758,29.60312893891196,2.1115485440072472,-7.022810456508133,-0.23766405173388472,-1.2467845473175379,9.809955075205385,-0.011999138607461015,-0.031634092692397225,0.284706834231575,23.0,61.5,-68.0625
1772919584.0216222,29.60312893891196,2.1115485440072472,-7.022810456508133,-0.23766405173388472,-1.2467845473175379,9.809955075205385,-0.011999138607461015,-0.031634092692397225,0.284706834231575,23.0,61.5,-68.0625
1772919584.0471017,29.943660490677885,2.1108308870119563,-7.043934631617202,-0.26186123447438786,-1.3482135033783629,9.716306975246084,-0.018544123302439753,-0.017453292519943295,0.13526301702956053,23.0,61.5,-68.0625
1772919584.092486,30.077078917102234,2.0833149705366125,-7.044130250751162,-0.2645837424586731,-1.415713340601163,9.76102878547521,0.009817477042468103,-0.028361600344907856,0.05999569303730508,23.0,61.1875,-65.75
1772919584.1083615,30.439392600444034,2.0890347761500903,-7.056419954975981,-0.1794226367195041,-1.4271826111771553,9.727233528168272,-0.00545415391248228,-0.014180800172453928,0.17780541754692233,23.0,61.1875,-65.75
1772919584.1555815,30.939316525128834,2.1198263996939417,-7.047281428145258,-0.12274887216197089,-1.287630367503278,9.764955172680013,-0.003272492347489368,-0.019634954084936207,0.21707532571679475,23.6875,60.375,-65.75
1772919584.2446675,31.562785260400652,2.1659184408939796,-7.011632109488792,-0.10844889688760004,-1.1947599082390181,9.749917165236365,-0.008726646259971648,-0.013089969389957472,0.210530341021816,23.6875,60.375,-65.75
1772919584.275935,32.116090346464205,2.1728688710234976,-7.008742711388517,-0.14576398698616813,-1.2266187828346014,9.780050879756,0.009817477042468103,-0.018544123302439753,0.16471544815696484,22.5625,60.75,-66.1875
1772919584.3222651,32.43042310426927,2.1766444161701273,-7.000146736574668,-0.17059676260989645,-1.247820507991014,9.759963189665338,0.007635815477475192,-0.017453292519943295,0.18653206380689397,22.5625,60.75,-66.1875
1772919584.3504405,32.743558563953236,2.1823731127156774,-6.997949148140084,-0.18712269738720785,-1.2452044607072215,9.796771731913994,0.00545415391248228,-0.009817477042468103,0.1908953869368798,24.75,60.75,-65.75
1772919584.4162774,33.432483479349955,2.155323688588093,-6.998099936984916,-0.17804985213080488,-1.2434635104630205,9.794506511943561,0.007635815477475192,-0.016362461737446838,0.17562375598192942,24.75,60.75,-65.75
1772919584.56671,33.432483479349955,2.155323688588093,-6.998099936984916,-0.17804985213080488,-1.2434635104630205,9.794506511943561,0.007635815477475192,-0.016362461737446838,0.17562375598192942,24.75,60.75,-65.75
1772919584.5991037,34.84506095603485,2.074757940887786,-7.001207396717764,-0.17201197496299098,-1.2423049275231932,9.792999033357404,-0.006544984694978736,-0.014180800172453928,0.1636246173744684,24.375,60.75,-64.5625
1772919584.6899447,35.40451773423942,2.066753281395548,-6.997135675804546,-0.16799383515531813,-1.2549143503482352,9.791995823197954,-0.009817477042468103,-0.016362461737446838,0.2007128639793479,24.375,60.75,-64.5625
1772919584.7239928,36.392775323114286,2.03841798996776,-7.000588740754078,-0.1720100314135133,-1.2298546633086245,9.777947751214155,-0.003272492347489368,-0.017453292519943295,0.1832595714594046,24.75,60.375,-64.5625
1772919584.7478566,36.67414367275398,2.040040760713282,-6.99357013672273,-0.20478877052536482,-1.2299032800554068,9.775289139650821,0.006544984694978736,-0.018544123302439753,0.1538071403320003,24.75,60.375,-64.5625
1772919584.7730317,36.940020597589886,2.0429838789836317,-6.9932738324793,-0.20318687329055843,-1.2299356339573058,9.766829639939422,0.001090830782496456,-0.011999138607461015,0.16144295580947549,24.75,60.375,-64.5625
1772919584.800606,37.28834914499691,2.0199644803527583,-6.987034410130552,-0.2021208285751594,-1.229957165117603,9.721058596892457,-0.008726646259971648,-0.019634954084936207,0.14508049407202864,25.0625,60.75,-63.375
1772919584.8380375,37.28834914499691,2.0199644803527583,-6.987034410130552,-0.2021208285751594,-1.229957165117603,9.721058596892457,-0.008726646259971648,-0.019634954084936207,0.14508049407202864,25.0625,60.75,-63.375
1772919584.8932018,37.787062349924334,1.9753951668604401,-7.0186329203218225,-0.18468582918896415,-1.2533872758154974,9.690598479040753,0.00545415391248228,-0.020725784867432664,0.18435040224190105,25.0625,60.75,-63.375
1772919584.9320395,38.39542284507296,1.9884456469266034,-7.02412692510312,-0.17308303185915572,-1.2890504229973767,9.673672722579576,0.007635815477475192,-0.014180800172453928,0.14289883250703572,25.5,59.6875,-64.5625
1772919584.968545,38.752055934299584,1.990867128211168,-7.047076328971458,-0.1653614998479069,-1.3261642958927375,9.66240882072775,0.003272492347489368,-0.00545415391248228,0.16689710972195776,25.5,59.6875,-64.5625
1772919585.002385,39.07698094529248,2.017519035543784,-7.0388940737414325,-0.2137446938666952,-1.3374827168861974,9.701744383773859,0.0,-0.013089969389957472,0.1407171709420428,25.5,58.875,-62.5625
1772919585.0469403,39.30814638635363,2.009568482024874,-7.035281584741851,-0.19242138169339798,-1.318254105963743,9.727921761574015,0.001090830782496456,-0.009817477042468103,0.13853550937704992,25.5,58.875,-62.5625
1772919585.0611649,39.569076435441005,1.9926935997783004,-7.042345520540291,-0.17488584393175363,-1.3054576801925077,9.745342514079548,-0.003272492347489368,-0.01090830782496456,0.15926129424448257,25.5,58.875,-62.5625
1772919585.0783026,39.569076435441005,1.9926935997783004,-7.042345520540291,-0.17488584393175363,-1.3054576801925077,9.745342514079548,-0.003272492347489368,-0.01090830782496456,0.15926129424448257,25.5,58.875,-62.5625
1772919585.1013184,39.76331804911495,1.997992343659491,-7.041542676032886,-0.16214030486814032,-1.2979648032516893,9.73121175560778,0.00545415391248228,-0.01090830782496456,0.14289883250703572,25.5,58.875,-62.5625
1772919585.1810071,40.1875453160173,2.0157510559887357,-7.052070487738824,-0.16214030486814032,-1.2979648032516893,9.73121175560778,0.00545415391248228,-0.01090830782496456,0.14289883250703572,25.5,58.875,-62.5625
1772919585.2894876,41.289483761186,1.9556857317610257,-7.050343217161714,-0.18880411924178972,-1.2990986614628899,9.768440042748486,0.0,-0.016362461737446838,0.13526301702956053,25.875,59.6875,-62.5625
1772919585.3293383,41.755008444666565,1.9671048143816086,-7.056707564946217,-0.18920415471427443,-1.3094355043941226,9.789032536118897,-0.016362461737446838,-0.014180800172453928,0.13526301702956053,26.25,58.875,-61.375
1772919585.3599508,42.08555663821466,1.958815784511988,-7.054455883128577,-0.17274481531592706,-1.286208552528882,9.752559934813892,0.001090830782496456,-0.01090830782496456,0.14944381720201447,26.25,58.875,-61.375
1772919585.412283,42.08555663821466,1.958815784511988,-7.054455883128577,-0.17274481531592706,-1.286208552528882,9.752559934813892,0.001090830782496456,-0.01090830782496456,0.14944381720201447,26.25,58.875,-61.375
1772919585.458803,42.739405786435576,1.9792206430498829,-7.088700196692457,-0.1871523577074714,-1.337199537368297,9.764942611850474,0.007635815477475192,-0.013089969389957472,0.10362892433716332,26.5625,58.5625,-61.375
1772919585.4898286,42.739405786435576,1.9792206430498829,-7.088700196692457,-0.1871523577074714,-1.337199537368297,9.764942611850474,0.007635815477475192,-0.013089969389957472,0.10362892433716332,26.5625,58.5625,-61.375
1772919585.5502844,43.07163873181271,1.9503179269911655,-7.109750041181305,-0.18141470244993216,-1.3013400946213058,9.739873471022662,0.0,-0.004363323129985824,0.12326387842209953,27.375,58.875,-60.5625
1772919585.5792713,43.457462225735995,1.9416757417439263,-7.11626216995087,-0.1842865803844874,-1.3276527116591963,9.773366913452197,-0.007635815477475192,-0.018544123302439753,0.10799224746714914,27.375,58.875,-60.5625
1772919585.6784284,43.980357528949284,1.9066072792621434,-7.126929760130051,-0.15295867276436842,-1.356816674685654,9.71354070680207,-0.00545415391248228,-0.009817477042468103,0.10035643198967395,26.5625,58.875,-60.1875
1772919585.7288184,44.19445817185406,1.8782819763179737,-7.132818944264367,-0.1419336285521887,-1.361226644270696,9.692285630580574,-0.009817477042468103,-0.011999138607461015,0.08835729338221293,27.0,58.875,-59.375
1772919585.7576542,44.39104078312815,1.8711316368231599,-7.1373509429077115,-0.1345965847867966,-1.337400536108398,9.701556396741164,-0.001090830782496456,-0.007635815477475192,0.12326387842209953,27.0,58.875,-59.375
1772919585.786151,44.565771559672434,1.8701595243469846,-7.124318853626136,-0.12971386412107727,-1.318199415574137,9.707725988059794,-0.003272492347489368,-0.009817477042468103,0.10581058590215622,27.375,59.25,-59.375
1772919585.8150177,44.786409364174574,1.8633081967964915,-7.144397485683545,-0.1364998031835629,-1.3054212843491566,9.708486670456171,-0.020725784867432664,-0.008726646259971648,0.08617563181722002,27.375,59.25,-59.375
1772919585.842597,44.983797038531755,1.8615924860695212,-7.162140177016433,-0.14436088153306023,-1.2969175807600108,9.688922225849664,-0.016362461737446838,0.003272492347489368,0.08508480103472356,25.875,58.5625,-59.75
1772919585.9025724,44.983797038531755,1.8615924860695212,-7.162140177016433,-0.14436088153306023,-1.2969175807600108,9.688922225849664,-0.016362461737446838,0.003272492347489368,0.08508480103472356,25.875,58.5625,-59.75
1772919585.9387362,45.25780220491353,1.8555480039172,-7.1749688004888625,-0.14959234136065172,-1.2979486844286663,9.6759023065132,0.007635815477475192,-0.006544984694978736,0.08944812416470939,25.875,58.5625,-59.75
1772919585.9811363,45.47052806555196,1.8495364298416617,-7.179520216442591,-0.16310915455863664,-1.2986348724019738,9.720759482953921,-0.00545415391248228,-0.01090830782496456,0.05890486225480862,26.25,58.5625,-57.75
1772919585.9964786,45.47052806555196,1.8495364298416617,-7.179520216442591,-0.16310915455863664,-1.2986348724019738,9.720759482953921,-0.00545415391248228,-0.01090830782496456,0.05890486225480862,26.25,58.5625,-57.75
1772919586.0197556,45.708471947050256,1.8219547765619457,-7.201247836217843,-0.17879466616383746,-1.3124719696622655,9.777372326446283,-0.002181661564992912,-0.00545415391248228,0.08399397025222712,26.25,58.5625,-57.75
1772919586.037988,45.708471947050256,1.8219547765619457,-7.201247836217843,-0.17879466616383746,-1.3124719696622655,9.777372326446283,-0.002181661564992912,-0.00545415391248228,0.08399397025222712,26.25,58.5625,-57.75
1772919586.07267,45.85912653333572,1.8315304455923054,-7.198603299098854,-0.1992685340404113,-1.3216804033184855,9.788286647724997,0.003272492347489368,-0.00545415391248228,0.07308566242726255,26.5625,58.1875,-58.5625
1772919586.1057177,45.93014666442325,1.8137557038084058,-7.199571331669528,-0.21289366440418142,-1.3177731779297976,9.738683107590594,-0.006544984694978736,-0.002181661564992912,0.038179077387375956,26.5625,58.1875,-58.5625
1772919586.1547241,46.089524555168154,1.7889981200712342,-7.203776584242708,-0.14502346719024567,-1.2917571811289577,9.705672505738999,-0.013089969389957472,-0.004363323129985824,0.0818123086872342,27.0,58.1875,-58.1875
1772919586.1793034,46.24290297886104,1.7948446328612995,-7.2108766886549,-0.09985660910415112,-1.2978596078269606,9.753951664813053,0.015271630954950384,-0.001090830782496456,0.044724062082354694,27.0,58.1875,-58.1875
1772919586.2189376,46.24290297886104,1.7948446328612995,-7.2108766886549,-0.09985660910415112,-1.2978596078269606,9.753951664813053,0.015271630954950384,-0.001090830782496456,0.044724062082354694,27.0,58.1875,-58.1875
1772919586.2389264,46.30889380245772,1.828497575402854,-7.189523962258214,-0.059763234472761224,-1.2450538056014795,9.786080905863292,0.011999138607461015,0.013089969389957472,0.04145156973486533,27.375,58.1875,-57.5
1772919586.2695017,46.45971484054817,1.844485442036796,-7.184164263235471,-0.10332888738161883,-1.243363251173077,9.700418982240867,-0.00545415391248228,-0.00545415391248228,0.06872233929727672,27.375,58.1875,-57.5
1772919586.2906163,46.45971484054817,1.844485442036796,-7.184164263235471,-0.10332888738161883,-1.243363251173077,9.700418982240867,-0.00545415391248228,-0.00545415391248228,0.06872233929727672,27.375,58.1875,-57.5
1772919586.309983,46.5444297188328,1.8498759817949402,-7.236305471612104,-0.1323213427322332,-1.2422382060857053,9.64341192897653,-0.025089107997418487,-0.007635815477475192,0.03381575425739013,27.0,58.875,-57.375
1772919586.33735,46.5444297188328,1.8498759817949402,-7.236305471612104,-0.1323213427322332,-1.2422382060857053,9.64341192897653,-0.025089107997418487,-0.007635815477475192,0.03381575425739013,27.0,58.875,-57.375
1772919586.380645,46.64401687458886,1.8597213083129955,-7.225748080134086,-0.1516154979011201,-1.2414895011476368,9.648960824034775,0.00545415391248228,-0.007635815477475192,0.04908738521234052,27.0,58.875,-57.375
1772919586.4144378,46.803913230377496,1.8642401568711402,-7.21026467873912,-0.14772998409958205,-1.247681469789573,9.652653551710818,0.01090830782496456,-0.007635815477475192,0.05235987755982989,25.875,57.0625,-56.5625
1772919586.4348674,46.803864991522325,1.861460081278264,-7.203796876957343,-0.1451442180686916,-1.1614841396543363,9.62500501536288,0.003272492347489368,0.0,-0.00545415391248228,25.875,57.0625,-56.5625
1772919586.48658,46.864059670921506,1.8820307801755747,-7.241375139865888,-0.1434234196600332,-1.1944387954342284,9.606605223277715,-0.0272707695624114,0.003272492347489368,0.038179077387375956,27.0,57.0625,-55.375
1772919586.5318284,46.90992498335481,1.877714765953353,-7.2589470512248475,-0.1723842529075232,-1.1795735219476076,9.587670143769543,0.004363323129985824,-0.004363323129985824,0.020725784867432664,27.0,57.0625,-55.375
1772919586.583064,47.02350689353494,1.9077301867437435,-7.239703632792392,-0.19500247562734227,-1.2399281943519538,9.59179461841215,0.013089969389957472,0.001090830782496456,0.0545415391248228,25.875,56.6875,-56.5625
1772919586.6077015,47.02350689353494,1.9077301867437435,-7.239703632792392,-0.19500247562734227,-1.2399281943519538,9.59179461841215,0.013089969389957472,0.001090830782496456,0.0545415391248228,25.875,56.6875,-56.5625
1772919586.6264105,47.03864503314143,1.9170829368780764,-7.258782834641179,-0.2568862140877503,-1.2633679960945825,9.691547649725667,-0.022907446432425576,0.01090830782496456,0.002181661564992912,25.875,56.6875,-56.5625
1772919586.6789281,47.06168330203333,1.924910463884853,-7.255751061491659,-0.2980691507464982,-1.3157631510950731,9.757932177750439,0.002181661564992912,0.002181661564992912,0.017453292519943295,26.5625,57.0625,-54.1875
1772919586.7033997,47.1583892237468,1.9483992410052036,-7.223387589543917,-0.2980691507464982,-1.3157631510950731,9.757932177750439,0.020725784867432664,0.002181661564992912,0.04908738521234052,26.5625,57.0625,-54.1875
1772919586.737516,47.1583892237468,1.9483992410052036,-7.223387589543917,-0.2980691507464982,-1.3157631510950731,9.757932177750439,0.020725784867432664,0.002181661564992912,0.04908738521234052,26.5625,57.0625,-54.1875
1772919586.7845566,47.15893403703412,1.9504029267103282,-7.245563028636371,-0.2786443711468777,-1.3138353126751552,9.792075004465199,-0.015271630954950384,0.013089969389957472,0.004363323129985824,25.875,57.5,-54.5625
1772919586.829944,47.16661754094221,1.9261320499694516,-7.240648700569212,-0.198104347082003,-1.1356448222412996,9.72182605975371,-0.011999138607461015,0.008726646259971648,0.020725784867432664,27.375,57.5,-53.375
1772919586.888736,47.28213295187215,1.9361328579869475,-7.245445670607444,-0.198104347082003,-1.1356448222412996,9.72182605975371,-0.011999138607461015,0.008726646259971648,0.020725784867432664,27.375,57.5,-53.375
1772919586.916801,47.295616957783146,1.9682978127399866,-7.2468369056836535,-0.20208357586622297,-1.0902701139496367,9.697799440416434,0.008726646259971648,-0.002181661564992912,0.015271630954950384,27.375,57.5,-53.375
1772919586.9522908,47.295616957783146,1.9682978127399866,-7.2468369056836535,-0.20208357586622297,-1.0902701139496367,9.697799440416434,0.008726646259971648,-0.002181661564992912,0.015271630954950384,27.375,57.5,-53.375
1772919586.9729147,47.356346906722344,1.9481634631809281,-7.225365884686438,-0.2047317081712233,-1.0801444226941546,9.808924238520538,0.003272492347489368,0.00545415391248228,0.04363323129985824,26.5625,57.0625,-53.5
1772919587.0146382,47.37952928397083,1.961603279098166,-7.235223085993248,-0.20649401063862488,-1.1235825638848047,9.882876550313487,-0.016362461737446838,0.016362461737446838,0.006544984694978736,26.5625,57.0625,-53.5
1772919587.063102,47.4184691521979,1.957609978836916,-7.237472058842148,-0.21101191495179158,-1.1524901616113512,9.878569200393134,-0.001090830782496456,0.019634954084936207,-0.011999138607461015,26.5625,56.6875,-51.75
1772919587.098785,47.44894766153367,1.9531660606243182,-7.239657144515676,-0.22405386492586415,-1.1717278449793427,9.862322260308112,-0.017453292519943295,0.016362461737446838,0.00545415391248228,26.5625,56.6875,-51.75
1772919587.1642182,47.4816982155823,1.9394469680856072,-7.238655197197722,-0.23273313694548234,-1.3216798883618317,9.851510103171742,0.001090830782496456,0.009817477042468103,-0.009817477042468103,25.0625,55.5625,-52.5625
1772919587.2076497,47.55665078173589,1.9591690263671881,-7.253638430854759,-0.23850909552071708,-1.2542157127928288,9.817553839718643,-0.007635815477475192,0.01090830782496456,0.006544984694978736,25.0625,55.5625,-52.5625
1772919587.2343762,47.60143983275293,1.9713070085975493,-7.256331223891783,-0.2390078197235315,-1.3631941961125698,9.794956325706922,-0.007635815477475192,-0.007635815477475192,0.03599741582238305,27.375,56.0,-50.5625
1772919587.2527993,47.60991866389431,1.9717606309287417,-7.256399442593734,-0.2594103853533064,-1.2985685793923383,9.779917932562894,0.009817477042468103,0.0,0.026179938779914945,27.375,56.0,-50.5625
1772919587.28361,47.60991866389431,1.9717606309287417,-7.256399442593734,-0.2594103853533064,-1.2985685793923383,9.779917932562894,0.009817477042468103,0.0,0.026179938779914945,27.375,56.0,-50.5625
1772919587.3115947,47.63922029894223,1.9779750984719389,-7.299658673333308,-0.23619183608781688,-1.255560953380465,9.769910049915401,-0.011999138607461015,-0.011999138607461015,0.006544984694978736,26.5625,56.0,-51.5
1772919587.3311386,47.584900737241114,1.9958181693766632,-7.314246539301461,-0.22074015091982346,-1.2269398586962248,9.753214580686912,-0.009817477042468103,0.020725784867432664,-0.038179077387375956,26.5625,56.0,-51.5
1772919587.3739784,26.73182744225243,2.00374302716265,-7.301981151822418,-0.21045722704715686,-1.1878221696585232,9.661821251440298,0.0,0.001090830782496456,0.009817477042468103,26.5625,55.5625,-49.875
1772919587.405819,26.73182744225243,2.00374302716265,-7.301981151822418,-0.21045722704715686,-1.1878221696585232,9.661821251440298,0.0,0.001090830782496456,0.009817477042468103,26.5625,55.5625,-49.875
1772919587.4455643,26.65110521638818,2.018750086951084,-7.327291708067449,-0.20695916778500273,-1.1985860133576642,9.657866910781488,-0.014180800172453928,0.006544984694978736,-0.025089107997418487,26.5625,55.5625,-49.875
1772919587.4696612,26.65110521638818,2.018750086951084,-7.327291708067449,-0.20695916778500273,-1.1985860133576642,9.657866910781488,-0.014180800172453928,0.006544984694978736,-0.025089107997418487,26.5625,55.5625,-49.875
1772919587.5047908,26.55640986814649,2.0396046329054047,-7.351532560954699,-0.22649782604158977,-1.4278185135407941,9.676899843067808,0.003272492347489368,-0.004363323129985824,-0.038179077387375956,26.25,55.5625,-48.25
1772919587.6139276,26.290956885711335,2.0181020975965707,-7.429230630964657,-0.27450090625499585,-1.4686895856180315,9.758219561168314,-0.01090830782496456,-0.002181661564992912,-0.05235987755982989,26.25,55.5625,-48.25
1772919587.6662438,26.12772978872232,1.9922186144612375,-7.428676064679199,-0.30644641990747634,-1.3855001411841033,9.812336925163429,-0.008726646259971648,0.003272492347489368,-0.04363323129985824,26.25,55.5625,-47.0625
1772919587.7015684,25.957093879444102,1.9674520780477158,-7.4349595717516115,-0.32770580238843244,-1.3301384952003077,9.821590532713055,-0.003272492347489368,0.007635815477475192,-0.05235987755982989,26.25,55.5625,-47.0625
1772919587.7416286,25.821174481483695,1.9481275839496925,-7.453939743802839,-0.2749514498002582,-1.3267470553013927,9.754156247606735,-0.003272492347489368,0.006544984694978736,-0.055632369907319255,25.875,54.875,-45.5
1772919587.8372414,25.61295631705551,1.9231143922275507,-7.438065927285329,-0.2097901899945706,-1.272811429083383,9.654844280226774,-0.009817477042468103,0.006544984694978736,-0.06435901616729091,24.75,-1993.5,-46.5625
1772919587.8768127,25.46365558820698,1.9059102142028026,-7.471225134914705,-0.18978970354120175,-1.2384198575760768,9.676639596327998,0.002181661564992912,0.011999138607461015,-0.09053895494720585,24.75,-1993.5,-46.5625
1772919587.955806,25.1777267662321,1.8788735325043557,-7.470565599358772,-0.21665593854104248,-1.2170152090958024,9.723081729390042,-0.013089969389957472,-0.001090830782496456,-0.04036073895236887,24.75,54.5,-45.0625
1772919588.0236354,24.85620404093483,1.8495287418736603,-7.470389502378791,-0.2285543326262902,-1.2063811800135944,9.69907983735569,0.002181661564992912,0.017453292519943295,-0.08508480103472356,25.0625,54.875,-44.25
1772919588.042439,24.85620404093483,1.8495287418736603,-7.470389502378791,-0.2285543326262902,-1.2063811800135944,9.69907983735569,0.002181661564992912,0.017453292519943295,-0.08508480103472356,25.0625,54.875,-44.25
1772919588.0670607,24.791860994803827,1.8453281265573955,-7.471427036293526,-0.2357281479265976,-1.2376977210897895,9.726148535697657,-0.009817477042468103,0.01090830782496456,-0.03599741582238305,25.0625,54.875,-44.25
1772919588.100381,24.57128713806775,1.8246835380647626,-7.512430802827701,-0.26391802382342017,-1.2919896464205056,9.744162452067062,0.001090830782496456,0.003272492347489368,-0.08617563181722002,23.6875,53.375,-43.0625
1772919588.1262493,24.57128713806775,1.8246835380647626,-7.512430802827701,-0.26391802382342017,-1.2919896464205056,9.744162452067062,0.001090830782496456,0.003272492347489368,-0.08617563181722002,23.6875,53.375,-43.0625
1772919588.1465843,24.442802538053712,1.8088154355384434,-7.4800662499273995,-0.2826780713312086,-1.328120316247553,9.732734730231035,0.014180800172453928,0.004363323129985824,-0.06654067773228381,23.6875,53.375,-43.0625
1772919588.1887145,24.227795035148002,1.7977450465711404,-7.496966525822704,-0.278437114847583,-1.2986430860943154,9.725129709005177,-0.007635815477475192,0.013089969389957472,-0.06217735460229799,23.6875,52.25,-42.6875
1772919588.2197964,24.0195244931307,1.8036684650686952,-7.524761393024138,-0.20202234812129174,-1.2556105367583363,9.720068652333023,0.006544984694978736,0.019634954084936207,-0.0818123086872342,23.6875,52.25,-42.6875
1772919588.2542,24.0195244931307,1.8036684650686952,-7.524761393024138,-0.20202234812129174,-1.2556105367583363,9.720068652333023,0.006544984694978736,0.019634954084936207,-0.0818123086872342,23.6875,52.25,-42.6875
1772919588.2838175,23.834148735107252,1.795401993701322,-7.512655100276271,-0.2247616320348466,-1.2370081910022737,9.689939681994856,0.004363323129985824,0.013089969389957472,-0.08835729338221293,23.25,52.25,-41.5
1772919588.3105426,23.678018377580933,1.781146849452636,-7.530477071906765,-0.22651392463559475,-1.2246285377034318,9.669889188797457,-0.003272492347489368,0.015271630954950384,-0.10035643198967395,23.25,52.25,-41.5
1772919588.3403137,23.583896979243544,1.7804344581717177,-7.523251383368793,-0.22768005578700173,-1.2163900167228412,9.72010293199234,0.018544123302439753,0.008726646259971648,-0.06763150851478027,23.25,52.25,-41.5
1772919588.3618572,23.427094079913186,1.775533572373804,-7.51755065562196,-0.22845610304172456,-1.1774562559673738,9.756864728871589,-0.006544984694978736,0.015271630954950384,-0.07417649320975901,23.0,51.875,-40.25
1772919588.3968015,23.427094079913186,1.775533572373804,-7.51755065562196,-0.22845610304172456,-1.1774562559673738,9.756864728871589,-0.006544984694978736,0.015271630954950384,-0.07417649320975901,23.0,51.875,-40.25
1772919588.422408,23.14891009746318,1.760079317206849,-7.535587709196897,-0.26911389430855936,-1.151546273103215,9.781329294038551,-0.01090830782496456,0.013089969389957472,-0.1265363707695889,23.0,51.875,-40.25
1772919588.4379008,23.14891009746318,1.760079317206849,-7.535587709196897,-0.26911389430855936,-1.151546273103215,9.781329294038551,-0.01090830782496456,0.013089969389957472,-0.1265363707695889,23.0,51.875,-40.25
1772919588.4820204,22.912804975865164,1.762331355289693,-7.52133640978733,-0.2961712002193505,-1.2580726021114075,9.797610188870065,0.007635815477475192,0.019634954084936207,-0.06217735460229799,21.75,50.875,-39.5
1772919588.5050993,22.791888212840725,1.7489985435474253,-7.567159418813577,-0.2706910828579187,-1.382486471406404,9.768303602023094,-0.03490658503988659,0.006544984694978736,-0.07090400086226964,21.75,50.875,-39.5
1772919588.5253646,22.791888212840725,1.7489985435474253,-7.567159418813577,-0.2706910828579187,-1.382486471406404,9.768303602023094,-0.03490658503988659,0.006544984694978736,-0.07090400086226964,21.75,50.875,-39.5
1772919588.5467045,22.54820899229023,1.743934594138932,-7.5897969900314886,-0.25038923767812726,-1.4117607243111308,9.74880039585246,0.003272492347489368,0.01090830782496456,-0.10690141668465268,21.5,51.1875,-39.875
1772919588.573791,22.54820899229023,1.743934594138932,-7.5897969900314886,-0.25038923767812726,-1.4117607243111308,9.74880039585246,0.003272492347489368,0.01090830782496456,-0.10690141668465268,21.5,51.1875,-39.875
1772919588.5948715,22.34035832607142,1.7549149723613993,-7.573814036986799,-0.2234351301128162,-1.2380711498346568,9.721612493949081,-0.019634954084936207,0.01090830782496456,-0.09599310885968812,20.0,49.375,-38.6875
1772919588.6345146,22.149851636591247,1.7338989859526035,-7.607371041760837,-0.2234351301128162,-1.2380711498346568,9.721612493949081,-0.019634954084936207,0.01090830782496456,-0.09599310885968812,20.0,49.375,-38.6875
1772919588.663805,21.942708395529205,1.7201743165403285,-7.610146330507571,-0.22228604071716151,-1.3022734942007006,9.714382873295737,-0.015271630954950384,0.011999138607461015,-0.08835729338221293,20.0,49.375,-38.6875
1772919588.6912389,21.942708395529205,1.7201743165403285,-7.610146330507571,-0.22228604071716151,-1.3022734942007006,9.714382873295737,-0.015271630954950384,0.011999138607461015,-0.08835729338221293,20.0,49.375,-38.6875
1772919588.7166994,21.644811364472808,1.6826450907743917,-7.596365284963562,-0.27838823358495246,-1.3449994371891238,9.719606976633049,0.015271630954950384,0.004363323129985824,-0.09817477042468103,20.0,49.0,-36.6875
1772919588.745743,21.376946034362913,1.6441484358709044,-7.60450164325519,-0.31572361623590967,-1.5038924315533198,9.726428670754292,-0.001090830782496456,0.004363323129985824,-0.07635815477475191,20.0,49.0,-36.6875
1772919588.8164546,21.07007085409038,1.644431578423458,-7.60498735891018,-0.32384433778997335,-1.5628023804491737,9.80121577784237,-0.006544984694978736,0.016362461737446838,-0.12326387842209953,19.25,47.0625,-37.0
1772919588.8386908,21.07007085409038,1.644431578423458,-7.60498735891018,-0.3292485872697991,-1.6020062933721169,9.780738416329052,-0.017453292519943295,0.019634954084936207,-0.08290313946973066,19.25,47.0625,-37.0
1772919589.055075,20.920595459692606,1.6439340504355078,-7.619752086918781,-0.3292485872697991,-1.6020062933721169,9.780738416329052,-0.017453292519943295,0.019634954084936207,-0.08290313946973066,19.25,47.0625,-37.0
1772919589.0816512,0.0,0.0,0.0,-0.3662961720023947,-1.5678840487541845,9.840703418550083,0.003272492347489368,0.006544984694978736,-0.037088246604879506,16.0,41.0625,-37.0
1772919589.0983908,0.0,0.0,0.0,-0.3662961720023947,-1.5678840487541845,9.840703418550083,0.003272492347489368,0.006544984694978736,-0.037088246604879506,16.0,41.0625,-37.0
1772919589.1166234,20.514985891028008,1.636972088095128,-7.579191395511338,-0.3909509257932991,-1.4448227249118168,9.817052335236145,0.0,0.003272492347489368,-0.08726646259971647,16.0,41.0625,-37.0
1772919589.1312993,20.350856651456915,1.6312238537686816,-7.530436000733721,-0.40735838902950033,-1.2558832139455613,9.8648699259297,0.04036073895236887,0.011999138607461015,-0.17671458676442586,16.0,41.0625,-37.0
1772919589.2176087,20.1190617504559,1.580233115394499,-7.532893665598923,-0.3145789096029178,-1.1067302980389122,9.859895769598259,-0.01090830782496456,-0.002181661564992912,0.08726646259971647,14.0625,39.25,-35.75
1772919589.2754211,20.1190617504559,1.580233115394499,-7.532893665598923,-0.3145789096029178,-1.1067302980389122,9.859895769598259,-0.01090830782496456,-0.002181661564992912,0.08726646259971647,14.0625,39.25,-35.75
1772919589.3317072,20.16214889058152,1.5737061051305299,-7.5196844841535055,-0.22941942050798547,-1.0074706986502786,9.893381752905166,0.031634092692397225,0.006544984694978736,0.016362461737446838,14.0625,39.25,-35.75
1772919589.355018,20.163440352512414,1.5530900423773377,-7.523326768546329,-0.1727467318091327,-1.0852543474742535,9.878870071952456,-0.007635815477475192,-0.006544984694978736,-0.013089969389957472,15.1875,42.5625,-35.0
1772919589.3860028,20.163440352512414,1.5530900423773377,-7.523326768546329,-0.1727467318091327,-1.0852543474742535,9.878870071952456,-0.007635815477475192,-0.006544984694978736,-0.013089969389957472,15.1875,42.5625,-35.0
1772919589.4049923,20.185310179832697,1.556954364370545,-7.537159914489385,-0.1383768022627792,-1.1537440554029157,9.83910670501865,-0.003272492347489368,0.002181661564992912,0.01090830782496456,15.1875,42.5625,-35.0
1772919589.4382927,20.178035991498348,1.5540269764666974,-7.523301366485328,-0.17906112052601897,-1.1993231909492725,9.805954405095477,0.01090830782496456,-0.00545415391248228,0.001090830782496456,14.75,41.875,-35.375
1772919589.4693952,20.178035991498348,1.5540269764666974,-7.523301366485328,-0.20613607985659163,-1.239690931625026,9.78389191983206,-0.004363323129985824,0.001090830782496456,0.004363323129985824,14.75,41.875,-35.375
1772919589.4970775,20.178035991498348,1.5540269764666974,-7.523301366485328,-0.20613607985659163,-1.239690931625026,9.78389191983206,-0.004363323129985824,0.001090830782496456,0.004363323129985824,14.75,41.875,-35.375
1772919589.5114982,20.17802396648275,1.5552560091430903,-7.530236931316284,-0.2442248330878911,-1.2665552121075299,9.769209582343365,-0.004363323129985824,0.002181661564992912,-0.006544984694978736,15.5625,43.0,-36.1875
1772919589.5371034,20.17802396648275,1.5552560091430903,-7.530236931316284,-0.2442248330878911,-1.2665552121075299,9.769209582343365,-0.004363323129985824,0.002181661564992912,-0.006544984694978736,15.5625,43.0,-36.1875
1772919589.5621467,20.178455389777756,1.5483840260189337,-7.531452058898338,-0.22943113239623608,-1.2844330906749601,9.772819097586373,0.002181661564992912,0.001090830782496456,0.006544984694978736,15.5625,43.0,-36.1875
1772919589.5789676,20.178455389777756,1.5483840260189337,-7.531452058898338,-0.22943113239623608,-1.2844330906749601,9.772819097586373,0.002181661564992912,0.001090830782496456,0.006544984694978736,15.5625,43.0,-36.1875
1772919589.5930228,20.17802396648275,1.5552560091430903,-7.530236931316284,-0.2563823186229177,-1.3164012893965122,9.76184074283039,-0.003272492347489368,0.001090830782496456,0.0,14.75,42.5625,-35.75
1772919589.6083295,20.17802396648275,1.5552560091430903,-7.530236931316284,-0.2563823186229177,-1.3164012893965122,9.76184074283039,-0.003272492347489368,0.001090830782496456,0.0,14.75,42.5625,-35.75
1772919589.6267552,20.178443765664028,1.5496130554160996,-7.538387720794904,-0.24086691491910373,-1.341020880244846,9.75453477037654,0.001090830782496456,0.0,0.0,14.75,42.5625,-35.75
1772919589.6568437,20.178443765664028,1.5496130554160996,-7.538387720794904,-0.24086691491910373,-1.341020880244846,9.75453477037654,0.001090830782496456,0.0,0.0,14.75,42.5625,-35.75
1772919589.6981928,20.178443765664028,1.5496130554160996,-7.538387720794904,-0.24593154147102192,-1.361618130219623,9.746437091981058,-0.004363323129985824,0.001090830782496456,0.0,14.75,41.875,-35.0
1772919589.7523575,20.178443765664028,1.5496130554160996,-7.538387720794904,-0.2573278214185829,-1.341006177341544,9.744283812806366,0.001090830782496456,0.001090830782496456,0.001090830782496456,15.1875,42.5625,-35.0
1772919589.7811892,20.178443765664028,1.5496130554160996,-7.538387720794904,-0.2573278214185829,-1.341006177341544,9.744283812806366,0.001090830782496456,0.001090830782496456,0.001090830782496456,15.1875,42.5625,-35.0
1772919589.794854,20.178443765664028,1.5496130554160996,-7.538387720794904,-0.25153147158961875,-1.3440147114883796,9.742850829569312,-0.003272492347489368,0.0,0.001090830782496456,15.1875,42.5625,-35.0
1772919589.8316839,20.178432141548566,1.550842085526461,-7.545323501758027,-0.26105451235719085,-1.3460168573555702,9.741897195232523,0.0,-0.001090830782496456,0.004363323129985824,14.75,42.25,-35.75
1772919589.86913,20.178864658466765,1.5439701167238422,-7.5465386897564235,-0.25735665448671624,-1.3473492630647508,9.744607673941504,0.001090830782496456,0.001090830782496456,-0.002181661564992912,14.75,42.25,-35.75
1772919589.8934355,20.178864658466765,1.5439701167238422,-7.5465386897564235,-0.2615859947963332,-1.3382006290583053,9.736376132122341,0.0,0.0,0.0,14.75,41.5,-34.5625
1772919589.9115548,20.178864658466765,1.5439701167238422,-7.5465386897564235,-0.2615859947963332,-1.3382006290583053,9.736376132122341,0.0,0.0,0.0,14.75,41.5,-34.5625
1772919589.9312296,20.178864658466765,1.5439701167238422,-7.5465386897564235,-0.26105546182023703,-1.3321123153239538,9.737588356408676,0.0,0.001090830782496456,-0.001090830782496456,14.75,41.5,-34.5625
1772919589.9652581,20.178864658466765,1.5439701167238422,-7.5465386897564235,-0.26105546182023703,-1.3321123153239538,9.737588356408676,0.0,0.001090830782496456,-0.001090830782496456,14.75,41.5,-34.5625
1772919589.984525,20.178864658466765,1.5439701167238422,-7.5465386897564235,-0.2607023980510867,-1.331405722251983,9.738395078129798,0.001090830782496456,0.0,0.0,15.1875,43.0,-35.0
1772919590.006124,20.178864658466765,1.5439701167238422,-7.5465386897564235,-0.2571223263493785,-1.3309354924557484,9.74562216583817,-0.001090830782496456,-0.001090830782496456,0.003272492347489368,15.1875,43.0,-35.0
1772919590.0213947,20.178864658466765,1.5439701167238422,-7.5465386897564235,-0.2571223263493785,-1.3309354924557484,9.74562216583817,-0.001090830782496456,-0.001090830782496456,0.003272492347489368,15.1875,43.0,-35.0
1772919590.059682,20.178853435248577,1.5451991435643218,-7.553474568036219,-0.254739828623913,-1.3306225597791652,9.750431711976233,0.0,0.0,0.002181661564992912,15.1875,43.0,-35.0
1772919590.076894,20.178853435248577,1.5451991435643218,-7.553474568036219,-0.2531543030018591,-1.330414306578586,9.750287299497645,0.001090830782496456,-0.001090830782496456,0.001090830782496456,16.0,42.25,-34.5625
1772919590.0928388,20.178853435248577,1.5451991435643218,-7.553474568036219,-0.24875404170454454,-1.3235854929853026,9.750191194606337,-0.002181661564992912,0.0,0.0,16.0,42.25,-34.5625
1772919590.1094058,20.178853435248577,1.5451991435643218,-7.553474568036219,-0.24582571696532113,-1.3190409938218186,9.753472349582053,-0.003272492347489368,0.001090830782496456,0.0,16.0,42.25,-34.5625
1772919590.123869,20.178853435248577,1.5451991435643218,-7.553474568036219,-0.24582571696532113,-1.3190409938218186,9.753472349582053,-0.003272492347489368,0.001090830782496456,0.0,16.0,42.25,-34.5625
1772919590.1381433,20.178853435248577,1.5451991435643218,-7.553474568036219,-0.24387694956289863,-1.3227069038085406,9.75565592156549,-0.001090830782496456,0.001090830782496456,0.001090830782496456,15.5625,42.25,-35.75
1772919590.150464,20.178853435248577,1.5451991435643218,-7.553474568036219,-0.24387694956289863,-1.3227069038085406,9.75565592156549,-0.001090830782496456,0.001090830782496456,0.001090830782496456,15.5625,42.25,-35.75
1772919590.167976,20.178853435248577,1.5451991435643218,-7.553474568036219,-0.24258006662574472,-1.3251465259538064,9.757109064328368,-0.001090830782496456,0.002181661564992912,-0.002181661564992912,15.5625,42.25,-35.75
1772919590.183482,20.178853435248577,1.5451991435643218,-7.553474568036219,-0.24171700551820044,-1.320079843824477,9.754731002897078,0.0,0.002181661564992912,-0.001090830782496456,15.5625,42.25,-35.75
1772919590.1981597,20.178853435248577,1.5451991435643218,-7.553474568036219,-0.24171700551820044,-1.320079843824477,9.754731002897078,0.0,0.002181661564992912,-0.001090830782496456,15.5625,42.25,-35.75
1772919590.212694,20.178853435248577,1.5451991435643218,-7.553474568036219,-0.241142647992154,-1.316708023465956,9.75649354128656,-0.001090830782496456,0.001090830782496456,-0.001090830782496456,16.25,42.25,-35.0
1772919590.2256944,20.178853435248577,1.5451991435643218,-7.553474568036219,-0.2374153077672447,-1.3144641146830618,9.754321379188596,-0.001090830782496456,0.0,-0.001090830782496456,16.25,42.25,-35.0
1772919590.244314,20.178853435248577,1.5451991435643218,-7.553474568036219,-0.23493480448468604,-1.3230061535761073,9.752875829577043,-0.001090830782496456,0.0,0.0,16.25,42.25,-35.0
1772919590.2592568,20.178853435248577,1.5451991435643218,-7.553474568036219,-0.23493480448468604,-1.3230061535761073,9.752875829577043,-0.001090830782496456,0.0,0.0,16.25,42.25,-35.0
1772919590.2778237,20.178853435248577,1.5451991435643218,-7.553474568036219,-0.2332840572591805,-1.3286907850386025,9.751913832458401,0.0,0.001090830782496456,0.0,15.5625,42.5625,-34.5625
1772919590.2933824,20.178853435248577,1.5451991435643218,-7.553474568036219,-0.23553061512798068,-1.3291287320680794,9.754618745829475,0.0,0.0,0.0,15.5625,42.5625,-34.5625
1772919590.3050923,20.178853435248577,1.5451991435643218,-7.553474568036219,-0.23553061512798068,-1.3291287320680794,9.754618745829475,0.0,0.0,0.0,15.5625,42.5625,-34.5625
1772919590.3170767,20.179275822566115,1.5395562165940082,-7.561625814353328,-0.23702567429397148,-1.326075069216688,9.756418835462064,-0.001090830782496456,0.0,0.0,15.5625,42.5625,-34.5625
1772919590.3320181,20.179275822566115,1.5395562165940082,-7.561625814353328,-0.23702567429397148,-1.326075069216688,9.756418835462064,-0.001090830782496456,0.0,0.0,15.5625,42.5625,-34.5625
1772919590.354497,20.179275822566115,1.5395562165940082,-7.561625814353328,-0.24136573117535257,-1.3273880024080555,9.754271663296914,0.0,0.0,0.0,15.1875,41.5,-33.875
1772919590.3708088,20.179275822566115,1.5395562165940082,-7.561625814353328,-0.24425399054829966,-1.3282617447804859,9.75284274420649,0.001090830782496456,-0.001090830782496456,0.0,15.1875,41.5,-33.875
1772919590.3857934,20.179275822566115,1.5395562165940082,-7.561625814353328,-0.24617609489702472,-1.3288432105689965,9.748546702806566,0.001090830782496456,-0.003272492347489368,-0.001090830782496456,15.1875,41.5,-33.875
1772919590.4008722,20.179275822566115,1.5395562165940082,-7.561625814353328,-0.24617609489702472,-1.3288432105689965,9.748546702806566,0.001090830782496456,-0.003272492347489368,-0.001090830782496456,15.1875,41.5,-33.875
1772919590.4155126,20.179275822566115,1.5395562165940082,-7.561625814353328,-0.24745523386978882,-1.322539946141213,9.749032846952163,0.0,-0.002181661564992912,0.001090830782496456,14.75,43.0,-35.0
1772919590.429195,20.179275822566115,1.5395562165940082,-7.561625814353328,-0.24830648656724474,-1.3183451940766004,9.746011258743152,0.001090830782496456,0.0,0.0,14.75,43.0,-35.0
1772919590.4405806,20.179275822566115,1.5395562165940082,-7.561625814353328,-0.24830648656724474,-1.3183451940766004,9.746011258743152,0.001090830782496456,0.0,0.0,14.75,43.0,-35.0
1772919590.4526594,20.179275822566115,1.5395562165940082,-7.561625814353328,-0.24887298572828598,-1.318898745143371,9.747345537250727,0.0,0.001090830782496456,-0.001090830782496456,14.75,43.0,-35.0
1772919590.464111,20.179275822566115,1.5395562165940082,-7.561625814353328,-0.24887298572828598,-1.318898745143371,9.747345537250727,0.0,0.001090830782496456,-0.001090830782496456,14.75,43.0,-35.0
1772919590.477806,20.179275822566115,1.5395562165940082,-7.561625814353328,-0.24924998459174863,-1.3226122389020556,9.748233484692651,0.0,-0.001090830782496456,-0.001090830782496456,16.25,42.25,-35.0
1772919590.4905815,20.179275822566115,1.5395562165940082,-7.561625814353328,-0.2528459848313492,-1.3217384158086976,9.752169515503548,0.0,-0.001090830782496456,0.0,16.25,42.25,-35.0
1772919590.5028472,20.179275822566115,1.5395562165940082,-7.561625814353328,-0.2528459848313492,-1.3217384158086976,9.752169515503548,0.0,-0.001090830782496456,0.0,16.25,42.25,-35.0
1772919590.5270693,20.179275822566115,1.5395562165940082,-7.561625814353328,-0.25189397111352924,-1.3211568963013112,9.754788900039854,-0.001090830782496456,-0.001090830782496456,0.0,16.25,42.25,-35.0
1772919590.546539,20.179275822566115,1.5395562165940082,-7.561625814353328,-0.2546055283263295,-1.3207699015651442,9.756532071188323,0.0,0.001090830782496456,-0.001090830782496456,16.0,42.5625,-34.5625
1772919590.571657,20.179275822566115,1.5395562165940082,-7.561625814353328,-0.2546055283263295,-1.3207699015651442,9.756532071188323,0.0,0.001090830782496456,-0.001090830782496456,16.0,42.5625,-34.5625
1772919590.5846567,20.179275822566115,1.5395562165940082,-7.561625814353328,-0.2497198159467305,-1.3205123608912395,9.757692132115132,0.0,-0.001090830782496456,0.0,16.0,42.5625,-34.5625
1772919590.5975745,20.179275822566115,1.5395562165940082,-7.561625814353328,-0.2497198159467305,-1.3205123608912395,9.757692132115132,0.0,-0.001090830782496456,0.0,16.0,42.5625,-34.5625
1772919590.6143932,20.179275822566115,1.5395562165940082,-7.561625814353328,-0.2498135406424101,-1.3236860821569931,9.755119027995875,0.001090830782496456,-0.001090830782496456,0.0,16.0,42.5625,-34.5625
1772919590.6274946,20.179275822566115,1.5395562165940082,-7.561625814353328,-0.24987591338041143,-1.3257981582065625,9.753406655947964,-0.001090830782496456,-0.002181661564992912,0.001090830782496456,15.1875,43.0,-35.0
1772919590.6396205,20.179275822566115,1.5395562165940082,-7.561625814353328,-0.24987591338041143,-1.3257981582065625,9.753406655947964,-0.001090830782496456,-0.002181661564992912,0.001090830782496456,15.1875,43.0,-35.0
1772919590.651877,20.179275822566115,1.5395562165940082,-7.561625814353328,-0.24991742174080217,-1.330548832931435,9.75561220318585,-0.001090830782496456,-0.001090830782496456,-0.001090830782496456,15.1875,43.0,-35.0
1772919590.6647816,20.179275822566115,1.5395562165940082,-7.561625814353328,-0.24991742174080217,-1.330548832931435,9.75561220318585,-0.001090830782496456,-0.001090830782496456,-0.001090830782496456,15.1875,43.0,-35.0
1772919590.6810968,20.179275822566115,1.5395562165940082,-7.561625814353328,-0.24994504509096344,-1.3337103538923238,9.757079970235084,0.001090830782496456,0.001090830782496456,-0.002181661564992912,15.1875,43.0,-35.0
1772919590.6942065,20.179275822566115,1.5395562165940082,-7.561625814353328,-0.24996342812192274,-1.332469199067973,9.758056752810319,-0.001090830782496456,-0.003272492347489368,0.0,15.5625,41.875,-34.1875
1772919590.706103,20.179275822566115,1.5395562165940082,-7.561625814353328,-0.24996342812192274,-1.332469199067973,9.758056752810319,-0.001090830782496456,-0.003272492347489368,0.0,15.5625,41.875,-34.1875
1772919590.717795,20.179275822566115,1.5395562165940082,-7.561625814353328,-0.24663055011635485,-1.3316432243969751,9.75870679070276,-0.001090830782496456,0.0,-0.001090830782496456,15.5625,41.875,-34.1875
1772919590.7307777,20.179275822566115,1.5395562165940082,-7.561625814353328,-0.2444125570343362,-1.3310935474801677,9.752449160244142,0.0,0.0,-0.001090830782496456,15.5625,41.875,-34.1875
1772919590.7424388,20.179275822566115,1.5395562165940082,-7.561625814353328,-0.2444125570343362,-1.3310935474801677,9.752449160244142,0.0,0.0,-0.001090830782496456,15.5625,41.875,-34.1875
1772919590.7550647,20.179275822566115,1.5395562165940082,-7.561625814353328,-0.24293650741485895,-1.3340728553396453,9.751629888783564,0.001090830782496456,-0.003272492347489368,-0.001090830782496456,14.75,42.25,-34.5625
1772919590.7684436,20.179275822566115,1.5395562165940082,-7.561625814353328,-0.24529932458897086,-1.3360555514390782,9.747739561071091,0.0,0.002181661564992912,-0.001090830782496456,14.75,42.25,-34.5625
1772919590.7872388,20.179275822566115,1.5395562165940082,-7.561625814353328,-0.24529932458897086,-1.3360555514390782,9.747739561071091,0.0,0.002181661564992912,-0.001090830782496456,14.75,42.25,-34.5625
1772919590.7996414,20.179275822566115,1.5395562165940082,-7.561625814353328,-0.2502168647312644,-1.3373750135450841,9.74515059143625,0.001090830782496456,0.0,0.001090830782496456,14.75,42.25,-34.5625
1772919590.8124566,20.179275822566115,1.5395562165940082,-7.561625814353328,-0.25014432105611867,-1.3349079891299542,9.743427661064947,-0.001090830782496456,0.002181661564992912,0.001090830782496456,16.0,42.5625,-35.375
1772919590.8242114,20.179275822566115,1.5395562165940082,-7.561625814353328,-0.25014432105611867,-1.3349079891299542,9.743427661064947,-0.001090830782496456,0.002181661564992912,0.001090830782496456,16.0,42.5625,-35.375
1772919590.835652,20.179275822566115,1.5395562165940082,-7.561625814353328,-0.25344115575799453,-1.3299211002328342,9.74562618185656,-0.001090830782496456,-0.001090830782496456,0.001090830782496456,16.0,42.5625,-35.375
1772919590.8471997,20.179275822566115,1.5395562165940082,-7.561625814353328,-0.25344115575799453,-1.3299211002328342,9.74562618185656,-0.001090830782496456,-0.001090830782496456,0.001090830782496456,16.0,42.5625,-35.375
1772919590.858642,20.179275822566115,1.5395562165940082,-7.561625814353328,-0.2556351624240362,-1.3299474930863193,9.75043438459161,-0.001090830782496456,0.001090830782496456,0.001090830782496456,16.0,42.5625,-35.375
1772919590.8705611,20.179275822566115,1.5395562165940082,-7.561625814353328,-0.25709524935162664,-1.3266199455281669,9.760324413215281,-0.002181661564992912,0.001090830782496456,0.0,15.1875,42.5625,-35.0
1772919590.8825734,20.179275822566115,1.5395562165940082,-7.561625814353328,-0.25709524935162664,-1.3266199455281669,9.760324413215281,-0.002181661564992912,0.001090830782496456,0.0,15.1875,42.5625,-35.0
1772919590.8961282,20.179275822566115,1.5395562165940082,-7.561625814353328,-0.25806692089169836,-1.3277506115066775,9.766906116785476,-0.002181661564992912,0.0,0.0,15.1875,42.5625,-35.0
1772919590.9098387,20.179275822566115,1.5395562165940082,-7.561625814353328,-0.2553684457400144,-1.3285030570850098,9.767941055281675,0.0,0.0,0.001090830782496456,15.1875,42.5625,-35.0
1772919590.9265707,20.179275822566115,1.5395562165940082,-7.561625814353328,-0.2553684457400144,-1.3285030570850098,9.767941055281675,0.0,0.0,0.001090830782496456,15.1875,42.5625,-35.0
1772919590.9504697,20.179275822566115,1.5395562165940082,-7.561625814353328,-0.2535726406705113,-1.329003801212022,9.758594460167917,0.001090830782496456,0.0,0.0,14.75,42.5625,-34.1875
1772919590.964405,20.179275822566115,1.5395562165940082,-7.561625814353328,-0.252377552457214,-1.3259919291275508,9.752374405528018,0.0,0.002181661564992912,-0.002181661564992912,14.75,42.5625,-34.1875
1772919590.978279,20.179275822566115,1.5395562165940082,-7.561625814353328,-0.252377552457214,-1.3259919291275508,9.752374405528018,0.0,0.002181661564992912,-0.002181661564992912,14.75,42.5625,-34.1875
1772919590.991004,20.179275822566115,1.5395562165940082,-7.561625814353328,-0.25492734630859415,-1.323987561900151,9.754925252062367,0.0,0.0,0.0,14.75,42.5625,-34.1875
1772919591.0063102,20.179275822566115,1.5395562165940082,-7.561625814353328,-0.25492734630859415,-1.323987561900151,9.754925252062367,0.0,0.0,0.0,14.75,42.5625,-34.1875
1772919591.0192082,20.179275822566115,1.5395562165940082,-7.561625814353328,-0.24993398221898525,-1.3226536779005655,9.756622811936154,-0.001090830782496456,0.001090830782496456,0.001090830782496456,14.75,41.875,-33.75
1772919591.0329115,20.179275822566115,1.5395562165940082,-7.561625814353328,-0.2499560659042016,-1.3251111047066213,9.757752519069173,0.002181661564992912,0.002181661564992912,0.002181661564992912,14.75,41.875,-33.75
1772919591.0465913,20.179275822566115,1.5395562165940082,-7.561625814353328,-0.2499560659042016,-1.3251111047066213,9.757752519069173,0.002181661564992912,0.002181661564992912,0.002181661564992912,14.75,41.875,-33.75
1772919591.061067,20.179275822566115,1.5395562165940082,-7.561625814353328,-0.24662565064270278,-1.3300916065021147,9.751814103131903,0.001090830782496456,0.003272492347489368,0.0,14.75,41.875,-33.75
1772919591.0727093,20.179275822566115,1.5395562165940082,-7.561625814353328,-0.24662565064270278,-1.3300916065021147,9.751814103131903,0.001090830782496456,0.003272492347489368,0.0,14.75,41.875,-33.75
1772919591.0857158,20.179275822566115,1.5395562165940082,-7.561625814353328,-0.24440929648935145,-1.3334060748111651,9.747862153662101,-0.001090830782496456,0.001090830782496456,0.0,15.5625,43.0,-34.5625
1772919591.097477,20.179275822566115,1.5395562165940082,-7.561625814353328,-0.24293433755859425,-1.3322667047384817,9.751922398850756,-0.001090830782496456,-0.002181661564992912,-0.001090830782496456,15.5625,43.0,-34.5625
1772919591.1099758,20.179275822566115,1.5395562165940082,-7.561625814353328,-0.24293433755859425,-1.3322667047384817,9.751922398850756,-0.001090830782496456,-0.002181661564992912,-0.001090830782496456,15.5625,43.0,-34.5625
1772919591.1309144,20.179275822566115,1.5395562165940082,-7.561625814353328,-0.24195276886654618,-1.3315084666827086,9.754624446667895,-0.001090830782496456,0.004363323129985824,-0.001090830782496456,15.5625,43.0,-34.5625
1772919591.1482718,20.179275822566115,1.5395562165940082,-7.561625814353328,-0.24464465757414833,-1.3310038677266656,9.75642262930635,-0.001090830782496456,-0.002181661564992912,-0.002181661564992912,15.5625,42.25,-35.375
1772919591.1697736,20.179275822566115,1.5395562165940082,-7.561625814353328,-0.2464360794386904,-1.3340131744654782,9.757619299765224,0.0,0.003272492347489368,0.001090830782496456,15.5625,42.25,-35.375
1772919591.1822915,20.179275822566115,1.5395562165940082,-7.561625814353328,-0.2464360794386904,-1.3340131744654782,9.757619299765224,0.0,0.003272492347489368,0.001090830782496456,15.5625,42.25,-35.375
1772919591.1966572,20.179275822566115,1.5395562165940082,-7.561625814353328,-0.2476282506780497,-1.3326707227766796,9.76176078229524,0.0,0.002181661564992912,-0.001090830782496456,15.5625,42.25,-35.375
1772919591.2169206,20.179275822566115,1.5395562165940082,-7.561625814353328,-0.24842162732041798,-1.331777336173952,9.764516892655575,0.002181661564992912,0.002181661564992912,0.0,16.25,42.5625,-35.0
1772919591.2294543,20.179275822566115,1.5395562165940082,-7.561625814353328,-0.24842162732041798,-1.331777336173952,9.764516892655575,0.002181661564992912,0.002181661564992912,0.0,16.25,42.5625,-35.0
1772919591.2495768,-0.0011066157254550563,1.5394700278847147,-7.561203670169401,-0.6928716622428864,-1.1635946065095464,9.763005941605288,0.0007525831780455528,0.002047746503913553,-0.002181661564992912,16.25,42.5625,-35.0
1772919591.5338423,-0.014854364619149617,1.5385948552048452,-7.561549855477209,-0.6931936234290618,-1.1627742206145206,9.756878988588603,0.0016714549148907764,-0.0017764564300023291,-0.006544984694978736,28.937564174375524,34.71086201974676,-34.5625
1772919591.7841423,-0.07819703490128913,1.523802765027325,-7.542817692623113,-0.6888159775108834,-1.1744477512937308,9.740050899742844,-0.008462276089565434,0.00543437080511854,-0.001090830782496456,29.33367254499678,33.43330158723339,-35.375
1772919591.8274875,-0.06497342576915717,1.5446553567458214,-7.57485823004718,-0.6269263414865719,-1.1722566420497138,9.746724096624915,-0.006160812084005341,0.024345382444474848,0.004363323129985824,29.46303206450044,33.785283283794136,-35.0
1772919591.8433635,-0.06497342576915717,1.5446553567458214,-7.57485823004718,-0.6269263414865719,-1.1722566420497138,9.746724096624915,-0.006160812084005341,0.024345382444474848,0.004363323129985824,29.46303206450044,33.785283283794136,-35.0
1772919591.8766203,-0.15331343635401273,1.5818611404628498,-7.6181468852512655,-0.5683132521206161,-1.0806262315889317,9.75746554093027,-0.0032554808869346818,0.02908845711523595,-0.055632369907319255,28.772107792921638,33.173575714000116,-35.0
1772919591.900426,-0.26115573619467625,1.6059942044460607,-7.635720281542526,-0.5683132521206161,-1.0806262315889317,9.75746554093027,-0.0032554808869346818,0.02908845711523595,-0.055632369907319255,28.772107792921638,33.173575714000116,-35.0
1772919591.9333003,-0.5321031183590657,1.6040837407121304,-7.6506969961104,-0.5347917085680572,-0.9609617552568934,9.761658457508176,-0.02095875814326986,0.003054047183605647,-0.1908953869368798,28.772107792921638,33.173575714000116,-35.0
1772919591.9638221,-0.5321031183590657,1.6040837407121304,-7.6506969961104,-0.5347917085680572,-0.9609617552568934,9.761658457508176,-0.02095875814326986,0.003054047183605647,-0.1908953869368798,28.772107792921638,33.173575714000116,-35.0
1772919592.0335577,-1.2790830183617827,1.287900745995087,-7.598669651250759,-0.31494669385071244,-0.6153570450908957,9.921669046896838,-0.037165438370408,-0.07582790768848957,-0.27598018797160334,29.82704604837793,34.05102530068577,-35.75
1772919592.0789053,-4.225973868549373,0.49465365659164795,-6.14891790340797,-0.16864229238604697,-0.38536097113299833,10.02815430669959,0.3061646781527115,-0.21362948888677855,-0.7494007475750653,29.82704604837793,34.05102530068577,-35.75
1772919592.1001303,-6.615581933969842,-0.1267801769742366,-5.214764412645555,-0.24726644829117234,-0.38145458292176887,10.072258163921475,0.2779689508751619,-0.25556457774558294,-0.9141161957320301,31.013848478054083,36.01199604062933,-36.1875
1772919592.114096,-7.673488308491843,-0.312764516137471,-4.8553668768002565,-0.3345835915369133,-0.41588831468738613,10.06481255944976,0.2592327971214994,-0.20219202522956026,-0.9599310885968813,31.013848478054083,36.01199604062933,-36.1875
1772919592.1350691,-7.673488308491843,-0.312764516137471,-4.8553668768002565,-0.3345835915369133,-0.41588831468738613,10.06481255944976,0.2592327971214994,-0.20219202522956026,-0.9599310885968813,31.013848478054083,36.01199604062933,-36.1875
1772919592.1514406,-8.755159547673312,-0.43240455830165386,-4.465738096822526,-0.4555679726764048,-0.5226116970061395,10.059857592846685,0.31660441045713167,-0.1314659112285899,-0.9872018581592926,31.013848478054083,36.01199604062933,-36.1875
1772919592.1801734,-10.453332528461747,-0.4395412992406623,-3.912759085308206,-0.5512706988339979,-0.6058720473348486,10.066595453044899,0.33677544027782663,-0.09239243909543272,-1.0155634585042006,31.76844567515876,38.06522260390036,-40.5625
1772919592.2181644,-13.16997484393635,-0.5043649399289087,-3.324857377859391,-0.6950643074243056,-0.685299095188922,10.071079423739981,0.22709842823107532,-0.03348951750455056,-1.2577278922184136,31.76844567515876,38.06522260390036,-40.5625
1772919592.233012,-13.16997484393635,-0.5043649399289087,-3.324857377859391,-0.6950643074243056,-0.685299095188922,10.071079423739981,0.22709842823107532,-0.03348951750455056,-1.2577278922184136,31.76844567515876,38.06522260390036,-40.5625
1772919592.2592232,-15.654772169874795,-0.36989028711279076,-3.2207985548373976,-0.8609864679534323,-0.7159103299968536,10.074063456148323,0.14475098944182233,0.0049097971480373155,-1.4966198335851375,30.712500585476512,38.453301162411336,-42.5625
1772919592.2735505,-18.44408830706515,-0.24477714797634878,-3.2427005389691645,-1.0384412634546092,-0.7829224402103573,10.086084631504207,0.0675229169123532,0.041427653855511316,-1.672243589567067,30.712500585476512,38.453301162411336,-42.5625
1772919592.2868385,-20.431060416437873,-0.2519998837105085,-3.2312508408677094,-1.1565354475606908,-0.8275182509831244,10.09408458941822,0.04246866576125623,0.04598686739520806,-1.7736908523392374,30.712500585476512,38.453301162411336,-42.5625
1772919592.2993088,-20.431060416437873,-0.2519998837105085,-3.2312508408677094,-1.1565354475606908,-0.8275182509831244,10.09408458941822,0.04246866576125623,0.04598686739520806,-1.7736908523392374,30.712500585476512,38.453301162411336,-42.5625
1772919592.3131385,-22.443909859942522,-0.34216370590833545,-3.148518340562496,-1.18590917439527,-0.839645554427123,10.059267131556778,0.06350628352047889,0.01152532651854169,-1.8195057452040886,29.412373398819902,39.26405732089326,-44.1875
1772919592.3305378,-24.463976595415257,-0.45687909011718486,-3.0417843280845207,-1.079329583737293,-0.7372599604720287,9.989264938384006,0.07896081448804801,-0.047614173920198864,-1.820596575986585,29.412373398819902,39.26405732089326,-44.1875
1772919592.3597538,-24.463976595415257,-0.45687909011718486,-3.0417843280845207,-1.079329583737293,-0.7372599604720287,9.989264938384006,0.07896081448804801,-0.047614173920198864,-1.820596575986585,29.412373398819902,39.26405732089326,-44.1875
1772919592.3780951,-28.516483367579948,-0.7003852936073709,-2.7754616111421955,-0.9770042408883799,-0.6806627459008018,9.912573255437387,0.09254245683739733,-0.054930002670431285,-1.8282323914640601,26.798588917699686,38.493400499568025,-46.1875
1772919592.3922124,-30.606842763202973,-0.790113339688194,-2.653248672862082,-0.9089078682714038,-0.6429979318359628,9.861535797138643,0.07499646489449123,-0.0078056911812608215,-1.908953869368798,26.798588917699686,38.493400499568025,-46.1875
1772919592.40753,-32.79952097682597,-0.8546537788140858,-2.5727117572447415,-1.025785375920409,-0.6616751413659048,9.850986720717831,0.050029642686241126,0.022289066613667217,-1.9962203319685143,26.798588917699686,38.493400499568025,-46.1875
1772919592.4264646,-32.79952097682597,-0.8546537788140858,-2.5727117572447415,-1.025785375920409,-0.6616751413659048,9.850986720717831,0.050029642686241126,0.022289066613667217,-1.9962203319685143,26.798588917699686,38.493400499568025,-46.1875
1772919592.445683,-36.16881916094323,-0.9310122817000627,-2.5039561637785357,-1.129140352682344,-0.7145997814981143,9.843966428200686,0.021089901557540165,0.03524926919924129,-2.026763593878415,25.100855539931565,38.58464948866955,-46.5
1772919592.4627805,-38.43138031085947,-0.9893838790020725,-2.4977600228360703,-1.205677418544024,-0.7612257391859721,9.839294501952331,-0.021912775024644438,0.0510535159381979,-2.040944394050869,25.100855539931565,38.58464948866955,-46.5
1772919592.4800494,-41.89586961075711,-1.0905764411298144,-2.6398681071948227,-1.2597517624837327,-0.7911008677327804,9.862946280881442,-0.10468021987434367,0.07566118521121336,-2.081305133003238,25.100855539931565,38.58464948866955,-46.5
1772919592.5147514,-41.89586961075711,-1.0905764411298144,-2.6398681071948227,-1.2597517624837327,-0.7911008677327804,9.862946280881442,-0.10468021987434367,0.07566118521121336,-2.081305133003238,25.100855539931565,38.58464948866955,-46.5
1772919592.5316331,-46.72907915654816,-1.4381595557096747,-3.1394918557855274,-1.3342469440183218,-0.7897018380569922,9.935553174575512,-0.2951990704357803,0.041085205655588264,-2.2023873498603446,22.34116092882283,38.866426268084396,-48.1875
1772919592.5498338,-49.19302081716233,-1.7019960451085772,-3.4763378904957674,-1.4058011262505337,-0.780693321297236,9.98387225125677,-0.3886513957646523,0.020808740401305252,-2.2405664272477206,22.34116092882283,38.866426268084396,-48.1875
1772919592.563711,-49.19302081716233,-1.7019960451085772,-3.4763378904957674,-1.4058011262505337,-0.780693321297236,9.98387225125677,-0.3886513957646523,0.020808740401305252,-2.2405664272477206,22.34116092882283,38.866426268084396,-48.1875
1772919592.579622,-51.678388434035185,-1.9672255493007207,-3.828838980525168,-1.4958467696097313,-0.8125635741953529,9.878878477028598,-0.4037120625709339,0.05888448118166439,-2.2460205811602028,22.34116092882283,38.866426268084396,-48.1875
1772919592.594754,-51.678388434035185,-1.9672255493007207,-3.828838980525168,-1.4958467696097313,-0.8125635741953529,9.878878477028598,-0.4037120625709339,0.05888448118166439,-2.2460205811602028,22.34116092882283,38.866426268084396,-48.1875
1772919592.6122751,-55.37006483002098,-2.298294855813561,-4.351212442953154,-1.555771139389533,-0.8337728714849978,9.68523715996624,-0.38483619607610703,0.10075828299678068,-2.2285672886402597,19.740415569245307,37.22534283795782,-47.6875
1772919592.6389647,-57.7637954607798,-2.517408778542767,-4.658097762360511,-1.51157391240615,-0.8324566211828957,9.556371026576487,-0.345885298030326,0.0992269747415308,-2.1543907954305004,19.740415569245307,37.22534283795782,-47.6875
1772919592.6668944,-62.48438108024402,-2.928112430877003,-5.1786479135174694,-1.4669721795707316,-0.819343539736452,9.447196272383403,-0.28757724038558385,0.14404125289824712,-2.131483348998075,15.818989937319856,35.070823805023075,-49.0
1772919592.6806774,-62.48438108024402,-2.928112430877003,-5.1786479135174694,-1.4669721795707316,-0.819343539736452,9.447196272383403,-0.28757724038558385,0.14404125289824712,-2.131483348998075,15.818989937319856,35.070823805023075,-49.0
1772919592.7037446,-65.99977056628452,-3.080460594632824,-5.469133443394862,-1.4372902246027623,-0.8106169305165614,9.351125911078583,-0.20370749658645163,0.22362350715007037,-2.0987584255231813,15.818989937319856,35.070823805023075,-49.0
1772919592.7193482,-68.32172033677493,-3.103172848797465,-5.6213261902651555,-1.3955587440540944,-0.8128869477020414,9.27715682368452,-0.1595673759103046,0.2678339181152761,-2.0758509790907556,15.818989937319856,35.070823805023075,-49.0
1772919592.7357295,-68.32172033677493,-3.103172848797465,-5.6213261902651555,-1.3955587440540944,-0.8128869477020414,9.27715682368452,-0.1595673759103046,0.2678339181152761,-2.0758509790907556,15.818989937319856,35.070823805023075,-49.0
1772919592.7526493,-71.76166336225003,-3.091741050258736,-5.798928878131388,-1.3097949212018798,-0.8214552250685669,9.154338764751591,-0.12703100745017556,0.27098439748709924,-2.0343994093558906,15.945844802107306,34.69126604488668,-49.375
1772919592.7698414,-75.07908603779116,-3.0778077340259093,-5.966678577386427,-1.2177264093581566,-0.7901239284590851,9.062569383377383,-0.12638342578724154,0.2695842326461197,-1.9798578702310676,15.945844802107306,34.69126604488668,-49.375
1772919592.789265,-77.24959766135723,-3.0102538305455813,-6.0450863905154595,-1.1344773721121777,-0.7773507786976954,9.011533220325965,-0.05622646775172891,0.31817899926532844,-1.923134669541252,15.945844802107306,34.69126604488668,-49.375
1772919592.804697,-77.24959766135723,-3.0102538305455813,-6.0450863905154595,-1.1344773721121777,-0.7773507786976954,9.011533220325965,-0.05622646775172891,0.31817899926532844,-1.923134669541252,15.945844802107306,34.69126604488668,-49.375
1772919592.8207455,-79.35611904082486,-2.90530809931355,-6.06279235006393,-1.0665169414424316,-0.7734660920104681,8.987604559048501,0.006649806678080661,0.30901685771451154,-1.856593991808968,14.074134244510722,32.31613850334676,-49.25
1772919592.842052,-82.34459303264133,-2.747947897143253,-6.059979221410793,-0.9436813126586413,-0.7245621957775408,9.018511866171481,0.012583043159598201,0.2998632854905886,-1.7715091907742444,14.074134244510722,32.31613850334676,-49.25
1772919592.8595831,-84.24745301974366,-2.6298520676214454,-6.03407907126021,-0.8252780667125934,-0.6698507868758677,9.03908033380458,0.044340686542522954,0.26611061332054436,-1.686424389739521,14.074134244510722,32.31613850334676,-49.25
1772919592.8796542,-84.24745301974366,-2.6298520676214454,-6.03407907126021,-0.8252780667125934,-0.6698507868758677,9.03908033380458,0.044340686542522954,0.26611061332054436,-1.686424389739521,14.074134244510722,32.31613850334676,-49.25
1772919592.8982475,-87.02351674054711,-2.3498613151325953,-5.9468274259635665,-0.7464820291864195,-0.6334409554182872,9.032697749005655,0.07234398336211402,0.2790622465792244,-1.6417003276571662,12.32225557381726,30.629430578669425,-48.375
1772919592.9107912,-88.80550007492718,-2.1074414664095,-5.866412641434689,-0.7245561440058915,-0.6728381816709016,9.028450210120113,0.13336494174596847,0.2996361438065774,-1.5729779883598896,12.32225557381726,30.629430578669425,-48.375
1772919592.924992,-88.80550007492718,-2.1074414664095,-5.866412641434689,-0.7245561440058915,-0.6728381816709016,9.028450210120113,0.13336494174596847,0.2996361438065774,-1.5729779883598896,12.32225557381726,30.629430578669425,-48.375
1772919592.9394546,-90.54983907787395,-1.9150840010834793,-5.774639419997814,-0.7099647123464359,-0.6990565956461628,9.089180642878972,0.14036576595086622,0.3028740521212474,-1.5304355878425278,12.32225557381726,30.629430578669425,-48.375
1772919592.9549048,-92.2385137349008,-1.7137139284552165,-5.685527312609016,-0.6837234389679727,-0.7297077731257565,9.233294530403509,0.14268480252869098,0.29969743085026546,-1.487893187325166,11.471891064442948,28.677987471326404,-50.0625
1772919592.9668326,-92.2385137349008,-1.7137139284552165,-5.685527312609016,-0.6837234389679727,-0.7297077731257565,9.233294530403509,0.14268480252869098,0.29969743085026546,-1.487893187325166,11.471891064442948,28.677987471326404,-50.0625
1772919592.9792655,-93.8887283447917,-1.509660317162752,-5.594085784196662,-0.6662601646688361,-0.7501057893423388,9.33923604781544,0.1600906478119562,0.2933004738368783,-1.4540774330677757,11.471891064442948,28.677987471326404,-50.0625
1772919592.9913256,-95.50847217724807,-1.2276939497105845,-5.505596314562016,-0.6838625692386341,-0.7850149228376447,9.436499837867343,0.1695767971534784,0.287489811442737,-1.4268066635053644,11.471891064442948,28.677987471326404,-50.0625
1772919593.015723,-95.50847217724807,-1.2276939497105845,-5.505596314562016,-0.6838625692386341,-0.7850149228376447,9.436499837867343,0.1695767971534784,0.287489811442737,-1.4268066635053644,11.471891064442948,28.677987471326404,-50.0625
1772919593.0412056,-97.11826585181485,-0.9771860390213681,-5.390453781044423,-0.7081358991833184,-0.8036308594246528,9.527988697297713,0.18689521349389673,0.2555573101741185,-1.423534171157875,11.483432365495393,25.810493260631286,-50.0
1772919593.0755372,-99.5137822604347,-0.6821484630148303,-5.206323912841203,-0.7231356036622575,-0.8128797756858627,9.588873511251101,0.17115225379862825,0.20323477280921134,-1.4180800172453927,11.483432365495393,25.810493260631286,-50.0
1772919593.0969198,-103.4951779206992,-0.4078795667961558,-4.9000638029557,-0.7184387033676428,-0.7887909357508532,9.659497680175019,0.1618413962612763,0.12414281490689301,-1.4202616788103857,10.388885759146712,24.28172775325921,-50.5
1772919593.11025,-105.07537847600113,-0.33191991013819494,-4.778438074690599,-0.705893623937971,-0.7762218582092373,9.666355935182393,0.16530688017843412,0.10195018048144328,-1.4224433403753787,10.388885759146712,24.28172775325921,-50.5
1772919593.1236246,-105.07537847600113,-0.33191991013819494,-4.778438074690599,-0.705893623937971,-0.7762218582092373,9.666355935182393,0.16530688017843412,0.10195018048144328,-1.4224433403753787,10.388885759146712,24.28172775325921,-50.5
1772919593.1376119,-106.66335467623189,-0.26714324667700484,-4.685333225061252,-0.7113921190958805,-0.8055346565167677,9.711061367765906,0.12884130726927762,0.09443291802788181,-1.423534171157875,10.388885759146712,24.28172775325921,-50.5
1772919593.1524885,-108.23993974305718,-0.21820015238658927,-4.654501646173022,-0.7247926457140262,-0.8321534901996642,9.734122110343192,0.0798792523064167,0.08453533195280746,-1.4169891864628963,10.642595488721613,23.522612232986422,-51.6875
1772919593.1804185,-108.23993974305718,-0.21820015238658927,-4.654501646173022,-0.7247926457140262,-0.8321534901996642,9.734122110343192,0.0798792523064167,0.08453533195280746,-1.4169891864628963,10.642595488721613,23.522612232986422,-51.6875
1772919593.195499,-111.39444092195033,-0.18270104561064468,-4.623560778668283,-0.7360183973814846,-0.8561475898313897,9.749468776923,0.06863421910715684,0.06658690652171982,-1.4202616788103857,10.642595488721613,23.522612232986422,-51.6875
1772919593.2152011,-112.94779610254359,-0.21040123075403624,-4.606782831743909,-0.7372094465487019,-0.8744232460014205,9.752991588683727,0.04656415876908334,0.04448170103911696,-1.3864459245529954,10.642595488721613,23.522612232986422,-51.6875
1772919593.229089,-112.94779610254359,-0.21040123075403624,-4.606782831743909,-0.7372094465487019,-0.8744232460014205,9.752991588683727,0.04656415876908334,0.04448170103911696,-1.3864459245529954,10.642595488721613,23.522612232986422,-51.6875
1772919593.245981,-115.12632070793721,-0.3478632745785091,-4.609720058269839,-0.6712886200849255,-0.8505180858312027,9.755335980558105,0.0012775907536033187,0.01928730322837908,-1.313360262125733,9.228161572555951,20.579903795712987,-51.375
1772919593.2651649,-116.4942231923591,-0.47071083936334357,-4.666118831249076,-0.6153698560476186,-0.8212184117537984,9.81376304618636,-0.07240613824275521,0.0022050318173426104,-1.2184579840485412,9.228161572555951,20.579903795712987,-51.375
1772919593.2820814,-116.4942231923591,-0.47071083936334357,-4.666118831249076,-0.6153698560476186,-0.8212184117537984,9.81376304618636,-0.07240613824275521,0.0022050318173426104,-1.2184579840485412,9.228161572555951,20.579903795712987,-51.375
1772919593.2957654,-118.41530541619525,-0.6519969856802189,-4.8483828566063165,-0.5758486923375414,-0.7954402427864775,9.852645605688874,-0.14696502450453555,0.0017147354678376768,-1.1355548445788106,9.228161572555951,20.579903795712987,-51.375
1772919593.3130023,-119.63543557072838,-0.7977331910033066,-4.9577465102152924,-0.5497357405331397,-0.7497051302841284,9.8183095039594,-0.1395266216669269,-0.003343343748258092,-1.114829059711378,9.997811559655231,19.231647459789404,-53.0
1772919593.325442,-119.63543557072838,-0.7977331910033066,-4.9577465102152924,-0.5497357405331397,-0.7497051302841284,9.8183095039594,-0.1395266216669269,-0.003343343748258092,-1.114829059711378,9.997811559655231,19.231647459789404,-53.0
1772919593.3428009,-120.7915486074978,-0.9546113239055205,-5.0291765373588415,-0.5219725337726174,-0.6910108895542371,9.75866298303731,-0.07723664185636318,-0.020425181240818026,-1.036289243371633,9.997811559655231,19.231647459789404,-53.0
1772919593.3576264,-121.85675917222099,-1.058423114556535,-4.994395907337405,-0.4585735033514795,-0.6363856736841144,9.718968889658955,0.001855316045955128,-0.02973603877816995,-0.940296134511945,9.997811559655231,19.231647459789404,-53.0
1772919593.3718307,-121.85675917222099,-1.058423114556535,-4.994395907337405,-0.4585735033514795,-0.6363856736841144,9.718968889658955,0.001855316045955128,-0.02973603877816995,-0.940296134511945,9.997811559655231,19.231647459789404,-53.0
1772919593.3891354,-123.25149025434148,-1.185221287288081,-4.8190865360304125,-0.39126390414933293,-0.6092646063132823,9.715968695878972,0.0720037047545737,-0.038084310107253216,-0.8410305333047675,11.77677530766004,17.91197402166743,-53.5
1772919593.404981,-124.07698411388382,-1.2509997897968315,-4.656955118032056,-0.3476240432261804,-0.5943556205239737,9.817670563359655,0.12405495204556963,-0.051403231709585384,-0.7341291166201148,11.77677530766004,17.91197402166743,-53.5
1772919593.41744,-124.07698411388382,-1.2509997897968315,-4.656955118032056,-0.3476240432261804,-0.5943556205239737,9.817670563359655,0.12405495204556963,-0.051403231709585384,-0.7341291166201148,11.77677530766004,17.91197402166743,-53.5
1772919593.4326148,-124.86971523341599,-1.2966234276533712,-4.4818380352406075,-0.32486176643862386,-0.5821260061286998,9.89204224349839,0.12620770006459472,-0.04870790354273783,-0.7101308394051928,11.77677530766004,17.91197402166743,-53.5
1772919593.4472146,-125.62322622577067,-1.3397322773668248,-4.316562458136836,-0.3085598000594109,-0.5708475527785825,9.934845542429976,0.11375493248231373,-0.03832045503663508,-0.6741334235828098,10.186841529478302,18.29654109123624,-55.375
1772919593.4650815,-126.34722771215047,-1.3852354089295476,-4.1554430486352265,-0.2574037988751359,-0.5603361400758755,9.866322420212505,0.13885289810483412,-0.03011189644871618,-0.6446809924554054,10.186841529478302,18.29654109123624,-55.375
1772919593.4819026,-126.34722771215047,-1.3852354089295476,-4.1554430486352265,-0.2574037988751359,-0.5603361400758755,9.866322420212505,0.13885289810483412,-0.03011189644871618,-0.6446809924554054,10.186841529478302,18.29654109123624,-55.375
1772919593.4993126,-127.32858854753097,-1.4030257309074639,-3.8606877541215496,-0.16338220668329817,-0.5646922256619327,9.71033236148867,0.16988410020887207,-0.031056910084720158,-0.5890486225480862,10.186841529478302,18.29654109123624,-55.375
1772919593.5201454,-127.87016590903802,-1.4262118759737286,-3.6930642638054314,-0.07491559157945091,-0.516522715930849,9.606522719931087,0.12037946509818871,-0.036106419973921854,-0.4723297288209654,10.953986861861376,16.216745298615514,-55.75
1772919593.5383093,-128.346827003071,-1.4562338874436636,-3.5595996739714946,-0.016042047464683375,-0.4844664452934935,9.547473898226153,0.08454390127970153,-0.02293621435812468,-0.4166973589136462,10.953986861861376,16.216745298615514,-55.75
1772919593.5572503,-128.95312914875157,-1.4938416142687077,-3.453425467920031,-0.014029804596883699,-0.46729300871150903,9.588460247975743,0.047640749737834165,-0.022157489280920376,-0.3643374813538163,10.953986861861376,16.216745298615514,-55.75
1772919593.5776958,-128.95312914875157,-1.4938416142687077,-3.453425467920031,-0.014029804596883699,-0.46729300871150903,9.588460247975743,0.047640749737834165,-0.022157489280920376,-0.3643374813538163,10.953986861861376,16.216745298615514,-55.75
1772919593.5987413,-129.4074911546795,-1.5555401379691387,-3.464381846731385,-0.01846030668852065,-0.4715631864250882,9.66925799320368,-0.027023138039057714,-0.02609569697531842,-0.2694352032766246,11.849484879522151,15.754459347752178,-56.1875
1772919593.6198776,-129.66080323583193,-1.6317714691146903,-3.5094117430896716,-0.055436417834745746,-0.47971852087602035,9.733063325204876,-0.06509887881941687,-0.04115636378160009,-0.2301652951067522,11.849484879522151,15.754459347752178,-56.1875
1772919593.6338465,-129.66080323583193,-1.6317714691146903,-3.5094117430896716,-0.055436417834745746,-0.47971852087602035,9.733063325204876,-0.06509887881941687,-0.04115636378160009,-0.2301652951067522,11.849484879522151,15.754459347752178,-56.1875
1772919593.6472437,-130.0374733637911,-1.7934561433783334,-3.5581986704682813,-0.20308519047619247,-0.5290225809956353,9.795595731143328,-0.05925307128074618,-0.07584548026075426,-0.23561944901923448,11.849484879522151,15.754459347752178,-56.1875
1772919593.6600635,-130.30082217377552,-1.9335980695352073,-3.5610701227753747,-0.34114108806233895,-0.5828463690453891,9.977705040470038,-0.05175338139944941,-0.09022342025957256,-0.24652775684419906,12.099683120154888,15.52933251597888,-55.75
1772919593.6730707,-130.30082217377552,-1.9335980695352073,-3.5610701227753747,-0.34114108806233895,-0.5828463690453891,9.977705040470038,-0.05175338139944941,-0.09022342025957256,-0.24652775684419906,12.099683120154888,15.52933251597888,-55.75
1772919593.6857119,-130.56136558480563,-2.116445860835507,-3.550307502588878,-0.43301574572049495,-0.618665498741392,10.098896751532687,-0.04611757689100183,-0.13180835942851293,-0.2454369260617026,12.099683120154888,15.52933251597888,-55.75
1772919593.6990337,-130.80623999792087,-2.158554191683327,-3.569670689125407,-0.4949892347718591,-0.6350692408121862,10.162822922908164,-0.04608243174647247,-0.1759836252491893,-0.23561944901923448,12.099683120154888,15.52933251597888,-55.75
1772919593.721221,-130.80623999792087,-2.158554191683327,-3.569670689125407,-0.4949892347718591,-0.6350692408121862,10.162822922908164,-0.04608243174647247,-0.1759836252491893,-0.23561944901923448,12.099683120154888,15.52933251597888,-55.75
1772919593.7363293,-131.20288380937592,-2.2019261121835054,-3.566560099134106,-0.5362318994463084,-0.6459857479184942,10.191984629027143,-0.020590601962664608,-0.18883882631965182,-0.24652775684419906,11.436334912151736,15.173839330475968,-56.5625
1772919593.765009,-131.62682956904922,-2.1919993985537056,-3.5426753190381373,-0.5882867488211748,-0.6620259166810826,10.15452451966729,0.015708682387692206,-0.17544961442826093,-0.27379852640661045,11.436334912151736,15.173839330475968,-56.5625
1772919593.7821043,-131.91939868265567,-2.1661883894218725,-3.5133699737777886,-0.6283763020699595,-0.6778261075313866,10.112869676808552,0.026682425513040845,-0.15507715090423696,-0.27379852640661045,11.436334912151736,15.173839330475968,-56.5625
1772919593.798714,-131.91939868265567,-2.1661883894218725,-3.5133699737777886,-0.6283763020699595,-0.6778261075313866,10.112869676808552,0.026682425513040845,-0.15507715090423696,-0.27379852640661045,11.436334912151736,15.173839330475968,-56.5625
1772919593.8158352,-132.19292235597317,-2.1633246253838414,-3.4246773356814804,-0.6519156703435661,-0.6894948834909537,10.078458620786508,0.0970408172518825,-0.15652959954353401,-0.24980024919168842,11.788316608712485,15.044479810972309,-56.5625
1772919593.8302429,-132.55731468706827,-2.330056923446004,-3.1097253969921086,-0.6107427937078059,-0.707457711414426,9.978620878132173,0.13856446937713476,-0.1415739342523639,-0.22471114119426994,11.788316608712485,15.044479810972309,-56.5625
1772919593.8473477,-132.55731468706827,-2.330056923446004,-3.1097253969921086,-0.6107427937078059,-0.707457711414426,9.978620878132173,0.13856446937713476,-0.1415739342523639,-0.22471114119426994,11.788316608712485,15.044479810972309,-56.5625
1772919593.8662322,-132.76056112292548,-2.389771058363557,-2.8726099808769074,-0.5361119268837519,-0.6975673552499383,9.82520707126607,0.18508491367479465,-0.10986000534086257,-0.1734420944169365,11.788316608712485,15.044479810972309,-56.5625
1772919593.8797345,-132.9013857017246,-2.391104790679472,-2.6329841965213543,-0.4415229922364008,-0.6754205793829797,9.723111896541191,0.20947401059069296,-0.09093142112924159,-0.11126473981463851,12.434623219966477,13.541792546685631,-56.5625
1772919593.892653,-132.9013857017246,-2.391104790679472,-2.6329841965213543,-0.4415229922364008,-0.6754205793829797,9.723111896541191,0.20947401059069296,-0.09093142112924159,-0.11126473981463851,12.434623219966477,13.541792546685631,-56.5625
1772919593.912313,-132.99827427136523,-2.390593983232641,-2.2680495523114073,-0.37395941106267633,-0.6481230211039886,9.758867161166513,0.19247059879560927,-0.04865518582594378,-0.032724923474893676,12.434623219966477,13.541792546685631,-56.5625
1772919593.9343615,-132.99827427136523,-2.390593983232641,-2.2680495523114073,-0.37395941106267633,-0.6481230211039886,9.758867161166513,0.19247059879560927,-0.04865518582594378,-0.032724923474893676,12.434623219966477,13.541792546685631,-56.5625
1772919593.9700968,-133.02473309703922,-2.2466829347535433,-1.9532707141093997,-0.33213638411002344,-0.6288028755546397,9.806077672313425,0.1492227740386722,0.0044285040439029835,-0.013089969389957472,11.615837249374273,14.575170882224645,-55.5
1772919593.9848058,-132.9809868216927,-1.9505915947825097,-1.7410603397022013,-0.3043036268668559,-0.6159455345117149,9.83749574010573,0.15865620566340036,0.06488074038077622,0.05235987755982989,11.615837249374273,14.575170882224645,-55.5
1772919594.0059056,-132.9809868216927,-1.9505915947825097,-1.7410603397022013,-0.3043036268668559,-0.6159455345117149,9.83749574010573,0.15865620566340036,0.06488074038077622,0.05235987755982989,11.615837249374273,14.575170882224645,-55.5
1772919594.023754,-132.78005242955592,-1.7613058389613407,-1.4941558307899465,-0.2752079676339918,-0.6077111124349112,9.778121432283031,0.19045756351774853,0.04389584033834761,0.15707963267948966,12.703876725800283,12.643789874308649,-56.5
1772919594.0406332,-132.47758185397808,-1.5523732569446986,-1.2518077106597758,-0.2033546627639564,-0.5466811123028578,9.705157376608307,0.1914814367697053,0.04351954874932484,0.1832595714594046,12.703876725800283,12.643789874308649,-56.5
1772919594.0610516,-132.47758185397808,-1.5523732569446986,-1.2518077106597758,-0.2033546627639564,-0.5466811123028578,9.705157376608307,0.1914814367697053,0.04351954874932484,0.1832595714594046,12.703876725800283,12.643789874308649,-56.5
1772919594.0879025,-132.25367052162804,-1.4050131533882266,-1.1319249147984323,-0.15322924013018263,-0.49978676579713455,9.656600612618686,0.17250913808666088,0.055140873537607486,0.2007128639793479,12.703876725800283,12.643789874308649,-56.5
1772919594.115758,-131.92319726881962,-1.1598010074584642,-1.0564690370379803,-0.12531896378564517,-0.4737047397609769,9.691188862744575,0.11383335817979,0.06624576007722642,0.1908953869368798,11.756738069930375,12.059658368090275,-56.0625
1772919594.140506,-131.64467128217188,-1.0992155019325087,-1.2313262713072628,-0.18486364392307972,-0.4846593646108003,9.740967850485838,-0.28061112740673894,0.05548071822667127,0.15707963267948966,11.756738069930375,12.059658368090275,-56.0625
1772919594.1541307,-131.64429202605945,-1.126427764777753,-1.4276441081374038,-0.3191657377318717,-0.681678306718295,10.078500376125984,-0.14925791918320155,0.03974676177677339,-0.05781403147231216,11.756738069930375,12.059658368090275,-56.0625
1772919594.177249,-131.85627658682796,-1.2386515955551458,-1.7873249288942186,-0.40854228090893396,-0.8127922118450436,10.303124501454137,-0.2186185795692452,0.005967513789093843,-0.1341721862470641,11.942256550811285,11.658540688036604,-55.375
1772919594.190328,-131.85627658682796,-1.2386515955551458,-1.7873249288942186,-0.40854228090893396,-0.8127922118450436,10.303124501454137,-0.2186185795692452,0.005967513789093843,-0.1341721862470641,11.942256550811285,11.658540688036604,-55.375
1772919594.202844,-132.00352367942838,-1.346227070942667,-1.992091955094363,-0.3801613752125822,-0.864623635392395,10.118098176912195,-0.22209263281329705,-0.02878288973374845,-0.12544553998709243,11.942256550811285,11.658540688036604,-55.375
1772919594.221705,-132.1209253656752,-1.4771646236089928,-2.187499599884035,-0.33352610117857123,-0.8914954389878904,9.994965224809004,-0.20445921192754404,-0.05037165696768762,-0.10471975511965978,11.942256550811285,11.658540688036604,-55.375
1772919594.2444186,-132.24368256400675,-1.6810394743381367,-2.675971747194409,-0.3051206929172073,-0.9262311574703975,9.943127626035405,-0.21482908786138213,-0.08491205746030679,-0.0818123086872342,10.478170803191041,12.929078142665658,-55.375
1772919594.2644432,-132.31433605159958,-1.8039814393551519,-2.9336470973419884,-0.28044758378653895,-0.933648482178073,9.93539117677405,-0.18793709323659472,-0.09711967686783532,-0.0719948316447661,10.478170803191041,12.929078142665658,-55.375
1772919594.2829583,-132.31433605159958,-1.8039814393551519,-2.9336470973419884,-0.28044758378653895,-0.933648482178073,9.93539117677405,-0.18793709323659472,-0.09711967686783532,-0.0719948316447661,10.478170803191041,12.929078142665658,-55.375
1772919594.3076513,-132.4052137231938,-1.8929117882943514,-3.1673476283401087,-0.2668456920992215,-0.9268574332658921,9.903481762553866,-0.166890906150478,-0.07463817979620967,-0.09708393964218458,10.478170803191041,12.929078142665658,-55.375
1772919594.3219779,-132.60037066438244,-2.002696360997175,-3.4865187600743623,-0.27663247462723756,-0.9154145133855044,9.9090072975004,-0.16350428184927301,-0.06542332052859867,-0.14180800172453928,11.403749539143673,13.45454603279057,-55.375
1772919594.3365276,-132.75795752631802,-2.0521787146441666,-3.7070298976033444,-0.28942503224172145,-0.9054915271341242,9.869198027087897,-0.13485340336674795,-0.053871852110898226,-0.1505346479845109,11.403749539143673,13.45454603279057,-55.375
1772919594.3498003,-132.75795752631802,-2.0521787146441666,-3.7070298976033444,-0.28942503224172145,-0.9054915271341242,9.869198027087897,-0.13485340336674795,-0.053871852110898226,-0.1505346479845109,11.403749539143673,13.45454603279057,-55.375
1772919594.3618975,-132.91104889103983,-2.0825965951823435,-3.880840137375926,-0.3063378093319858,-0.9314396319173031,9.825979843790469,-0.1074976882100909,-0.03952005401123868,-0.1439896632895322,11.403749539143673,13.45454603279057,-55.375
1772919594.3738778,-133.0455146525539,-2.0915337958245854,-4.049272975577772,-0.3187469990058439,-0.9518475873749924,9.790528402170132,-0.08563763090224051,-0.024310671218422022,-0.12326387842209953,10.758449762115635,13.691705151880612,-54.875
1772919594.387035,-133.0455146525539,-2.0915337958245854,-4.049272975577772,-0.3187469990058439,-0.9518475873749924,9.790528402170132,-0.08563763090224051,-0.024310671218422022,-0.12326387842209953,10.758449762115635,13.691705151880612,-54.875
1772919594.3999352,-133.15563479242346,-2.078605619645152,-4.212387782214394,-0.31246019364341815,-0.9743382625860235,9.76359075208303,-0.0691069428843971,-0.014115653170277695,-0.09817477042468103,10.758449762115635,13.691705151880612,-54.875
1772919594.4142094,-133.2119102015476,-2.013312927832722,-4.351340013555812,-0.31866172393841885,-1.0175635899559208,9.74566404686333,0.004139207479250541,0.011262605771524539,-0.03381575425739013,10.758449762115635,13.691705151880612,-54.875
1772919594.4301755,-133.2119102015476,-2.013312927832722,-4.351340013555812,-0.31866172393841885,-1.0175635899559208,9.74566404686333,0.004139207479250541,0.011262605771524539,-0.03381575425739013,10.758449762115635,13.691705151880612,-54.875
1772919594.4435673,-133.21232357716764,-1.9612525744145124,-4.442638112666333,-0.3231107678354618,-1.0569028326618488,9.733734024794039,-0.0012077343830211272,0.0283358739371904,-0.008726646259971648,10.572931281234725,14.092822831934283,-56.0625
1772919594.456255,-133.2027337898863,-1.9531917281255564,-4.454537804454773,-0.2538565804223139,-1.1096229445473962,9.699033834715449,0.009801153886856871,0.004533071640538,0.028361600344907856,10.572931281234725,14.092822831934283,-56.0625
1772919594.4769423,-133.14296734405787,-1.9412054238000573,-4.45760677484502,-0.17905460970619103,-1.1053663497052424,9.675941245844669,0.003115334227293764,0.011638897360547316,0.05235987755982989,10.572931281234725,14.092822831934283,-56.0625
1772919594.4947479,-133.14296734405787,-1.9412054238000573,-4.45760677484502,-0.17905460970619103,-1.1053663497052424,9.675941245844669,0.003115334227293764,0.011638897360547316,0.05235987755982989,10.572931281234725,14.092822831934283,-56.0625
1772919594.5074155,-133.0266203274099,-1.905737252185905,-4.531300259462547,-0.12927473378737456,-1.102533633387069,9.69402450298548,0.00031500454533465864,0.010343734034679317,0.07308566242726255,10.981071939172724,13.210363935816206,-55.375
1772919594.519336,-132.93812875867073,-1.8694136305989622,-4.569957333932138,-0.13696394303053866,-1.0856474614918163,9.70605870860947,-0.00469936019933767,0.015673103324686306,0.07635815477475191,10.981071939172724,13.210363935816206,-55.375
1772919594.5341616,-132.93812875867073,-1.8694136305989622,-4.569957333932138,-0.13696394303053866,-1.0856474614918163,9.70605870860947,-0.00469936019933767,0.015673103324686306,0.07635815477475191,10.981071939172724,13.210363935816206,-55.375
1772919594.5461097,-132.82267870573062,-1.83372399095376,-4.593095094306343,-0.15150037063918903,-1.0709481263812661,9.714067338021351,-0.008794853207164777,0.017178269680777413,0.11453723216212788,10.981071939172724,13.210363935816206,-55.375
1772919594.5614614,-132.6478346631572,-1.7664657996769813,-4.648144347670086,-0.16117420083020967,-1.061165883067527,9.716051879725386,-0.007123398292273998,0.01540181325077508,0.1461713248545251,12.05155397088792,13.948926370397675,-56.5
1772919594.580653,-132.44749617716096,-1.7174925235905134,-4.674344147288013,-0.25418404449244136,-1.0477862442940384,9.707337234938679,-0.006764679275515906,0.03851331941307004,0.18653206380689397,12.05155397088792,13.948926370397675,-56.5
1772919594.5979288,-132.44749617716096,-1.7174925235905134,-4.674344147288013,-0.25418404449244136,-1.0477862442940384,9.707337234938679,-0.006764679275515906,0.03851331941307004,0.18653206380689397,12.05155397088792,13.948926370397675,-56.5
1772919594.611189,-132.27321100041993,-1.6461586626519824,-4.709582331237784,-0.4248996524761906,-1.1022416993197595,9.664741507401574,-0.015892109600280018,0.06743548796950632,0.15162547876700738,12.05155397088792,13.948926370397675,-56.5
1772919594.6235547,-132.15030422614134,-1.549583360004416,-4.759260402531592,-0.5477403861581723,-1.1635994490025394,9.66650053191696,-0.012505485299075029,0.0766503472371173,0.12762720155208535,11.403749539143673,13.45454603279057,-56.5
1772919594.6361027,-132.15030422614134,-1.549583360004416,-4.759260402531592,-0.5477403861581723,-1.1635994490025394,9.66650053191696,-0.012505485299075029,0.0766503472371173,0.12762720155208535,11.403749539143673,13.45454603279057,-56.5
1772919594.6538124,-132.09347610942504,-1.4517852623873593,-4.813780222100993,-0.5698336721102977,-1.2263569295247971,9.667671143082357,-0.017266132542100823,0.10164331134452616,0.037088246604879506,11.403749539143673,13.45454603279057,-56.5
1772919594.6745963,-132.16451397065038,-1.3067262980881909,-4.907132547379564,-0.41812808317150896,-1.3292793805298462,9.69186595368758,-0.022280497286773143,0.10697268063453315,-0.03599741582238305,11.403749539143673,13.45454603279057,-56.5
1772919594.6876328,-132.16451397065038,-1.3067262980881909,-4.907132547379564,-0.41812808317150896,-1.3292793805298462,9.69186595368758,-0.022280497286773143,0.10697268063453315,-0.03599741582238305,11.403749539143673,13.45454603279057,-56.5
1772919594.7075303,-132.2073345957216,-1.2442155382032638,-4.964549620075214,-0.3044765284629624,-1.3632355245327228,9.707967329871613,-0.018587437767127575,0.06958823598853142,-0.022907446432425576,12.531397366462073,12.174480945560983,-55.6875
1772919594.722882,-132.2073345957216,-1.2442155382032638,-4.964549620075214,-0.3044765284629624,-1.3632355245327228,9.707967329871613,-0.018587437767127575,0.06958823598853142,-0.022907446432425576,12.531397366462073,12.174480945560983,-55.6875
1772919594.738408,-132.1876476690979,-1.1032609807256513,-5.022153933702497,-0.24140181471070332,-1.3812172572581092,9.728717950979888,-0.004874652003507952,0.10057572362114595,0.017453292519943295,12.531397366462073,12.174480945560983,-55.6875
1772919594.7509365,-132.29121524980712,-0.9385406793406441,-5.109833042894125,-0.38153362916008066,-1.3262562235113269,9.742527257527819,-0.01496466853654073,0.12055432298388245,-0.05235987755982989,12.531397366462073,12.174480945560983,-55.6875
1772919594.7677584,-132.29121524980712,-0.9385406793406441,-5.109833042894125,-0.38153362916008066,-1.3262562235113269,9.742527257527819,-0.01496466853654073,0.12055432298388245,-0.05235987755982989,12.531397366462073,12.174480945560983,-55.6875
1772919594.7836313,-132.40665581357365,-0.8211117741588048,-5.178164352499474,-0.4955604443721611,-1.3461963380163382,9.751717196775404,-0.01885015851414473,0.1289553120297598,-0.10253809355466686,11.110431458676382,13.562345632376953,-55.6875
1772919594.7957802,-132.40665581357365,-0.8211117741588048,-5.178164352499474,-0.4955604443721611,-1.3461963380163382,9.751717196775404,-0.01885015851414473,0.1289553120297598,-0.10253809355466686,11.110431458676382,13.562345632376953,-55.6875
1772919594.8094537,-132.5942583855513,-0.6041160701413045,-5.337717025719904,-0.5588848897975874,-1.3640819632672947,9.724381881613132,-0.016653696023696183,0.14441841232422298,-0.10035643198967395,11.110431458676382,13.562345632376953,-55.6875
1772919594.826531,-132.67581371270046,-0.47385620651800303,-5.399154603224384,-0.4468290300175114,-1.2473337681699266,9.706190534728117,-0.006187387901640638,0.12546368621344323,-0.04254240051736178,11.110431458676382,13.562345632376953,-55.6875
1772919594.8440287,-132.67581371270046,-0.47385620651800303,-5.399154603224384,-0.4468290300175114,-1.2473337681699266,9.706190534728117,-0.006187387901640638,0.12546368621344323,-0.04254240051736178,11.110431458676382,13.562345632376953,-55.6875
1772919594.862955,-132.62157969799927,-0.34303215308048446,-5.465148368161445,-0.3567461403251381,-1.1468287467217393,9.694084396586799,-0.013634360066143356,0.07357872748124698,0.04145156973486533,12.567494228412299,13.359785554746887,-54.875
1772919594.8863924,-132.51584152361022,-0.23687943593558686,-5.515672823651339,-0.2967969835266766,-1.0799437776626237,9.686027896888177,-0.013170639534273719,0.10013814498843505,0.10799224746714914,12.567494228412299,13.359785554746887,-54.875
1772919594.9010937,-132.51584152361022,-0.23687943593558686,-5.515672823651339,-0.2967969835266766,-1.0799437776626237,9.686027896888177,-0.013170639534273719,0.10013814498843505,0.10799224746714914,12.567494228412299,13.359785554746887,-54.875
1772919594.9143872,-132.40568195022948,-0.023354672068499883,-5.637418775109004,-0.33714005635221383,-1.0986040919126334,9.680666386335743,-0.03186307881651283,0.16627846963207338,0.05890486225480862,12.567494228412299,13.359785554746887,-54.875
1772919594.9277503,-132.34710535261604,0.16459230513571452,-5.7749230085955965,-0.408588852351955,-1.1160139067188497,9.707204366320969,-0.028581456030419405,0.17204541755479125,0.07526732399225546,12.919475924973048,13.230426035243228,-56.1875
1772919594.9400551,-132.34710535261604,0.16459230513571452,-5.7749230085955965,-0.408588852351955,-1.1160139067188497,9.707204366320969,-0.028581456030419405,0.17204541755479125,0.07526732399225546,12.919475924973048,13.230426035243228,-56.1875
1772919594.9529874,-132.23489620465924,0.32225899570535277,-5.874926292489533,-0.47446598153159397,-1.1386831501174999,9.748280877503712,-0.019874031766101505,0.12933160361878257,0.12762720155208535,12.919475924973048,13.230426035243228,-56.1875
1772919594.968189,-132.23489620465924,0.32225899570535277,-5.874926292489533,-0.47446598153159397,-1.1386831501174999,9.748280877503712,-0.019874031766101505,0.12933160361878257,0.12762720155208535,12.919475924973048,13.230426035243228,-56.1875
1772919594.987259,-132.11629196918926,0.35579070124612105,-5.915276223244219,-0.5715749868949958,-1.2696192022067545,9.775616836841133,-0.037358302746842965,0.031162345518308255,0.014180800172453928,12.919475924973048,13.230426035243228,-56.1875
1772919595.0004776,-132.10093838697438,0.3603439969815404,-5.895727656230337,-0.6927160136941917,-1.3359850241496591,9.663349255832056,0.0008751572654217882,-0.016591975061531528,0.031634092692397225,12.80465334750234,14.005085331774925,-56.5
1772919595.0176883,-132.1196096470596,0.3457284967765332,-5.887924408511335,-0.7479476539306189,-1.311075542454109,9.588636434781568,0.00954743638521033,-0.015130523176863857,-0.04145156973486533,12.80465334750234,14.005085331774925,-56.5
1772919595.0330334,-132.1196096470596,0.3457284967765332,-5.887924408511335,-0.7479476539306189,-1.311075542454109,9.588636434781568,0.00954743638521033,-0.015130523176863857,-0.04145156973486533,12.80465334750234,14.005085331774925,-56.5
1772919595.0481117,-132.14428933979235,0.33473708744349895,-5.886124415552922,-0.6295664168781772,-1.308747826814571,9.686100802091417,0.004638073155649553,-0.006353242541963764,-0.017453292519943295,12.80465334750234,14.005085331774925,-56.5
1772919595.061682,-132.14428933979235,0.33473708744349895,-5.886124415552922,-0.6295664168781772,-1.308747826814571,9.686100802091417,0.004638073155649553,-0.006353242541963764,-0.017453292519943295,12.80465334750234,14.005085331774925,-56.5
1772919595.0821872,-132.13509649526125,0.34493818527583,-5.888075379184298,-0.5507850260248428,-1.3071987580587456,9.7509622497878,-0.005390656333695106,0.004305496038050211,0.013089969389957472,12.567494228412299,13.359785554746887,-55.6875
1772919595.0992978,-132.13466044546755,0.33712365873033623,-5.876495521228121,-0.5892226152238121,-1.301284061118383,9.723879472826193,0.01472808968868233,-0.02633184190470028,-0.006544984694978736,12.567494228412299,13.359785554746887,-55.6875
1772919595.1127603,-132.16954180840312,0.3353282085428072,-5.8765085407576665,-0.705856067390114,-1.26388405837286,9.705856187292683,-0.00543437080511854,-0.008462276089565434,-0.02945243112740431,12.567494228412299,13.359785554746887,-55.6875
1772919595.125508,-132.16954180840312,0.3353282085428072,-5.8765085407576665,-0.705856067390114,-1.26388405837286,9.705856187292683,-0.00543437080511854,-0.008462276089565434,-0.02945243112740431,12.567494228412299,13.359785554746887,-55.6875
1772919595.1391773,-132.20001510417384,0.32405380997941374,-5.874918250751716,-0.7834743269257588,-1.2389947743311198,9.757419014542492,0.0010414458242214587,-0.022463924499360962,-0.025089107997418487,12.459694628825918,13.066467474279596,-57.0
1772919595.1524217,-132.2039190945681,0.32383707588124794,-5.8746321095456,-0.6840969008098873,-1.2672463851556024,9.791733500082719,-0.003176621270981882,-0.0023190365778247763,0.011999138607461015,12.459694628825918,13.066467474279596,-57.0
1772919595.1663744,-132.2039190945681,0.32383707588124794,-5.8746321095456,-0.6840969008098873,-1.2672463851556024,9.791733500082719,-0.003176621270981882,-0.0023190365778247763,0.011999138607461015,12.459694628825918,13.066467474279596,-57.0
1772919595.1796389,-132.1529787028703,0.3148401261146174,-5.882287885729966,-0.6237319610902947,-1.3017464244871575,9.757702507867391,-0.006186953983164094,-0.010510022593478987,0.04036073895236887,12.459694628825918,13.066467474279596,-57.0
1772919595.1920674,-132.159272766824,0.32425010412377,-5.884389071842824,-0.6086780206979191,-1.315474411684525,9.704949257333308,-0.008462276089565434,0.00543437080511854,0.013089969389957472,12.310273009895235,14.652889763519171,-56.0625
1772919595.214171,-132.159272766824,0.32425010412377,-5.884389071842824,-0.6086780206979191,-1.315474411684525,9.704949257333308,-0.008462276089565434,0.00543437080511854,0.013089969389957472,12.310273009895235,14.652889763519171,-56.0625
1772919595.242226,-132.19400645638729,0.32043562746467225,-5.868909602965196,-0.6708747679578791,-1.2980699484998208,9.669842558395295,0.0049093632295607766,-0.008777280634900094,-0.019634954084936207,12.310273009895235,14.652889763519171,-56.0625
1772919595.2550395,-132.19400645638729,0.32043562746467225,-5.868909602965196,-0.6708747679578791,-1.2980699484998208,9.669842558395295,0.0049093632295607766,-0.008777280634900094,-0.019634954084936207,12.310273009895235,14.652889763519171,-56.0625
1772919595.28602,170.8979646703313,-27.509180029221042,131.39741285413083,-0.7099581575794187,-1.2802079095033798,9.669895224370807,0.0007525831780455528,0.002047746503913553,-0.004363323129985824,13.084932306426932,14.76771234098988,-55.375
