timestamp,yaw,pitch,roll,ax,ay,az,gx,gy,gz,mx,my,mz
1772909099.7405581,0.0,0.0,0.0,-0.12159764210792284,-1.567888235619506,9.643864224191503,0.0,0.003272492347489368,0.0,-23.0625,31.1875,-6.25
1772909099.7596624,-0.06180168409667924,0.7668866556986929,-9.214972169723012,-0.11771810126867155,-1.5719397561020545,9.679367826813746,0.001090830782496456,0.0,0.0,-23.0625,31.1875,-6.25
1772909099.7710123,-0.06180168409667924,0.7668866556986929,-9.214972169723012,-0.11771810126867155,-1.5719397561020545,9.679367826813746,0.001090830782496456,0.0,0.0,-23.0625,31.1875,-6.25
1772909099.781874,-0.06180168409667924,0.7668866556986929,-9.214972169723012,-0.11848142188477995,-1.5746359977247413,9.70299507775762,0.001090830782496456,0.003272492347489368,0.002181661564992912,-23.0625,31.1875,-6.25
1772909099.7933457,-0.06180168409667924,0.7668866556986929,-9.214972169723012,-0.11848142188477995,-1.5746359977247413,9.70299507775762,0.001090830782496456,0.003272492347489368,0.002181661564992912,-23.0625,31.1875,-6.25
1772909099.8131092,-0.06180168409667924,0.7668866556986929,-9.214972169723012,-0.11848142188477995,-1.5746359977247413,9.70299507775762,0.001090830782496456,0.003272492347489368,0.002181661564992912,-23.0625,31.1875,-6.25
1772909099.8309183,-0.06180168409667924,0.7668866556986929,-9.214972169723012,-0.11898940322795011,-1.5730852046983275,9.725408972741722,0.0,0.002181661564992912,0.0,-23.0625,31.1875,-6.25
1772909099.844495,-0.06180168409667924,0.7668866556986929,-9.214972169723012,-0.11898940322795011,-1.5730852046983275,9.725408972741722,0.0,0.002181661564992912,0.0,-23.0625,31.1875,-6.25
1772909099.8565364,-0.06180168409667924,0.7668866556986929,-9.214972169723012,-0.11932745913730644,-1.5720531692627422,9.740325169474028,-0.001090830782496456,0.002181661564992912,0.0,-22.0,32.0,-5.0625
1772909099.8695343,-0.06180168409667924,0.7668866556986929,-9.214972169723012,-0.11932745913730644,-1.5720531692627422,9.740325169474028,-0.001090830782496456,0.002181661564992912,0.0,-22.0,32.0,-5.0625
1772909099.882176,-0.06180168409667924,0.7668866556986929,-9.214972169723012,-0.11955243156865113,-1.5747114729162708,9.750251731774542,-0.001090830782496456,0.0,-0.002181661564992912,-22.0,32.0,-5.0625
1772909099.8941183,-0.06180168409667924,0.7668866556986929,-9.214972169723012,-0.1197021482086043,-1.5764805443024967,9.766893083220527,0.0,0.0,0.0,-22.0,32.0,-5.0625
1772909099.906854,-0.06180168409667924,0.7668866556986929,-9.214972169723012,-0.1197021482086043,-1.5764805443024967,9.766893083220527,0.0,0.0,0.0,-22.0,32.0,-5.0625
1772909099.922532,-35.1384310245208,0.7699912558943577,-9.218320776150989,-0.11980178296004867,-1.5776578415482079,9.777967716711753,0.0,0.003272492347489368,0.0,-22.6875,33.5,-4.0
1772909099.9380777,-35.1384310245208,0.7699912558943577,-9.218320776150989,-0.11980178296004867,-1.5776578415482079,9.777967716711753,0.0,0.003272492347489368,0.0,-22.6875,33.5,-4.0
1772909099.950565,-35.1384310245208,0.7699912558943577,-9.218320776150989,-0.1198680887741418,-1.581786431421276,9.781992649881083,-0.002181661564992912,0.003272492347489368,-0.001090830782496456,-22.6875,33.5,-4.0
1772909099.9842696,-35.13057636430535,0.7705129587341308,-9.218109227500534,-0.11991221455273632,-1.5811888501551126,9.774635862821864,0.001090830782496456,0.003272492347489368,-0.002181661564992912,-21.5625,32.75,-4.6875
1772909100.030402,-35.094069630721876,0.7669011711509068,-9.215941582195049,-0.1232866914727931,-1.580791166497901,9.76974000321465,0.001090830782496456,0.0,0.0,-21.5625,32.75,-4.6875
1772909100.0622208,-35.094069630721876,0.7669011711509068,-9.215941582195049,-0.1221872564603944,-1.5805265124664443,9.769826975043705,-0.001090830782496456,0.002181661564992912,0.002181661564992912,-21.5625,33.1875,-3.5
1772909100.1426356,-35.196123635682135,0.7651746865325766,-9.21846827007999,-0.12480070644845626,-1.580350388164889,9.7698848538244,-0.001090830782496456,0.002181661564992912,0.001090830782496456,-21.5625,33.1875,-3.5
1772909100.1553836,-35.196123635682135,0.7651746865325766,-9.21846827007999,-0.12653992822136217,-1.5802331794096414,9.766578259799086,0.0,-0.001090830782496456,0.0,-22.6875,33.1875,-5.0625
1772909100.1863327,-35.196123635682135,0.7651746865325766,-9.21846827007999,-0.12769736088285086,-1.5801551782923318,9.764377758412316,-0.001090830782496456,0.0,-0.001090830782496456,-22.6875,33.1875,-5.0625
1772909100.2417963,-35.21865109912085,0.7700416330888662,-9.22073508782282,-0.12846761938970158,-1.5801032694200916,9.776293796149908,-0.002181661564992912,0.0,0.001090830782496456,-23.5,33.5,-3.5
1772909100.272605,-35.20398124319935,0.7646529843440263,-9.21867981830015,-0.13154748082590256,-1.5800457354838597,9.782810882502313,0.001090830782496456,0.001090830782496456,0.0,-23.5,33.5,-3.5
1772909100.3323212,-35.21079289061027,0.7705633359348065,-9.22052311905187,-0.13102983120314468,-1.5800304364536097,9.781870610905674,-0.001090830782496456,-0.003272492347489368,0.001090830782496456,-23.0625,33.5,-4.6875
1772909100.3800733,-35.21079289061027,0.7705633359348065,-9.22052311905187,-0.13068534116172448,-1.5800202551198799,9.777899758954314,-0.001090830782496456,0.003272492347489368,-0.001090830782496456,-23.0625,33.5,-4.6875
1772909100.4079003,-35.21079289061027,0.7705633359348065,-9.22052311905187,-0.13045608688736524,-1.5800134795560155,9.775257201338006,0.001090830782496456,0.0,0.001090830782496456,-23.0625,33.5,-4.6875
1772909100.4389062,-35.18826641283307,0.7656963887845704,-9.218256721606297,-0.13364863243603659,-1.5800089704939517,9.773498608763656,0.0,0.001090830782496456,0.003272492347489368,-22.0,33.5,-4.25
1772909100.4577694,-35.18826641283307,0.7656963887845704,-9.218256721606297,-0.13364863243603659,-1.5800089704939517,9.773498608763656,0.0,0.001090830782496456,0.003272492347489368,-22.0,33.5,-4.25
1772909100.5107856,-35.2543303357331,0.7691113627879342,-9.214038229127745,-0.13242812412828747,-1.5833510814708374,9.775673396757512,0.0,0.001090830782496456,0.0,-22.0,33.5,-4.25
1772909100.5412428,-35.34418198431138,0.76885606147418,-9.217192679720783,-0.13161588948345157,-1.5788849955774902,9.77712069387345,0.0,0.001090830782496456,0.0,-23.75,32.75,-4.0
1772909100.556533,145.95747330064637,18.150517185916843,-2.1535950372011143,-0.13107535640056875,-1.575912865304916,9.771393630522098,-0.002181661564992912,-0.003272492347489368,0.001090830782496456,-23.75,32.75,-4.0
1772909100.5883057,-35.37219318524822,0.7663406185761542,-9.217013157809216,-0.1307156376720604,-1.5739349458093883,9.764237222129944,0.0,0.001090830782496456,0.0,-23.0625,32.75,-5.0625
1772909100.6410353,-35.350322662093575,0.7681196154623278,-9.216890526539332,-0.12378602546192083,-1.5759637741872425,9.759474712287286,0.0,0.001090830782496456,-0.001090830782496456,-23.0625,32.75,-5.0625
1772909100.703841,-35.350322662093575,0.7681196154623278,-9.216890526539332,-0.11917444594491339,-1.5773139368092066,9.756305315187717,-0.001090830782496456,0.0,0.001090830782496456,-23.0625,33.875,-4.6875
1772909100.7503772,-35.39406609283228,0.7645616224288245,-9.217135788993918,-0.12279571470570229,-1.5782124549518188,9.757541228529758,0.001090830782496456,0.002181661564992912,-0.001090830782496456,-23.0625,33.875,-4.6875
1772909100.7763298,-35.40260703958237,0.7706833019828818,-9.219506125546397,-0.1252056286137847,-1.578810408738622,9.76170882676015,0.0,0.001090830782496456,0.0,-23.0625,33.1875,-4.6875
1772909100.8241954,-35.40260703958237,0.7706833019828818,-9.219506125546397,-0.12346428769179191,-1.5792083403041581,9.761137205120034,0.0,0.001090830782496456,-0.002181661564992912,-23.0625,33.1875,-4.6875
1772909100.8431437,-35.40260703958237,0.7706833019828818,-9.219506125546397,-0.12230544476025836,-1.5794731593158355,9.76075679730397,-0.002181661564992912,0.001090830782496456,0.001090830782496456,-23.0625,33.1875,-4.6875
1772909100.8560226,-35.40260703958237,0.7706833019828818,-9.219506125546397,-0.12230544476025836,-1.5794731593158355,9.76075679730397,-0.002181661564992912,0.001090830782496456,0.001090830782496456,-23.0625,33.1875,-4.6875
1772909100.8731875,-35.40260703958237,0.7706833019828818,-9.219506125546397,-0.12153424773444652,-1.5796493934098845,9.760503640151812,0.0,0.0,-0.001090830782496456,-23.0625,33.875,-5.0625
1772909100.8899384,-35.40260703958237,0.7706833019828818,-9.219506125546397,-0.12102102472860399,-1.5797666752308104,9.756990055187682,-0.003272492347489368,0.002181661564992912,-0.002181661564992912,-23.0625,33.875,-5.0625
1772909100.9067004,-35.40260703958237,0.7706833019828818,-9.219506125546397,-0.1206794805512924,-1.5798447249725127,9.75799691535069,-0.002181661564992912,0.002181661564992912,0.0,-23.0625,33.875,-5.0625
1772909100.9194796,-35.40260703958237,0.7706833019828818,-9.219506125546397,-0.1206794805512924,-1.5798447249725127,9.75799691535069,-0.002181661564992912,0.002181661564992912,0.0,-23.0625,33.875,-5.0625
1772909100.932962,-35.410473927865816,0.7701620260476454,-9.21971893767538,-0.12045218671659,-1.579896666203743,9.755321857834486,0.0,0.002181661564992912,-0.003272492347489368,-23.0625,33.1875,-4.0
1772909100.9506226,-35.410473927865816,0.7701620260476454,-9.21971893767538,-0.12030092520863404,-1.5799312325129051,9.753541636939804,0.0,0.0,0.001090830782496456,-23.0625,33.1875,-4.0
1772909100.975682,-35.410473927865816,0.7701620260476454,-9.21971893767538,-0.12030092520863404,-1.5799312325129051,9.753541636939804,0.0,0.0,0.001090830782496456,-23.0625,33.1875,-4.0
1772909101.0040033,-35.410473927865816,0.7701620260476454,-9.21971893767538,-0.1235453740721105,-1.5799542360055217,9.752356919820762,0.001090830782496456,-0.001090830782496456,-0.001090830782496456,-22.6875,33.1875,-5.5
1772909101.0229163,-35.387924596793184,0.7652980678286688,-9.217437941755604,-0.12904963025520494,-1.579969544572892,9.754913615519516,-0.001090830782496456,-0.002181661564992912,0.001090830782496456,-22.6875,33.1875,-5.5
1772909101.0376515,-35.387924596793184,0.7652980678286688,-9.217437941755604,-0.12904963025520494,-1.579969544572892,9.754913615519516,-0.001090830782496456,-0.002181661564992912,0.001090830782496456,-22.6875,33.1875,-5.5
1772909101.061803,-35.387924596793184,0.7652980678286688,-9.217437941755604,-0.13271265125848394,-1.5799797322534692,9.759960179654195,0.0,0.0,0.0,-22.6875,33.1875,-5.5
1772909101.091364,-35.387924596793184,0.7652980678286688,-9.217437941755604,-0.1351503508175404,-1.5799865120410894,9.763318611712009,-0.001090830782496456,-0.001090830782496456,0.001090830782496456,-23.0625,33.875,-4.25
1772909101.1171145,-35.387924596793184,0.7652980678286688,-9.217437941755604,-0.13008238922856538,-1.576645912206696,9.76555361073034,0.002181661564992912,-0.001090830782496456,-0.001090830782496456,-23.0625,33.875,-4.25
1772909101.1400104,-35.387924596793184,0.7652980678286688,-9.217437941755604,-0.13008238922856538,-1.576645912206696,9.76555361073034,0.002181661564992912,-0.001090830782496456,-0.001090830782496456,-23.0625,33.875,-4.25
1772909101.1694503,-35.387924596793184,0.7652980678286688,-9.217437941755604,-0.12670971740394288,-1.577767892041172,9.763695865903145,0.002181661564992912,0.0,-0.002181661564992912,-23.0625,33.875,-4.25
1772909101.191102,-35.387924596793184,0.7652980678286688,-9.217437941755604,-0.12781035368718888,-1.5785145570876797,9.762459557473015,0.001090830782496456,0.001090830782496456,0.0,-22.0,33.875,-4.6875
1772909101.2173917,-35.387924596793184,0.7652980678286688,-9.217437941755604,-0.1285428148387762,-1.5790114543353355,9.761636808023233,0.0,-0.003272492347489368,0.001090830782496456,-22.0,33.875,-4.6875
1772909101.2418811,-35.387924596793184,0.7652980678286688,-9.217437941755604,-0.12903025955303038,-1.5793421339029445,9.761089277455119,0.002181661564992912,-0.003272492347489368,0.001090830782496456,-22.0,33.875,-4.6875
1772909101.2578104,-35.387924596793184,0.7652980678286688,-9.217437941755604,-0.12903025955303038,-1.5793421339029445,9.761089277455119,0.002181661564992912,-0.003272492347489368,0.001090830782496456,-22.0,33.875,-4.6875
1772909101.2781155,-35.387924596793184,0.7652980678286688,-9.217437941755604,-0.1293546485652523,-1.5795621974612555,9.764070013685675,-0.001090830782496456,-0.001090830782496456,0.0,-22.6875,33.1875,-5.5
1772909101.3127131,-35.387924596793184,0.7652980678286688,-9.217437941755604,-0.13291563753654267,-1.5797086473010404,9.762708548642784,-0.001090830782496456,-0.004363323129985824,-0.001090830782496456,-22.6875,33.1875,-5.5
1772909101.3276353,-35.387924596793184,0.7652980678286688,-9.217437941755604,-0.13291563753654267,-1.5797086473010404,9.762708548642784,-0.001090830782496456,-0.004363323129985824,-0.001090830782496456,-22.6875,33.1875,-5.5
1772909101.3447788,-35.387924596793184,0.7652980678286688,-9.217437941755604,-0.13528543591808317,-1.5798061080334653,9.765147620572622,0.0,-0.002181661564992912,0.0,-21.5625,33.875,-4.6875
1772909101.3657062,-35.387924596793184,0.7652980678286688,-9.217437941755604,-0.13686251026861593,-1.5798709670621864,9.76342568398839,0.002181661564992912,-0.002181661564992912,0.002181661564992912,-21.5625,33.875,-4.6875
1772909101.3917677,-35.387924596793184,0.7652980678286688,-9.217437941755604,-0.13122181221718188,-1.5866043534359162,9.762279754426876,0.0,0.001090830782496456,-0.002181661564992912,-21.5625,33.875,-4.6875
1772909101.4037154,-35.387924596793184,0.7652980678286688,-9.217437941755604,-0.13122181221718188,-1.5866043534359162,9.762279754426876,0.0,0.001090830782496456,-0.002181661564992912,-21.5625,33.875,-4.6875
1772909101.4194462,-35.387924596793184,0.7652980678286688,-9.217437941755604,-0.1274679906746784,-1.591085346850779,9.76151715110456,0.003272492347489368,-0.002181661564992912,0.0,-22.0,33.1875,-4.6875
1772909101.4319818,-35.387924596793184,0.7652980678286688,-9.217437941755604,-0.12496986437107653,-1.5873771744977554,9.757664535405077,0.001090830782496456,0.003272492347489368,-0.001090830782496456,-22.0,33.1875,-4.6875
1772909101.4459288,-35.387924596793184,0.7652980678286688,-9.217437941755604,-0.12496986437107653,-1.5873771744977554,9.757664535405077,0.001090830782496456,0.003272492347489368,-0.001090830782496456,-22.0,33.1875,-4.6875
1772909101.4599981,-35.387924596793184,0.7652980678286688,-9.217437941755604,-0.12330738922192877,-1.5849094272198174,9.755100662693609,0.001090830782496456,-0.002181661564992912,0.0,-22.0,33.1875,-4.6875
1772909101.5006132,-35.387924596793184,0.7652980678286688,-9.217437941755604,-0.12554614228855457,-1.583267168972893,9.753394434044461,0.0,0.0,0.001090830782496456,-21.5625,32.75,-5.5
1772909101.5183957,-35.387924596793184,0.7652980678286688,-9.217437941755604,-0.12554614228855457,-1.583267168972893,9.753394434044461,0.0,0.0,0.001090830782496456,-21.5625,32.75,-5.5
1772909101.534897,-35.387924596793184,0.7652980678286688,-9.217437941755604,-0.12369089573856426,-1.5821742644547916,9.758949181352914,0.001090830782496456,-0.002181661564992912,-0.001090830782496456,-21.5625,32.75,-5.5
1772909101.555643,-35.387924596793184,0.7652980678286688,-9.217437941755604,-0.12369089573856426,-1.5821742644547916,9.758949181352914,0.001090830782496456,-0.002181661564992912,-0.001090830782496456,-21.5625,32.75,-5.5
1772909101.5720685,-35.387924596793184,0.7652980678286688,-9.217437941755604,-0.12369089573856426,-1.5821742644547916,9.758949181352914,0.001090830782496456,-0.002181661564992912,-0.001090830782496456,-21.5625,32.75,-5.5
1772909101.588403,-35.387924596793184,0.7652980678286688,-9.217437941755604,-0.125801361591327,-1.5814469487065383,9.762645803636097,0.0,0.001090830782496456,-0.002181661564992912,-22.0,33.5,-4.25
1772909101.6070533,-35.387924596793184,0.7652980678286688,-9.217437941755604,-0.12386074133357289,-1.5809629282007251,9.75841564105694,-0.001090830782496456,0.002181661564992912,-0.001090830782496456,-22.0,33.5,-4.25
1772909101.6233788,-35.387924596793184,0.7652980678286688,-9.217437941755604,-0.12591439193750562,-1.58064081796097,9.755600515114523,-0.001090830782496456,0.002181661564992912,0.001090830782496456,-22.0,33.5,-4.25
1772909101.6396134,-35.387924596793184,0.7652980678286688,-9.217437941755604,-0.12591439193750562,-1.58064081796097,9.755600515114523,-0.001090830782496456,0.002181661564992912,0.001090830782496456,-22.0,33.5,-4.25
1772909101.666477,-35.387924596793184,0.7652980678286688,-9.217437941755604,-0.12728107347364245,-1.5804264571946198,9.753727080246861,0.0,0.001090830782496456,0.0,-22.375,33.1875,-5.5
1772909101.6854043,-35.387924596793184,0.7652980678286688,-9.217437941755604,-0.12819058476910844,-1.5802838024991805,9.752480330270071,-0.001090830782496456,-0.001090830782496456,0.001090830782496456,-22.375,33.1875,-5.5
1772909101.7062047,-35.387924596793184,0.7652980678286688,-9.217437941755604,-0.12819058476910844,-1.5802838024991805,9.752480330270071,-0.001090830782496456,-0.001090830782496456,0.001090830782496456,-22.375,33.1875,-5.5
1772909101.7292385,-35.387924596793184,0.7652980678286688,-9.217437941755604,-0.12879585437633417,-1.580188867392923,9.751650632087628,-0.001090830782496456,0.0,-0.001090830782496456,-22.6875,33.1875,-5.0625
1772909101.7457347,-35.387924596793184,0.7652980678286688,-9.217437941755604,-0.12879585437633417,-1.580188867392923,9.751650632087628,-0.001090830782496456,0.0,-0.001090830782496456,-22.6875,33.1875,-5.0625
1772909101.765444,-35.387924596793184,0.7652980678286688,-9.217437941755604,-0.12585354283131897,-1.5801256891402033,9.751098477215548,-0.001090830782496456,-0.001090830782496456,0.0,-22.6875,33.1875,-5.0625
1772909101.7921293,-35.387924596793184,0.7652980678286688,-9.217437941755604,-0.1272405790732043,-1.583428756426085,9.750731024316153,-0.001090830782496456,0.003272492347489368,-0.002181661564992912,-22.6875,33.1875,-5.0625
1772909101.8191056,-35.387924596793184,0.7652980678286688,-9.217437941755604,-0.12147341278333017,-1.5856269108071601,9.750486488516323,0.0,0.001090830782496456,0.0,-22.375,33.1875,-5.0625
1772909101.8515582,-35.387924596793184,0.7652980678286688,-9.217437941755604,-0.11763542804088761,-1.5870897579927723,9.75032375267318,0.0,0.002181661564992912,-0.001090830782496456,-22.375,33.1875,-5.0625
1772909101.8692677,-35.387924596793184,0.7652980678286688,-9.217437941755604,-0.11763542804088761,-1.5870897579927723,9.75032375267318,0.0,0.002181661564992912,-0.001090830782496456,-22.375,33.1875,-5.0625
1772909101.8870654,-35.387924596793184,0.7652980678286688,-9.217437941755604,-0.11508129206789083,-1.584718154746404,9.750215453787447,0.001090830782496456,-0.001090830782496456,-0.001090830782496456,-23.0625,33.5,-4.25
1772909101.9118268,-35.387924596793184,0.7652980678286688,-9.217437941755604,-0.11508129206789083,-1.584718154746404,9.750215453787447,0.001090830782496456,-0.001090830782496456,-0.001090830782496456,-23.0625,33.5,-4.25
1772909101.930857,-35.387924596793184,0.7652980678286688,-9.217437941755604,-0.11672665481674914,-1.5831398792784899,9.750143382088769,0.0,-0.001090830782496456,0.0,-23.0625,33.5,-4.25
1772909101.9472597,-35.387924596793184,0.7652980678286688,-9.217437941755604,-0.11672665481674914,-1.5831398792784899,9.750143382088769,0.0,-0.001090830782496456,0.0,-23.0625,33.5,-4.25
1772909101.96148,-35.387924596793184,0.7652980678286688,-9.217437941755604,-0.12116673705352753,-1.5820895545850853,9.753440530885712,0.0,0.0,0.0,-23.0625,33.5,-4.25
1772909101.9866574,0.0007598630942553341,0.765280542352205,-9.217227763671161,-0.12116673705352753,-1.5820895545850853,9.753440530885712,0.0,0.0,0.0,-23.0625,33.5,-4.25
1772909102.4389505,0.0007598630942553341,0.765280542352205,-9.217227763671161,0.8115180485943744,-1.3639175611398129,9.758713434885756,-0.0015210099711634815,0.0002575893237401853,0.001090830782496456,-37.715173407180096,13.917561114158447,-4.25
1772909102.726873,0.0007598630942553341,0.765280542352205,-9.217227763671161,0.8066977146865129,-1.3652232701998706,9.755194740320059,-0.00037412099997146276,0.002410309618615315,0.001090830782496456,-37.85854551423151,14.659017073012132,-3.0625
1772909102.7567818,0.0007598630942553341,0.765280542352205,-9.217227763671161,0.8121355934295481,-1.3653962586775825,9.756802153361267,0.001005831323683111,-0.0032996092660671486,-0.001090830782496456,-38.419029795967596,14.260879383353407,-5.5
1772909102.790855,0.0007598630942553341,0.765280542352205,-9.217227763671161,0.8121355934295481,-1.3653962586775825,9.756802153361267,0.001005831323683111,-0.0032996092660671486,-0.001090830782496456,-38.419029795967596,14.260879383353407,-5.5
1772909102.8508117,0.0007598630942553341,0.765280542352205,-9.217227763671161,0.8157544409879524,-1.3655113805770918,9.75787186878421,0.00215272029487513,-0.0011468889711920187,0.0,-38.419029795967596,14.260879383353407,-5.5
1772909102.8731709,0.0007598630942553341,0.765280542352205,-9.217227763671161,0.8162255580902724,-1.3628608910496138,9.761928864155994,-0.0006317103237116482,0.0008892996474518334,-0.001090830782496456,-36.7727154515259,13.13042357736827,-4.6875
1772909102.9352317,0.0007598630942553341,0.765280542352205,-9.217227763671161,0.8165390812591437,-1.3610970198769852,9.764628749256309,-0.00025758932374018534,-0.0015210099711634815,-0.001090830782496456,-36.7727154515259,13.13042357736827,-4.6875
1772909102.9922771,0.0007598630942553341,0.765280542352205,-9.217227763671161,0.8112935236945329,-1.3637975543605765,9.766425492630875,0.0008892996474518334,0.0006317103237116482,0.0,-37.1961549994525,15.129543433517897,-5.0625
1772909103.080559,0.0007598630942553341,0.765280542352205,-9.217227763671161,0.8078026637320018,-1.3655947298924596,9.767621205275711,0.0,0.0,0.0,-37.1961549994525,15.129543433517897,-5.0625
1772909103.1654155,0.0007598630942553341,0.765280542352205,-9.217227763671161,0.8109337391536097,-1.3629163590879183,9.765071826976545,0.0012634206474232963,-0.0017785992949036669,0.001090830782496456,-38.124203573994464,13.090362938002444,-4.25
1772909103.2132797,0.0007598630942553341,0.765280542352205,-9.217227763671161,0.8130174348702853,-1.3611339332368582,9.76337524419687,0.0008892996474518334,0.0006317103237116482,0.002181661564992912,-38.124203573994464,13.090362938002444,-4.25
1772909103.241531,0.0007598630942553341,0.765280542352205,-9.217227763671161,0.8089499073621155,-1.3638221197892226,9.762246187309069,0.0008892996474518334,0.0006317103237116482,0.0,-37.550365745803106,13.038004586838317,-4.25
1772909103.2650676,0.0007598630942553341,0.765280542352205,-9.217227763671161,0.806243013242688,-1.36561107791081,9.76149481256263,0.0008892996474518334,0.0006317103237116482,-0.002181661564992912,-37.550365745803106,13.038004586838317,-4.25
1772909103.331072,0.0007598630942553341,0.765280542352205,-9.217227763671161,0.8071687073098031,-1.3648644240341328,9.764339892769598,0.00037412099997146276,-0.002410309618615315,0.0,-38.11331109683882,14.47804539589453,-4.25
1772909103.3501184,0.0007598630942553341,0.765280542352205,-9.217227763671161,0.8058475608481662,-1.361640432354269,9.766233261865708,-0.0012634206474232963,0.0017785992949036669,-0.001090830782496456,-38.11331109683882,14.47804539589453,-4.25
1772909103.3690398,0.0007598630942553341,0.765280542352205,-9.217227763671161,0.8049683526361197,-1.3594949019056661,9.76749327784885,0.00025758932374018534,0.0015210099711634815,-0.002181661564992912,-38.11331109683882,14.47804539589453,-4.25
1772909103.4192355,0.0007598630942553341,0.765280542352205,-9.217227763671161,0.8071103512580077,-1.3561298898366447,9.76833180441033,0.0,0.0,-0.001090830782496456,-37.207047476608146,13.741860975625814,-5.0625
1772909103.4421704,0.0007598630942553341,0.765280542352205,-9.217227763671161,0.8124101984584254,-1.3593447156255702,9.768889834470041,0.0008892996474518334,0.0006317103237116482,0.0,-37.207047476608146,13.741860975625814,-5.0625
1772909103.4589326,0.0007598630942553341,0.765280542352205,-9.217227763671161,0.8112729001789036,-1.3606942299331592,9.765916085533854,0.00215272029487513,-0.0011468889711920187,0.002181661564992912,-37.207047476608146,13.741860975625814,-5.0625
1772909103.4954977,0.0007598630942553341,0.765280542352205,-9.217227763671161,0.8112729001789036,-1.3606942299331592,9.765916085533854,0.00215272029487513,-0.0011468889711920187,0.002181661564992912,-37.207047476608146,13.741860975625814,-5.0625
1772909103.5491304,0.0007598630942553341,0.765280542352205,-9.217227763671161,0.810516040878336,-1.361592316629797,9.763937088835775,0.00025758932374018534,0.0015210099711634815,0.0,-38.124203573994464,13.090362938002444,-5.5
1772909103.5867248,0.0007598630942553341,0.765280542352205,-9.217227763671161,0.8124042669823175,-1.3606505382602372,9.758398528014322,0.0012634206474232963,-0.0017785992949036669,0.001090830782496456,-37.550365745803106,13.038004586838317,-4.6875
1772909103.635194,0.0007598630942553341,0.765280542352205,-9.217227763671161,0.8139960547134183,-1.3596260547869137,9.755589126575826,0.0,0.0,0.0,-37.550365745803106,13.038004586838317,-4.6875
1772909103.665399,0.0007598630942553341,0.765280542352205,-9.217227763671161,0.8139960547134183,-1.3596260547869137,9.755589126575826,0.0,0.0,0.0,-37.550365745803106,13.038004586838317,-4.6875
1772909103.710508,0.0007598630942553341,0.765280542352205,-9.217227763671161,0.8150553716670318,-1.358944272479647,9.753719501301576,-0.00025758932374018534,-0.0015210099711634815,0.0,-37.8961450842977,14.172326696765756,-5.5
1772909103.7392454,0.0007598630942553341,0.765280542352205,-9.217227763671161,0.8157603352663159,-1.3584905539701684,9.755820398273967,-0.0008892996474518334,-0.0006317103237116482,-0.001090830782496456,-37.8961450842977,14.172326696765756,-5.5
1772909103.7721632,0.0007598630942553341,0.765280542352205,-9.217227763671161,0.81622948066668,-1.3581886093704783,9.757218521740535,0.0,0.0,0.0,-37.85854551423151,14.659017073012132,-4.0
1772909103.8101156,0.0007598630942553341,0.765280542352205,-9.217227763671161,0.8118774043016973,-1.3571977522693428,9.758148957289475,0.00037412099997146276,-0.002410309618615315,-0.001090830782496456,-37.85854551423151,14.659017073012132,-4.0
1772909103.8448496,0.0007598630942553341,0.765280542352205,-9.217227763671161,0.8089811460966798,-1.3565383479371362,9.758768151753648,-0.00025758932374018534,-0.0015210099711634815,-0.002181661564992912,-37.84765303707587,16.046699530904213,-4.25
1772909103.865738,0.0007598630942553341,0.765280542352205,-9.217227763671161,0.8089909041371866,-1.3588266235856874,9.759180218752698,-0.0005151786474803707,-0.003042019942326963,-0.001090830782496456,-37.84765303707587,16.046699530904213,-4.25
1772909103.9131687,0.0007598630942553341,0.765280542352205,-9.217227763671161,0.8089909041371866,-1.3588266235856874,9.759180218752698,-0.0005151786474803707,-0.003042019942326963,-0.001090830782496456,-37.84765303707587,16.046699530904213,-4.25
1772909103.9423575,0.0007598630942553341,0.765280542352205,-9.217227763671161,0.811724499869745,-1.3584122599454627,9.759454444737477,-0.0008892996474518334,-0.0006317103237116482,0.001090830782496456,-37.46040782457278,14.09853279127605,-4.25
1772909103.9651105,0.0007598630942553341,0.765280542352205,-9.217227763671161,0.8135436772934975,-1.3581365055716381,9.759636939067043,-0.00025758932374018534,-0.0015210099711634815,-0.001090830782496456,-37.46040782457278,14.09853279127605,-4.25
1772909104.00923,0.0007598630942553341,0.765280542352205,-9.217227763671161,0.8174814214130671,-1.3560158085936145,9.759758387004773,-0.0008892996474518334,-0.0006317103237116482,0.001090830782496456,-37.154689125444015,14.315698803817172,-4.25
1772909104.0337114,0.0007598630942553341,0.765280542352205,-9.217227763671161,0.8146477424059453,-1.3584788794897205,9.76318432095799,-0.00025758932374018534,-0.0015210099711634815,-0.001090830782496456,-37.154689125444015,14.315698803817172,-4.25
1772909104.0581968,0.0007598630942553341,0.765280542352205,-9.217227763671161,0.8146477424059453,-1.3584788794897205,9.76318432095799,-0.00025758932374018534,-0.0015210099711634815,-0.001090830782496456,-37.154689125444015,14.315698803817172,-4.25
1772909104.082292,0.0007598630942553341,0.765280542352205,-9.217227763671161,0.8100348588153689,-1.3620552111793964,9.765464241733666,0.00025758932374018534,0.0015210099711634815,0.0,-37.154689125444015,14.315698803817172,-4.25
1772909104.1259124,0.0007598630942553341,0.765280542352205,-9.217227763671161,0.8081484645815253,-1.370561046924872,9.762419978144484,0.0006317103237116482,-0.0008892996474518334,0.002181661564992912,-38.11331109683882,14.47804539589453,-4.0
1772909104.1665888,0.0007598630942553341,0.765280542352205,-9.217227763671161,0.8081484645815253,-1.370561046924872,9.762419978144484,0.0006317103237116482,-0.0008892996474518334,0.002181661564992912,-38.11331109683882,14.47804539589453,-4.0
1772909104.183336,0.0007598630942553341,0.765280542352205,-9.217227763671161,0.8111638657561189,-1.3662213875955924,9.761610468422226,0.00025758932374018534,0.0015210099711634815,0.0,-38.02089210630887,13.700395101617325,-6.0
1772909104.1961193,0.0007598630942553341,0.765280542352205,-9.217227763671161,0.8111638657561189,-1.3662213875955924,9.761610468422226,0.00025758932374018534,0.0015210099711634815,0.0,-38.02089210630887,13.700395101617325,-6.0
1772909104.2141795,0.0007598630942553341,0.765280542352205,-9.217227763671161,0.8158976834191783,-1.361396207266506,9.76107174874488,-0.0008892996474518334,-0.0006317103237116482,0.001090830782496456,-38.02089210630887,13.700395101617325,-6.0
1772909104.272891,0.0007598630942553341,0.765280542352205,-9.217227763671161,0.8163208843281305,-1.3601222891809168,9.7607132368175,-0.0008892996474518334,-0.0006317103237116482,-0.001090830782496456,-38.762348065162556,13.557022994565909,-3.5625
1772909104.3240921,0.0007598630942553341,0.765280542352205,-9.217227763671161,0.8158126034625905,-1.363938798313782,9.760474651134668,0.00037412099997146276,-0.002410309618615315,-0.001090830782496456,-38.762348065162556,13.557022994565909,-3.5625
1772909104.3391209,0.0007598630942553341,0.765280542352205,-9.217227763671161,0.8158126034625905,-1.363938798313782,9.760474651134668,0.00037412099997146276,-0.002410309618615315,-0.001090830782496456,-38.762348065162556,13.557022994565909,-3.5625
1772909104.3548503,0.0007598630942553341,0.765280542352205,-9.217227763671161,0.8135371627018212,-1.363751540642898,9.76031587502792,0.0,0.0,-0.001090830782496456,-38.762348065162556,13.557022994565909,-3.5625
1772909104.3859804,0.0007598630942553341,0.765280542352205,-9.217227763671161,0.8135371627018212,-1.363751540642898,9.76031587502792,0.0,0.0,-0.001090830782496456,-38.762348065162556,13.557022994565909,-3.5625
1772909104.419757,0.0007598630942553341,0.765280542352205,-9.217227763671161,0.8120228822938679,-1.3636269227547295,9.760210211302526,-0.0005151786474803707,-0.003042019942326963,-0.001090830782496456,-37.46040782457278,14.09853279127605,-4.6875
1772909104.460032,0.0007598630942553341,0.765280542352205,-9.217227763671161,0.8110151455979956,-1.3635439909422267,9.763485004980936,0.0,0.0,-0.001090830782496456,-37.46040782457278,14.09853279127605,-4.6875
1772909104.5085468,0.0007598630942553341,0.765280542352205,-9.217227763671161,0.8150087954722764,-1.364278717090399,9.765664343592075,0.00215272029487513,-0.0011468889711920187,0.0,-37.8961450842977,14.172326696765756,-4.0
1772909104.5228007,0.0007598630942553341,0.765280542352205,-9.217227763671161,0.8203936267172238,-1.362830483611957,9.767114669092981,-0.002410309618615315,-0.00037412099997146287,0.0,-37.8961450842977,14.172326696765756,-4.0
1772909104.5456262,0.0007598630942553341,0.765280542352205,-9.217227763671161,0.8203936267172238,-1.362830483611957,9.767114669092981,-0.002410309618615315,-0.00037412099997146287,0.0,-37.8961450842977,14.172326696765756,-4.0
1772909104.5772853,0.0007598630942553341,0.765280542352205,-9.217227763671161,0.8239771717582299,-1.3618667004098817,9.764734732805318,-0.00037412099997146276,0.002410309618615315,0.0,-37.8961450842977,14.172326696765756,-4.0
1772909104.621914,0.0007598630942553341,0.765280542352205,-9.217227763671161,0.8263619809521985,-1.3612253134550645,9.763150911791508,-0.0008892996474518334,-0.0006317103237116482,-0.002181661564992912,-37.46181305921545,13.560889298508211,-4.25
1772909104.637914,0.0007598630942553341,0.765280542352205,-9.217227763671161,0.8263619809521985,-1.3612253134550645,9.763150911791508,-0.0008892996474518334,-0.0006317103237116482,-0.002181661564992912,-37.46181305921545,13.560889298508211,-4.25
1772909104.677125,0.0007598630942553341,0.765280542352205,-9.217227763671161,0.8232847574424929,-1.3600085612584116,9.762096896599257,0.0006317103237116482,-0.0008892996474518334,-0.001090830782496456,-37.46181305921545,13.560889298508211,-4.25
1772909104.7290044,0.0007598630942553341,0.765280542352205,-9.217227763671161,0.8185097977060171,-1.3611360117861733,9.761395461262936,-0.002784430618586778,0.0020361886186438523,-0.002181661564992912,-37.46040782457278,14.09853279127605,-4.6875
1772909104.7447045,0.0007598630942553341,0.765280542352205,-9.217227763671161,0.8185097977060171,-1.3611360117861733,9.761395461262936,-0.002784430618586778,0.0020361886186438523,-0.002181661564992912,-37.46040782457278,14.09853279127605,-4.6875
1772909104.779368,0.0007598630942553341,0.765280542352205,-9.217227763671161,0.8153321153411877,-1.3618863175179512,9.76092866388216,-0.0015210099711634815,0.0002575893237401853,-0.001090830782496456,-37.46040782457278,14.09853279127605,-4.6875
1772909104.8170385,0.0007598630942553341,0.765280542352205,-9.217227763671161,0.8206087924782646,-1.3612383684213472,9.760618015439722,0.00037412099997146276,-0.002410309618615315,0.001090830782496456,-38.02089210630887,13.700395101617325,-5.0625
1772909104.8573658,0.0007598630942553341,0.765280542352205,-9.217227763671161,0.8206087924782646,-1.3612383684213472,9.760618015439722,0.00037412099997146276,-0.002410309618615315,0.001090830782496456,-38.02089210630887,13.700395101617325,-5.0625
1772909104.8999326,0.0007598630942553341,0.765280542352205,-9.217227763671161,0.8241203621686435,-1.3608071655356229,9.75706617066413,0.0006317103237116482,-0.0008892996474518334,0.001090830782496456,-38.02089210630887,13.700395101617325,-5.0625
1772909104.947916,0.0007598630942553341,0.765280542352205,-9.217227763671161,0.8142642575633019,-1.3659920410426512,9.756474544738628,-0.00025758932374018534,-0.0015210099711634815,0.001090830782496456,-38.979514077703676,13.862741693694682,-4.0
1772909104.9656205,0.0007598630942553341,0.765280542352205,-9.217227763671161,0.8142642575633019,-1.3659920410426512,9.756474544738628,-0.00025758932374018534,-0.0015210099711634815,0.001090830782496456,-38.979514077703676,13.862741693694682,-4.0
1772909104.989416,0.0007598630942553341,0.765280542352205,-9.217227763671161,0.8125067558020015,-1.365117950742736,9.757653848905473,0.0006317103237116482,-0.0008892996474518334,0.002181661564992912,-38.51004355185488,15.57617317039845,-4.75
1772909105.018209,0.0007598630942553341,0.765280542352205,-9.217227763671161,0.8113371580124372,-1.364536253412371,9.758438662654818,-0.002784430618586778,0.0020361886186438523,0.002181661564992912,-38.51004355185488,15.57617317039845,-4.75
1772909105.0484345,0.0007598630942553341,0.765280542352205,-9.217227763671161,0.8105588037487457,-1.364149140336998,9.758960947438062,0.0008892996474518334,0.0006317103237116482,0.0,-38.11331109683882,14.47804539589453,-3.5625
1772909105.0899644,0.0007598630942553341,0.765280542352205,-9.217227763671161,0.8100408176810457,-1.3638915209096738,9.759308522127007,-0.00037412099997146276,0.002410309618615315,-0.001090830782496456,-38.11331109683882,14.47804539589453,-3.5625
1772909105.1279035,0.0007598630942553341,0.765280542352205,-9.217227763671161,0.8100408176810457,-1.3638915209096738,9.759308522127007,-0.00037412099997146276,0.002410309618615315,-0.001090830782496456,-38.11331109683882,14.47804539589453,-3.5625
1772909105.150776,0.0007598630942553341,0.765280542352205,-9.217227763671161,0.8124232056048805,-1.3617828925359652,9.759539829199838,0.0026678989423555006,0.0018951309711349445,-0.001090830782496456,-38.201863783426475,13.955160684224634,-5.0625
1772909105.1793792,0.0007598630942553341,0.765280542352205,-9.217227763671161,0.8124232056048805,-1.3617828925359652,9.759539829199838,0.0026678989423555006,0.0018951309711349445,-0.001090830782496456,-38.201863783426475,13.955160684224634,-5.0625
1772909105.2350607,0.0007598630942553341,0.765280542352205,-9.217227763671161,0.8140086581551756,-1.3603796239081845,9.759693761472937,0.0008892996474518334,0.0006317103237116482,0.0,-38.201863783426475,13.955160684224634,-5.0625
1772909105.2628932,-139.36895655162826,-50.91781121292265,160.04026245901977,0.8170009446393535,-1.3621728661775396,9.759796201681148,0.0015210099711634815,-0.0002575893237401853,0.001090830782496456,-38.58137638804495,13.3022574119586,-4.75
1772909105.2970302,0.0007598630942553341,0.765280542352205,-9.217227763671161,0.8189922778685436,-1.363366248875967,9.75986437449538,-0.0012634206474232963,0.0017785992949036669,0.0,-38.58137638804495,13.3022574119586,-4.75
1772909105.3202465,0.0007598630942553341,0.765280542352205,-9.217227763671161,0.82031748788792,-1.364160431730812,9.759909742741712,-0.0006317103237116482,0.0008892996474518334,0.0,-37.207047476608146,13.741860975625814,-5.5
1772909105.3365765,0.0007598630942553341,0.765280542352205,-9.217227763671161,0.8192622148296272,-1.361961849683502,9.75993993480285,0.00215272029487513,-0.0011468889711920187,-0.001090830782496456,-37.207047476608146,13.741860975625814,-5.5
1772909105.362987,0.0007598630942553341,0.765280542352205,-9.217227763671161,0.8192622148296272,-1.361961849683502,9.75993993480285,0.00215272029487513,-0.0011468889711920187,-0.001090830782496456,-37.207047476608146,13.741860975625814,-5.5
1772909105.3998322,0.0007598630942553341,0.765280542352205,-9.217227763671161,0.8185599423975058,-1.360498717890788,9.75326980386763,0.0011468889711920187,0.00215272029487513,-0.001090830782496456,-37.207047476608146,13.741860975625814,-5.5
1772909105.4220595,0.0007598630942553341,0.765280542352205,-9.217227763671161,0.8161554024162042,-1.356797918161384,9.748830906240485,0.0011468889711920187,0.00215272029487513,-0.001090830782496456,-36.492298610665,14.786225164322937,-4.25
1772909105.4547143,0.0007598630942553341,0.765280542352205,-9.217227763671161,0.8161554024162042,-1.356797918161384,9.748830906240485,0.0011468889711920187,0.00215272029487513,-0.001090830782496456,-36.492298610665,14.786225164322937,-4.25
1772909105.4777308,0.0007598630942553341,0.765280542352205,-9.217227763671161,0.8145552079191196,-1.3543350772821074,9.749221981162675,0.0006317103237116482,-0.0008892996474518334,0.0,-36.492298610665,14.786225164322937,-4.25
1772909105.5041075,0.0007598630942553341,0.765280542352205,-9.217227763671161,0.8099732781480643,-1.3592975570995334,9.75282734886212,0.0005151786474803707,0.003042019942326963,0.0,-38.3775639219591,13.44703475365268,-4.25
1772909105.5532496,0.0007598630942553341,0.765280542352205,-9.217227763671161,0.8123782588001474,-1.358725660938255,9.755226680791504,0.0011468889711920187,0.00215272029487513,0.0,-38.3775639219591,13.44703475365268,-4.25
1772909105.584051,0.0007598630942553341,0.765280542352205,-9.217227763671161,0.8112516446931087,-1.3602822559540448,9.753478297680896,0.0006317103237116482,-0.0008892996474518334,-0.002181661564992912,-37.76753175834423,13.343723285967089,-4.25
1772909105.6132193,0.0007598630942553341,0.765280542352205,-9.217227763671161,0.8159560993211902,-1.3574437815035036,9.752314768251505,0.0012634206474232963,-0.0017785992949036669,-0.001090830782496456,-37.76753175834423,13.343723285967089,-4.25
1772909105.6349757,0.0007598630942553341,0.765280542352205,-9.217227763671161,0.8159560993211902,-1.3574437815035036,9.752314768251505,0.0012634206474232963,-0.0017785992949036669,-0.001090830782496456,-37.76753175834423,13.343723285967089,-4.25
1772909105.657445,0.0007598630942553341,0.765280542352205,-9.217227763671161,0.816359759458371,-1.3574919939871275,9.751540452413721,0.0,0.0,-0.001090830782496456,-37.76753175834423,13.343723285967089,-4.25
1772909105.6737862,0.0007598630942553341,0.765280542352205,-9.217227763671161,0.8166283907704859,-1.3575240788564105,9.75437026558067,-0.0015210099711634815,0.0002575893237401853,-0.001090830782496456,-38.979514077703676,13.862741693694682,-5.0625
1772909105.703894,0.0007598630942553341,0.765280542352205,-9.217227763671161,0.8168071619078898,-1.3575454309785069,9.75290836292487,-0.00025758932374018534,-0.0015210099711634815,-0.003272492347489368,-38.979514077703676,13.862741693694682,-5.0625
1772909105.736586,0.0007598630942553341,0.765280542352205,-9.217227763671161,0.8141990302372221,-1.3594968260998648,9.755280594745278,0.0012634206474232963,-0.0017785992949036669,0.0,-38.979514077703676,13.862741693694682,-5.0625
1772909105.752186,0.0007598630942553341,0.765280542352205,-9.217227763671161,0.8141990302372221,-1.3594968260998648,9.755280594745278,0.0012634206474232963,-0.0017785992949036669,0.0,-38.979514077703676,13.862741693694682,-5.0625
1772909105.7665706,0.0007598630942553341,0.765280542352205,-9.217227763671161,0.8144005332677542,-1.3635225596202225,9.753514176814875,0.0006317103237116482,-0.0008892996474518334,0.001090830782496456,-36.79801730979378,14.569059151781815,-5.5
1772909105.8111453,0.0007598630942553341,0.765280542352205,-9.217227763671161,0.8125974457610152,-1.3634745384420248,9.755683757121691,0.0,0.0,-0.001090830782496456,-36.79801730979378,14.569059151781815,-5.5
1772909105.8402913,0.0007598630942553341,0.765280542352205,-9.217227763671161,0.8113975111670876,-1.363442580884366,9.757127588580078,0.00025758932374018534,0.0015210099711634815,0.0,-36.79801730979378,14.569059151781815,-5.5
1772909105.8678305,0.0007598630942553341,0.765280542352205,-9.217227763671161,0.8113975111670876,-1.363442580884366,9.757127588580078,0.00025758932374018534,0.0015210099711634815,0.0,-36.79801730979378,14.569059151781815,-5.5
1772909105.9171097,0.0007598630942553341,0.765280542352205,-9.217227763671161,0.8101898763022441,-1.3674234374623113,9.758727879695483,0.00025758932374018534,0.0015210099711634815,-0.001090830782496456,-37.64137950169039,14.353298373883359,-5.0625
1772909105.944216,0.0007598630942553341,0.765280542352205,-9.217227763671161,0.8101898763022441,-1.3674234374623113,9.758727879695483,0.00025758932374018534,0.0015210099711634815,-0.001090830782496456,-37.64137950169039,14.353298373883359,-5.0625
1772909105.9720864,0.0007598630942553341,0.765280542352205,-9.217227763671161,0.8062782823779991,-1.3726720019811236,9.759153418147859,-0.00025758932374018534,-0.0015210099711634815,-0.002181661564992912,-37.64137950169039,14.353298373883359,-5.0625
1772909106.0001493,0.0007598630942553341,0.765280542352205,-9.217227763671161,0.8071921785253707,-1.3695633901272366,9.759436609234339,0.0008892996474518334,0.0006317103237116482,0.001090830782496456,-37.8961450842977,14.172326696765756,-5.5
1772909106.0201354,0.0007598630942553341,0.765280542352205,-9.217227763671161,0.8078003662025576,-1.3674946436639444,9.75962506973894,-0.0012634206474232963,0.0017785992949036669,0.0,-37.8961450842977,14.172326696765756,-5.5
1772909106.0407107,0.0007598630942553341,0.765280542352205,-9.217227763671161,0.8082051083078239,-1.3661179160020356,9.76309559980683,0.0006317103237116482,-0.0008892996474518334,-0.001090830782496456,-37.8961450842977,14.172326696765756,-5.5
1772909106.0573077,0.0007598630942553341,0.765280542352205,-9.217227763671161,0.8057473577920073,-1.3671389046447129,9.75871497538401,0.0006317103237116482,-0.0008892996474518334,0.001090830782496456,-38.201863783426475,13.955160684224634,-5.5
1772909106.0810406,0.0007598630942553341,0.765280542352205,-9.217227763671161,0.8057473577920073,-1.3671389046447129,9.75871497538401,0.0006317103237116482,-0.0008892996474518334,0.001090830782496456,-38.201863783426475,13.955160684224634,-5.5
1772909106.1089823,0.0007598630942553341,0.765280542352205,-9.217227763671161,0.8041117522786037,-1.367818361181224,9.765835053887363,0.0006317103237116482,-0.0008892996474518334,0.001090830782496456,-38.201863783426475,13.955160684224634,-5.5
1772909106.1298926,0.0007598630942553341,0.765280542352205,-9.217227763671161,0.80575037694595,-1.3663333463936238,9.763883163180218,0.0006317103237116482,-0.0008892996474518334,-0.001090830782496456,-37.715173407180096,13.917561114158447,-4.75
1772909106.1435647,0.0007598630942553341,0.765280542352205,-9.217227763671161,0.80575037694595,-1.3663333463936238,9.763883163180218,0.0006317103237116482,-0.0008892996474518334,-0.001090830782496456,-37.715173407180096,13.917561114158447,-4.75
1772909106.1585157,0.0007598630942553341,0.765280542352205,-9.217227763671161,0.8115051507456594,-1.3661350019841616,9.76258420171866,-0.00025758932374018534,-0.0015210099711634815,0.0,-37.715173407180096,13.917561114158447,-4.75
1772909106.1757696,0.0007598630942553341,0.765280542352205,-9.217227763671161,0.8153348884243306,-1.3660030059953168,9.761719757376344,-0.0008892996474518334,-0.0006317103237116482,0.0,-37.8961450842977,14.172326696765756,-5.0625
1772909106.2157595,0.0007598630942553341,0.765280542352205,-9.217227763671161,0.8159463505458914,-1.3631880622736268,9.764489591030328,0.00215272029487513,-0.0011468889711920187,0.001090830782496456,-37.8961450842977,14.172326696765756,-5.0625
1772909106.2459533,0.0007598630942553341,0.765280542352205,-9.217227763671161,0.8136261698917051,-1.3632519341944456,9.766332884385985,0.001005831323683111,-0.0032996092660671486,-0.001090830782496456,-37.8961450842977,14.172326696765756,-5.0625
1772909106.2723103,0.0007598630942553341,0.765280542352205,-9.217227763671161,0.8136261698917051,-1.3632519341944456,9.766332884385985,0.001005831323683111,-0.0032996092660671486,-0.001090830782496456,-37.8961450842977,14.172326696765756,-5.0625
1772909106.3095124,0.0007598630942553341,0.765280542352205,-9.217227763671161,0.8120821155844602,-1.3632944402442544,9.767559575523238,0.0006317103237116482,-0.0008892996474518334,0.001090830782496456,-38.419029795967596,14.260879383353407,-4.25
1772909106.3349314,0.0007598630942553341,0.765280542352205,-9.217227763671161,0.8091173791685837,-1.360595625679973,9.768375924772043,0.00025758932374018534,0.0015210099711634815,0.0,-38.419029795967596,14.260879383353407,-4.25
1772909106.3568008,0.0007598630942553341,0.765280542352205,-9.217227763671161,0.8091173791685837,-1.360595625679973,9.768375924772043,0.00025758932374018534,0.0015210099711634815,0.0,-38.419029795967596,14.260879383353407,-4.25
1772909106.3837295,0.0007598630942553341,0.765280542352205,-9.217227763671161,0.8071443802020938,-1.3587995947351776,9.768919196077903,0.0006317103237116482,-0.0008892996474518334,-0.002181661564992912,-37.85854551423151,14.659017073012132,-4.75
1772909106.4055915,0.0007598630942553341,0.765280542352205,-9.217227763671161,0.807768556952359,-1.360331458070002,9.772625848770534,0.0015210099711634815,-0.0002575893237401853,0.0,-37.85854551423151,14.659017073012132,-4.75
1772909106.4187057,0.0007598630942553341,0.765280542352205,-9.217227763671161,0.807768556952359,-1.360331458070002,9.772625848770534,0.0015210099711634815,-0.0002575893237401853,0.0,-37.85854551423151,14.659017073012132,-4.75
1772909106.4315538,0.0007598630942553341,0.765280542352205,-9.217227763671161,0.8081839396071494,-1.361350896007293,9.775092584731457,-0.0008892996474518334,-0.0006317103237116482,-0.001090830782496456,-37.85854551423151,14.659017073012132,-4.75
1772909106.4479856,0.0007598630942553341,0.765280542352205,-9.217227763671161,0.8057332702581783,-1.3639665060893142,9.780079281665525,-0.002410309618615315,-0.00037412099997146287,0.001090830782496456,-38.3775639219591,13.44703475365268,-4.75
1772909106.4890099,0.0007598630942553341,0.765280542352205,-9.217227763671161,0.8041023771822086,-1.36570716538062,9.770017425940814,0.0012634206474232963,-0.0017785992949036669,-0.003272492347489368,-38.3775639219591,13.44703475365268,-4.75
1772909106.539233,0.0007598630942553341,0.765280542352205,-9.217227763671161,0.8057441379240257,-1.364928369171924,9.770011596768951,-0.0006317103237116482,0.0008892996474518334,0.0,-37.550365745803106,13.038004586838317,-6.0
1772909106.5745773,0.0007598630942553341,0.765280542352205,-9.217227763671161,0.8068367113580358,-1.3644100889947606,9.763317494105554,0.0,0.0,-0.003272492347489368,-37.550365745803106,13.038004586838317,-6.0
1772909106.6001923,0.0007598630942553341,0.765280542352205,-9.217227763671161,0.8075638067735247,-1.3640651793264273,9.762207755268408,-0.0006317103237116482,0.0008892996474518334,-0.001090830782496456,-37.64137950169039,14.353298373883359,-5.0625
1772909106.617137,0.0007598630942553341,0.765280542352205,-9.217227763671161,0.8075638067735247,-1.3640651793264273,9.762207755268408,-0.0006317103237116482,0.0008892996474518334,-0.001090830782496456,-37.64137950169039,14.353298373883359,-5.0625
1772909106.636874,0.0007598630942553341,0.765280542352205,-9.217227763671161,0.81077478251595,-1.361898460272423,9.761469236468884,0.0008892996474518334,0.0006317103237116482,0.001090830782496456,-37.64137950169039,14.353298373883359,-5.0625
1772909106.6588368,0.0007598630942553341,0.765280542352205,-9.217227763671161,0.81077478251595,-1.361898460272423,9.761469236468884,0.0008892996474518334,0.0006317103237116482,0.001090830782496456,-37.64137950169039,14.353298373883359,-5.0625
1772909106.7118773,0.0007598630942553341,0.765280542352205,-9.217227763671161,0.8065653945701321,-1.358181349572055,9.76399580036955,0.0008892996474518334,0.0006317103237116482,-0.002181661564992912,-36.98988146406702,13.436142276497042,-4.25
1772909106.7456205,0.0007598630942553341,0.765280542352205,-9.217227763671161,0.8054460629593599,-1.3571929209545894,9.76600427221724,0.0006317103237116482,-0.0008892996474518334,0.001090830782496456,-36.98988146406702,13.436142276497042,-4.25
1772909106.7890437,0.0007598630942553341,0.765280542352205,-9.217227763671161,0.8066383457987664,-1.359262234616743,9.767340887795777,0.0012634206474232963,-0.0017785992949036669,0.001090830782496456,-38.762348065162556,13.557022994565909,-5.0625
1772909106.8386078,0.0007598630942553341,0.765280542352205,-9.217227763671161,0.8074317967097192,-1.3606393397431575,9.771575502239639,0.00037412099997146276,-0.002410309618615315,-0.003272492347489368,-38.762348065162556,13.557022994565909,-5.0625
1772909106.8573155,0.0007598630942553341,0.765280542352205,-9.217227763671161,0.8074317967097192,-1.3606393397431575,9.771575502239639,0.00037412099997146276,-0.002410309618615315,-0.003272492347489368,-38.762348065162556,13.557022994565909,-5.0625
1772909106.9062703,0.0007598630942553341,0.765280542352205,-9.217227763671161,0.8083112293027227,-1.3621656737802652,9.76512650497484,0.0,0.0,0.0,-37.64137950169039,14.353298373883359,-4.25
1772909106.9493928,0.0007598630942553341,0.765280542352205,-9.217227763671161,0.8085450819942691,-1.3625715460729413,9.763411631793943,-0.0032996092660671486,-0.0010058313236831111,0.0,-37.8961450842977,14.172326696765756,-4.75
1772909106.971924,0.0007598630942553341,0.765280542352205,-9.217227763671161,0.8087007083481875,-1.3628416495498268,9.762270402848445,-0.002784430618586778,0.0020361886186438523,0.0,-37.8961450842977,14.172326696765756,-4.75
1772909106.9962084,0.0007598630942553341,0.765280542352205,-9.217227763671161,0.8087007083481875,-1.3628416495498268,9.762270402848445,-0.002784430618586778,0.0020361886186438523,0.0,-37.8961450842977,14.172326696765756,-4.75
1772909107.036793,0.0007598630942553341,0.765280542352205,-9.217227763671161,0.8088042759482599,-1.3630214003964403,9.761510927733578,-0.0015210099711634815,0.0002575893237401853,0.0,-37.207047476608146,13.741860975625814,-5.0625
1772909107.0896719,0.0007598630942553341,0.765280542352205,-9.217227763671161,0.8108103845518039,-1.3658681244425186,9.761005505528528,0.0006317103237116482,-0.0008892996474518334,0.0,-37.207047476608146,13.741860975625814,-5.0625
1772909107.1332102,0.0007598630942553341,0.765280542352205,-9.217227763671161,0.8129353437607447,-1.3630983001069652,9.757324040989683,0.00037412099997146276,-0.002410309618615315,0.001090830782496456,-37.8961450842977,14.172326696765756,-5.5
1772909107.1564171,0.0007598630942553341,0.765280542352205,-9.217227763671161,0.8143494803769452,-1.3612550129526195,9.758219179171055,0.0,0.0,-0.002181661564992912,-37.8961450842977,14.172326696765756,-5.5
1772909107.2035635,0.0007598630942553341,0.765280542352205,-9.217227763671161,0.8143494803769452,-1.3612550129526195,9.758219179171055,0.0,0.0,-0.002181661564992912,-37.8961450842977,14.172326696765756,-5.5
1772909107.2392573,0.0007598630942553341,0.765280542352205,-9.217227763671161,0.8133533869754639,-1.3573012240766638,9.758814883631409,0.0,0.0,0.0,-36.32749094928801,13.906668637002808,-4.75
1772909107.2720096,0.0007598630942553341,0.765280542352205,-9.217227763671161,0.8099633960782647,-1.3566072072690525,9.76255643000264,0.0,0.0,0.002181661564992912,-36.32749094928801,13.906668637002808,-4.75
1772909107.2884345,0.0007598630942553341,0.765280542352205,-9.217227763671161,0.8099633960782647,-1.3566072072690525,9.76255643000264,0.0,0.0,0.002181661564992912,-36.32749094928801,13.906668637002808,-4.75
1772909107.3206341,0.0007598630942553341,0.765280542352205,-9.217227763671161,0.8104344968704639,-1.354208161313641,9.765046387316882,-0.0006317103237116482,0.0008892996474518334,0.0,-38.419029795967596,14.260879383353407,-4.25
1772909107.3428104,0.0007598630942553341,0.765280542352205,-9.217227763671161,0.8104344968704639,-1.354208161313641,9.765046387316882,-0.0006317103237116482,0.0008892996474518334,0.0,-38.419029795967596,14.260879383353407,-4.25
1772909107.366155,0.0007598630942553341,0.765280542352205,-9.217227763671161,0.8154122965733592,-1.353401539372398,9.763358314387546,0.0006317103237116482,-0.0008892996474518334,0.001090830782496456,-38.419029795967596,14.260879383353407,-4.25
1772909107.4014003,0.0007598630942553341,0.765280542352205,-9.217227763671161,0.81872496666997,-1.3528647414810582,9.762234920710082,-0.002410309618615315,-0.00037412099997146287,0.001090830782496456,-38.558535599076706,13.70180033625999,-4.75
1772909107.4323277,0.0007598630942553341,0.765280542352205,-9.217227763671161,0.820139595271331,-1.3571717958690244,9.75814220305954,0.001005831323683111,-0.0032996092660671486,0.002181661564992912,-38.558535599076706,13.70180033625999,-4.75
1772909107.4523768,0.0007598630942553341,0.765280542352205,-9.217227763671161,0.820139595271331,-1.3571717958690244,9.75814220305954,0.001005831323683111,-0.0032996092660671486,0.002181661564992912,-38.558535599076706,13.70180033625999,-4.75
1772909107.4750109,0.0007598630942553341,0.765280542352205,-9.217227763671161,0.8183539129374942,-1.3619752779738876,9.758763656889075,-0.0015210099711634815,0.0002575893237401853,-0.001090830782496456,-37.64137950169039,14.353298373883359,-4.25
1772909107.5078146,0.0007598630942553341,0.765280542352205,-9.217227763671161,0.8171655612917044,-1.365171941656263,9.759177227470536,0.0018951309711349445,-0.0026678989423555006,-0.001090830782496456,-37.64137950169039,14.353298373883359,-4.25
1772909107.5370562,0.0007598630942553341,0.765280542352205,-9.217227763671161,0.8171655612917044,-1.365171941656263,9.759177227470536,0.0018951309711349445,-0.0026678989423555006,-0.001090830782496456,-37.64137950169039,14.353298373883359,-4.25
1772909107.5668023,0.0007598630942553341,0.765280542352205,-9.217227763671161,0.8126220740091051,-1.3641730515834445,9.756290502594494,-0.0006317103237116482,0.0008892996474518334,-0.001090830782496456,-37.715173407180096,13.917561114158447,-4.25
1772909107.6014836,0.0007598630942553341,0.765280542352205,-9.217227763671161,0.8126220740091051,-1.3641730515834445,9.756290502594494,-0.0006317103237116482,0.0008892996474518334,-0.001090830782496456,-37.715173407180096,13.917561114158447,-4.25
1772909107.6198363,0.0007598630942553341,0.765280542352205,-9.217227763671161,0.8114139009910759,-1.3639074335770778,9.754186259207117,-0.0012634206474232963,0.0017785992949036669,-0.001090830782496456,-37.207047476608146,13.741860975625814,-4.75
1772909107.6401517,0.0007598630942553341,0.765280542352205,-9.217227763671161,0.8106098753437544,-1.3637306677609882,9.756131020446077,0.0006317103237116482,-0.0008892996474518334,-0.001090830782496456,-37.207047476608146,13.741860975625814,-4.75
1772909107.6557178,0.0007598630942553341,0.765280542352205,-9.217227763671161,0.8100748052570169,-1.3636130320849842,9.757425237326197,0.0006317103237116482,-0.0008892996474518334,-0.001090830782496456,-37.207047476608146,13.741860975625814,-4.75
1772909107.6810246,0.0007598630942553341,0.765280542352205,-9.217227763671161,0.8077815365687958,-1.3608076449910744,9.758286524202568,-0.002784430618586778,0.0020361886186438523,-0.002181661564992912,-37.85854551423151,14.659017073012132,-5.0625
1772909107.730667,0.0007598630942553341,0.765280542352205,-9.217227763671161,0.8081925773968962,-1.3616677930839105,9.758859700997588,-0.0008892996474518334,-0.0006317103237116482,-0.002181661564992912,-37.85854551423151,14.659017073012132,-5.0625
1772909107.758315,0.0007598630942553341,0.765280542352205,-9.217227763671161,0.8026545639085048,-1.3540589064343922,9.759241143751868,-0.0015210099711634815,0.0002575893237401853,-0.001090830782496456,-37.85854551423151,14.659017073012132,-5.0625
1772909107.807111,0.0007598630942553341,0.765280542352205,-9.217227763671161,0.8047806343635098,-1.3571765829627875,9.762840101351168,-0.0018951309711349445,0.0026678989423555006,-0.001090830782496456,-37.85854551423151,14.659017073012132,-4.75
1772909107.831065,0.0007598630942553341,0.765280542352205,-9.217227763671161,0.808922612367158,-1.357314176343084,9.765235167430511,-0.0012634206474232963,0.0017785992949036669,0.0,-37.85854551423151,14.659017073012132,-4.75
1772909107.852351,0.0007598630942553341,0.765280542352205,-9.217227763671161,0.81167905245966,-1.3574057432006528,9.766829057151671,0.0,0.0,-0.001090830782496456,-37.85854551423151,14.659017073012132,-4.75
1772909107.870122,0.0007598630942553341,0.765280542352205,-9.217227763671161,0.81167905245966,-1.3574057432006528,9.766829057151671,0.0,0.0,-0.001090830782496456,-37.85854551423151,14.659017073012132,-4.75
1772909107.8992336,0.0007598630942553341,0.765280542352205,-9.217227763671161,0.8135134325497667,-1.3574666799214958,9.76788977295619,-0.0012634206474232963,0.0017785992949036669,0.0,-36.90132877747937,13.959026988166936,-5.0625
1772909107.916976,0.0007598630942553341,0.765280542352205,-9.217227763671161,0.8127970064857427,-1.3547801307629037,9.768595667475125,-0.0015210099711634815,0.0002575893237401853,0.001090830782496456,-36.90132877747937,13.959026988166936,-5.0625
1772909107.9308755,0.0007598630942553341,0.765280542352205,-9.217227763671161,0.816194603988382,-1.3584464660397924,9.769065432392118,-0.0015210099711634815,0.0002575893237401853,0.003272492347489368,-36.90132877747937,13.959026988166936,-5.0625
1772909107.9445586,0.0007598630942553341,0.765280542352205,-9.217227763671161,0.816194603988382,-1.3584464660397924,9.769065432392118,-0.0015210099711634815,0.0002575893237401853,0.003272492347489368,-36.90132877747937,13.959026988166936,-5.0625
1772909107.9634967,0.0007598630942553341,0.765280542352205,-9.217227763671161,0.8184556671727373,-1.360886371210913,9.769378055696759,-0.0008892996474518334,-0.0006317103237116482,0.0,-38.11331109683882,14.47804539589453,-4.75
1772909108.0079353,0.0007598630942553341,0.765280542352205,-9.217227763671161,0.8199603794641951,-1.3625101008467673,9.769586103013767,0.00037412099997146276,-0.002410309618615315,0.0,-38.11331109683882,14.47804539589453,-4.75
1772909108.031391,0.0007598630942553341,0.765280542352205,-9.217227763671161,0.8209617486854227,-1.36359067478118,9.769724556179193,-0.0015210099711634815,0.0002575893237401853,0.0,-37.46040782457278,14.09853279127605,-4.25
1772909108.047611,0.0007598630942553341,0.765280542352205,-9.217227763671161,0.8196909631935007,-1.361582682798124,9.763126471799524,-0.0015210099711634815,0.0002575893237401853,-0.001090830782496456,-37.46040782457278,14.09853279127605,-4.25
1772909108.0654604,0.0007598630942553341,0.765280542352205,-9.217227763671161,0.8207824551668523,-1.3629734884297462,9.762080632057604,-0.0013799523236545735,0.005709918884682463,-0.002181661564992912,-37.46040782457278,14.09853279127605,-4.25
1772909108.0838706,0.0007598630942553341,0.765280542352205,-9.217227763671161,0.8207824551668523,-1.3629734884297462,9.762080632057604,-0.0013799523236545735,0.005709918884682463,-0.002181661564992912,-37.46040782457278,14.09853279127605,-4.25
1772909108.101475,0.0007598630942553341,0.765280542352205,-9.217227763671161,0.8195716453597318,-1.361171952175668,9.758039525684833,-0.0015210099711634815,0.0002575893237401853,0.0,-38.558535599076706,13.70180033625999,-5.0625
1772909108.1229503,0.0007598630942553341,0.765280542352205,-9.217227763671161,0.8195716453597318,-1.361171952175668,9.758039525684833,-0.0015210099711634815,0.0002575893237401853,0.0,-38.558535599076706,13.70180033625999,-5.0625
1772909108.1451695,0.0007598630942553341,0.765280542352205,-9.217227763671161,0.8160387630931194,-1.3619102354456796,9.75200510282855,-0.0006317103237116482,0.0008892996474518334,0.001090830782496456,-38.558535599076706,13.70180033625999,-5.0625
1772909108.1643608,0.0007598630942553341,0.765280542352205,-9.217227763671161,0.8164147712751751,-1.360464369192086,9.747989261826614,-0.0008892996474518334,-0.0006317103237116482,0.0,-37.907037561453336,12.784644238873673,-5.0625
1772909108.1853821,0.0007598630942553341,0.765280542352205,-9.217227763671161,0.8112107967888355,-1.3633765323969473,9.752006987914347,-0.002784430618586778,0.0020361886186438523,-0.001090830782496456,-37.907037561453336,12.784644238873673,-5.0625
1772909108.2087238,0.0007598630942553341,0.765280542352205,-9.217227763671161,0.8112107967888355,-1.3633765323969473,9.752006987914347,-0.002784430618586778,0.0020361886186438523,-0.001090830782496456,-37.907037561453336,12.784644238873673,-5.0625
1772909108.2329752,0.0007598630942553341,0.765280542352205,-9.217227763671161,0.8085375262433641,-1.3606502570905605,9.754680739744794,-0.0015210099711634815,0.0002575893237401853,0.001090830782496456,-37.907037561453336,12.784644238873673,-5.0625
1772909108.2547517,0.0007598630942553341,0.765280542352205,-9.217227763671161,0.804031392692136,-1.3607731368512725,9.756460091720191,-0.0015210099711634815,0.0002575893237401853,0.0,-38.124203573994464,13.090362938002444,-4.25
1772909108.2752507,0.0007598630942553341,0.765280542352205,-9.217227763671161,0.804031392692136,-1.3607731368512725,9.756460091720191,-0.0015210099711634815,0.0002575893237401853,0.0,-38.124203573994464,13.090362938002444,-4.25
1772909108.3141792,0.0007598630942553341,0.765280542352205,-9.217227763671161,0.8029697966732255,-1.3635820138249752,9.757644230583153,-0.00215272029487513,0.0011468889711920187,0.0,-38.124203573994464,13.090362938002444,-4.25
1772909108.3408206,0.0007598630942553341,0.765280542352205,-9.217227763671161,0.8022633163814451,-1.3654512900737628,9.758432261768757,0.0012634206474232963,-0.0017785992949036669,-0.001090830782496456,-38.419029795967596,14.260879383353407,-4.75
1772909108.3830483,0.0007598630942553341,0.765280542352205,-9.217227763671161,0.8045202635047729,-1.364758087013525,9.758956687719891,-0.0006317103237116482,0.0008892996474518334,0.0,-38.419029795967596,14.260879383353407,-4.75
1772909108.408624,0.0007598630942553341,0.765280542352205,-9.217227763671161,0.8045202635047729,-1.364758087013525,9.758956687719891,-0.0006317103237116482,0.0008892996474518334,0.0,-38.419029795967596,14.260879383353407,-4.75
1772909108.4373577,0.0007598630942553341,0.765280542352205,-9.217227763671161,0.8060222366035962,-1.3642967681205223,9.75596057562483,-0.0006317103237116482,0.0008892996474518334,0.0,-37.24464704667433,13.25517059937944,-5.0625
1772909108.4592948,0.0007598630942553341,0.765280542352205,-9.217227763671161,0.8097488847883297,-1.3620525800278769,9.750621584787012,-0.0012634206474232963,0.0017785992949036669,0.0,-37.24464704667433,13.25517059937944,-5.0625
1772909108.4833724,0.0007598630942553341,0.765280542352205,-9.217227763671161,0.8097488847883297,-1.3620525800278769,9.750621584787012,-0.0012634206474232963,0.0017785992949036669,0.0,-37.24464704667433,13.25517059937944,-5.0625
1772909108.5075831,0.0007598630942553341,0.765280542352205,-9.217227763671161,0.8122289275258822,-1.360559097921445,9.747068546024881,-0.00025758932374018534,-0.0015210099711634815,0.0,-38.124203573994464,13.090362938002444,-5.0625
1772909108.5346746,0.0007598630942553341,0.765280542352205,-9.217227763671161,0.8122289275258822,-1.360559097921445,9.747068546024881,-0.00025758932374018534,-0.0015210099711634815,0.0,-38.124203573994464,13.090362938002444,-5.0625
1772909108.5582297,0.0007598630942553341,0.765280542352205,-9.217227763671161,0.811152266398225,-1.3615023877855248,9.744704038418725,0.0,0.0,-0.001090830782496456,-38.124203573994464,13.090362938002444,-5.0625
1772909108.587727,0.0007598630942553341,0.765280542352205,-9.217227763671161,0.8084985749222402,-1.359403034787226,9.743130485020108,-0.0015210099711634815,0.0002575893237401853,0.0,-37.154689125444015,14.315698803817172,-4.75
1772909108.612018,0.0007598630942553341,0.765280542352205,-9.217227763671161,0.8084985749222402,-1.359403034787226,9.743130485020108,-0.0015210099711634815,0.0002575893237401853,0.0,-37.154689125444015,14.315698803817172,-4.75
1772909108.6343062,0.0007598630942553341,0.765280542352205,-9.217227763671161,0.8067325728886484,-1.3580059388181676,9.748773526225712,-0.00037412099997146276,0.002410309618615315,-0.001090830782496456,-37.154689125444015,14.315698803817172,-4.75
1772909108.6678424,0.0007598630942553341,0.765280542352205,-9.217227763671161,0.8055573182628284,-1.3570761870573438,9.745838683696501,0.00025758932374018534,0.0015210099711634815,-0.001090830782496456,-37.154689125444015,14.315698803817172,-4.75
1772909108.7003012,0.0007598630942553341,0.765280542352205,-9.217227763671161,0.8067123849604214,-1.359184549512129,9.750575802192289,-0.0025268412948465926,0.0035571985898073337,-0.001090830782496456,-37.715173407180096,13.917561114158447,-5.5
1772909108.7236516,0.0007598630942553341,0.765280542352205,-9.217227763671161,0.8067123849604214,-1.359184549512129,9.750575802192289,-0.0025268412948465926,0.0035571985898073337,-0.001090830782496456,-37.715173407180096,13.917561114158447,-5.5
1772909108.740697,0.0007598630942553341,0.765280542352205,-9.217227763671161,0.8102081708103348,-1.358650455651215,9.753728301634156,-0.0015210099711634815,0.0002575893237401853,-0.001090830782496456,-37.715173407180096,13.917561114158447,-5.5
1772909108.7727098,0.0007598630942553341,0.765280542352205,-9.217227763671161,0.8125345772429654,-1.358295022152996,9.755826254796993,-0.00037412099997146276,0.002410309618615315,-0.003272492347489368,-38.11331109683882,14.47804539589453,-4.0
1772909108.8174577,0.0007598630942553341,0.765280542352205,-9.217227763671161,0.8140827747362186,-1.3580584851303836,9.757222419191187,-0.002410309618615315,-0.00037412099997146287,-0.001090830782496456,-38.11331109683882,14.47804539589453,-4.0
1772909108.8446085,0.0007598630942553341,0.765280542352205,-9.217227763671161,0.8140827747362186,-1.3580584851303836,9.757222419191187,-0.002410309618615315,-0.00037412099997146287,-0.001090830782496456,-38.11331109683882,14.47804539589453,-4.0
1772909108.8603225,0.0007598630942553341,0.765280542352205,-9.217227763671161,0.8123859810078736,-1.3598382579067485,9.761496662706666,-0.00025758932374018534,-0.0015210099711634815,0.001090830782496456,-38.6000014730852,14.515644965960718,-5.0625
1772909108.8796692,0.0007598630942553341,0.765280542352205,-9.217227763671161,0.8123859810078736,-1.3598382579067485,9.761496662706666,-0.00025758932374018534,-0.0015210099711634815,0.001090830782496456,-38.6000014730852,14.515644965960718,-5.0625
1772909108.9133344,0.0007598630942553341,0.765280542352205,-9.217227763671161,0.8112567837360879,-1.3610226768080547,9.764341124019788,-0.0018951309711349445,0.0026678989423555006,-0.002181661564992912,-38.6000014730852,14.515644965960718,-5.0625
1772909108.9471827,0.0007598630942553341,0.765280542352205,-9.217227763671161,0.8105053155656746,-1.3618108943560479,9.762888969541637,-0.0008892996474518334,-0.0006317103237116482,0.0,-38.558535599076706,13.70180033625999,-5.0625
1772909108.9691505,0.0007598630942553341,0.765280542352205,-9.217227763671161,0.8100052218927141,-1.3623354443292706,9.761922576958055,0.0,0.0,0.001090830782496456,-38.558535599076706,13.70180033625999,-5.0625
1772909108.9943275,0.0007598630942553341,0.765280542352205,-9.217227763671161,0.8096724151397712,-1.362684526476843,9.764624565196312,-0.0008892996474518334,-0.0006317103237116482,0.001090830782496456,-38.558535599076706,13.70180033625999,-5.0625
1772909109.0088315,0.0007598630942553341,0.765280542352205,-9.217227763671161,0.8096724151397712,-1.362684526476843,9.764624565196312,-0.0008892996474518334,-0.0006317103237116482,0.001090830782496456,-38.558535599076706,13.70180033625999,-5.0625
1772909109.0255241,0.0007598630942553341,0.765280542352205,-9.217227763671161,0.8094509359633828,-1.3629168367465494,9.766422708185686,-0.00025758932374018534,-0.0015210099711634815,0.003272492347489368,-38.419029795967596,14.260879383353407,-4.25
1772909109.0402503,0.0007598630942553341,0.765280542352205,-9.217227763671161,0.8120306459111862,-1.3611342511133415,9.767619352258542,0.0006317103237116482,-0.0008892996474518334,0.002181661564992912,-38.419029795967596,14.260879383353407,-4.25
1772909109.058464,0.0007598630942553341,0.765280542352205,-9.217227763671161,0.8137474140642013,-1.3599479602872278,9.75838037039968,-0.0012634206474232963,0.0017785992949036669,0.0,-38.419029795967596,14.260879383353407,-4.25
1772909109.0848126,0.0007598630942553341,0.765280542352205,-9.217227763671161,0.8137474140642013,-1.3599479602872278,9.75838037039968,-0.0012634206474232963,0.0017785992949036669,0.0,-38.419029795967596,14.260879383353407,-4.25
1772909109.115327,0.0007598630942553341,0.765280542352205,-9.217227763671161,0.8148899040924759,-1.359158496994186,9.758922154593435,-0.0006317103237116482,0.0008892996474518334,-0.001090830782496456,-37.207047476608146,13.741860975625814,-5.5
1772909109.1384366,0.0007598630942553341,0.765280542352205,-9.217227763671161,0.814860302100859,-1.3632974053797768,9.759282705922253,-0.0034161409422984257,0.0029254882660956854,-0.001090830782496456,-37.207047476608146,13.741860975625814,-5.5
1772909109.1548705,0.0007598630942553341,0.765280542352205,-9.217227763671161,0.814860302100859,-1.3632974053797768,9.759282705922253,-0.0034161409422984257,0.0029254882660956854,-0.001090830782496456,-37.207047476608146,13.741860975625814,-5.5
1772909109.1752052,0.0007598630942553341,0.765280542352205,-9.217227763671161,0.8148406023061139,-1.3660518026757515,9.759522648803959,-0.0008892996474518334,-0.0006317103237116482,0.0,-37.207047476608146,13.741860975625814,-5.5
1772909109.2034018,0.0007598630942553341,0.765280542352205,-9.217227763671161,0.8156174086557559,-1.3632205359193614,9.759682328111397,-0.0015210099711634815,0.0002575893237401853,-0.001090830782496456,-37.33566080256162,14.570464386424481,-5.0625
1772909109.2179117,0.0007598630942553341,0.765280542352205,-9.217227763671161,0.8156174086557559,-1.3632205359193614,9.759682328111397,-0.0015210099711634815,0.0002575893237401853,-0.001090830782496456,-37.33566080256162,14.570464386424481,-5.0625
1772909109.2355306,0.0007598630942553341,0.765280542352205,-9.217227763671161,0.8161343646039473,-1.3613363595203058,9.759788592906762,0.0008892996474518334,0.0006317103237116482,-0.002181661564992912,-37.33566080256162,14.570464386424481,-5.0625
1772909109.2563345,0.0007598630942553341,0.765280542352205,-9.217227763671161,0.8137512911470867,-1.3620196466969858,9.759859310941023,-0.0006317103237116482,0.0008892996474518334,0.0,-37.33566080256162,14.570464386424481,-5.0625
1772909109.2812874,0.0007598630942553341,0.765280542352205,-9.217227763671161,0.8121653823822207,-1.3624743666802481,9.75656126129553,-0.00215272029487513,0.0011468889711920187,0.0,-38.294282773956425,14.73281097850184,-5.5
1772909109.3173745,0.0007598630942553341,0.765280542352205,-9.217227763671161,0.8121653823822207,-1.3624743666802481,9.75656126129553,-0.00215272029487513,0.0011468889711920187,0.0,-38.294282773956425,14.73281097850184,-5.5
1772909109.335271,0.0007598630942553341,0.765280542352205,-9.217227763671161,0.811109977814964,-1.3627769777495542,9.754366446098084,-0.00215272029487513,0.0011468889711920187,0.0,-38.294282773956425,14.73281097850184,-5.5
1772909109.3532345,0.0007598630942553341,0.765280542352205,-9.217227763671161,0.8104076178650963,-1.3629783620357905,9.752905821101876,-0.002410309618615315,-0.00037412099997146287,-0.001090830782496456,-38.294282773956425,14.73281097850184,-5.5
1772909109.380322,0.0007598630942553341,0.765280542352205,-9.217227763671161,0.8104076178650963,-1.3629783620357905,9.752905821101876,-0.002410309618615315,-0.00037412099997146287,-0.001090830782496456,-38.294282773956425,14.73281097850184,-5.5
1772909109.4067445,0.0007598630942553341,0.765280542352205,-9.217227763671161,0.8126673070299396,-1.3611751955060487,9.75193379148315,-0.0008892996474518334,-0.0006317103237116482,-0.001090830782496456,-38.11331109683882,14.47804539589453,-4.75
1772909109.4407034,0.0007598630942553341,0.765280542352205,-9.217227763671161,0.8141711049267609,-1.3599752083231957,9.75463202833749,-0.0008892996474518334,-0.0006317103237116482,0.001090830782496456,-38.11331109683882,14.47804539589453,-4.75
1772909109.4637425,0.0007598630942553341,0.765280542352205,-9.217227763671161,0.8141711049267609,-1.3599752083231957,9.75463202833749,-0.0008892996474518334,-0.0006317103237116482,0.001090830782496456,-38.11331109683882,14.47804539589453,-4.75
1772909109.4846075,0.0007598630942553341,0.765280542352205,-9.217227763671161,0.8124447637629667,-1.361113815780364,9.756427674822772,-0.0015210099711634815,0.0002575893237401853,0.001090830782496456,-37.76753175834423,13.343723285967089,-5.0625
1772909109.5129592,0.0007598630942553341,0.765280542352205,-9.217227763671161,0.8112959030029561,-1.3618715463240307,9.760967769207362,0.0006317103237116482,-0.0008892996474518334,0.0,-37.76753175834423,13.343723285967089,-5.0625
1772909109.5447023,0.0007598630942553341,0.765280542352205,-9.217227763671161,0.81325845086639,-1.3604386220138143,9.767334263011447,-0.0006317103237116482,0.0008892996474518334,-0.001090830782496456,-37.46040782457278,14.09853279127605,-6.0
1772909109.5662212,0.0007598630942553341,0.765280542352205,-9.217227763671161,0.81325845086639,-1.3604386220138143,9.767334263011447,-0.0006317103237116482,0.0008892996474518334,-0.001090830782496456,-37.46040782457278,14.09853279127605,-6.0
1772909109.579961,0.0007598630942553341,0.765280542352205,-9.217227763671161,0.8145645045464094,-1.3594850268921788,9.768225981812352,-0.0018951309711349445,0.0026678989423555006,0.0,-37.46040782457278,14.09853279127605,-6.0
1772909109.5978477,0.0007598630942553341,0.765280542352205,-9.217227763671161,0.8154336686808866,-1.3588504199910858,9.768819410713201,0.0017785992949036669,0.0012634206474232963,0.001090830782496456,-37.46040782457278,14.09853279127605,-6.0
1772909109.61273,0.0007598630942553341,0.765280542352205,-9.217227763671161,0.8154336686808866,-1.3588504199910858,9.768819410713201,0.0017785992949036669,0.0012634206474232963,0.001090830782496456,-37.46040782457278,14.09853279127605,-6.0
1772909109.62698,0.0007598630942553341,0.765280542352205,-9.217227763671161,0.8160120877031818,-1.358428096187432,9.76921433101768,0.0034161409422984257,-0.0029254882660956854,-0.001090830782496456,-37.154689125444015,14.315698803817172,-4.25
1772909109.6410418,0.0007598630942553341,0.765280542352205,-9.217227763671161,0.8136699172355497,-1.3600842299363882,9.772822257776083,0.0006317103237116482,-0.0008892996474518334,0.0,-37.154689125444015,14.315698803817172,-4.25
1772909109.6714342,0.0007598630942553341,0.765280542352205,-9.217227763671161,0.8136699172355497,-1.3600842299363882,9.772822257776083,0.0006317103237116482,-0.0008892996474518334,0.0,-37.154689125444015,14.315698803817172,-4.25
1772909109.7085452,0.0007598630942553341,0.765280542352205,-9.217227763671161,0.8140484144757207,-1.363913470311698,9.775223292730617,0.0015210099711634815,-0.0002575893237401853,0.002181661564992912,-37.55282681510274,14.876183085553254,-5.5
1772909109.7262914,0.0007598630942553341,0.765280542352205,-9.217227763671161,0.8140484144757207,-1.363913470311698,9.775223292730617,0.0015210099711634815,-0.0002575893237401853,0.002181661564992912,-37.55282681510274,14.876183085553254,-5.5
1772909109.745884,0.0007598630942553341,0.765280542352205,-9.217227763671161,0.8143003001609634,-1.366461787006049,9.770130931256903,0.002410309618615315,0.00037412099997146287,0.001090830782496456,-37.55282681510274,14.876183085553254,-5.5
1772909109.7605479,0.0007598630942553341,0.765280542352205,-9.217227763671161,0.8143003001609634,-1.366461787006049,9.770130931256903,0.002410309618615315,0.00037412099997146287,0.001090830782496456,-37.55282681510274,14.876183085553254,-5.5
1772909109.7760584,0.0007598630942553341,0.765280542352205,-9.217227763671161,0.8144679272707449,-1.3681576632995767,9.766742021581551,0.00025758932374018534,0.0015210099711634815,0.0,-37.64137950169039,14.353298373883359,-4.75
1772909109.7953365,0.0007598630942553341,0.765280542352205,-9.217227763671161,0.8145794812397871,-1.36928625002874,9.764486740049207,0.0015210099711634815,-0.0002575893237401853,0.0,-37.64137950169039,14.353298373883359,-4.75
1772909109.8158045,0.0007598630942553341,0.765280542352205,-9.217227763671161,0.8127165336374232,-1.3673102100242527,9.759640763675257,0.0,0.0,0.001090830782496456,-37.64137950169039,14.353298373883359,-4.75
1772909109.8404956,0.0007598630942553341,0.765280542352205,-9.217227763671161,0.8114767628185384,-1.3659951774750796,9.756415820531497,-0.0015210099711634815,0.0002575893237401853,0.0,-37.8961450842977,14.172326696765756,-5.0625
1772909109.8556952,0.0007598630942553341,0.765280542352205,-9.217227763671161,0.810651709187718,-1.365120038003481,9.75761476860162,0.002784430618586778,-0.0020361886186438523,0.001090830782496456,-37.8961450842977,14.172326696765756,-5.0625
1772909109.8764067,0.0007598630942553341,0.765280542352205,-9.217227763671161,0.810651709187718,-1.365120038003481,9.75761476860162,0.002784430618586778,-0.0020361886186438523,0.001090830782496456,-37.8961450842977,14.172326696765756,-5.0625
1772909109.9047468,0.0007598630942553341,0.765280542352205,-9.217227763671161,0.8128297470784657,-1.3626004569384587,9.758412655149158,0.003042019942326963,-0.0005151786474803706,-0.001090830782496456,-37.8961450842977,14.172326696765756,-5.0625
1772909109.9232838,0.0007598630942553341,0.765280542352205,-9.217227763671161,0.8115521050988752,-1.362860889407873,9.758943639733568,0.00215272029487513,-0.0011468889711920187,0.001090830782496456,-37.207047476608146,13.741860975625814,-5.0625
1772909109.9449067,0.0007598630942553341,0.765280542352205,-9.217227763671161,0.8107018486336538,-1.363034204307047,9.755951892335688,0.0,0.0,0.001090830782496456,-37.207047476608146,13.741860975625814,-5.0625
1772909109.9596386,0.0007598630942553341,0.765280542352205,-9.217227763671161,0.8107018486336538,-1.363034204307047,9.755951892335688,0.0,0.0,0.001090830782496456,-37.207047476608146,13.741860975625814,-5.0625
1772909109.9943643,0.0007598630942553341,0.765280542352205,-9.217227763671161,0.810136012454036,-1.363149543436393,9.753960917862406,0.0012634206474232963,-0.0017785992949036669,0.0,-37.1961549994525,15.129543433517897,-4.75
1772909110.0150733,0.0007598630942553341,0.765280542352205,-9.217227763671161,0.810136012454036,-1.363149543436393,9.753960917862406,0.0012634206474232963,-0.0017785992949036669,0.0,-37.1961549994525,15.129543433517897,-4.75
1772909110.0384734,0.0007598630942553341,0.765280542352205,-9.217227763671161,0.8116966403199264,-1.3659534022041557,9.7559810582984,0.00215272029487513,-0.0011468889711920187,-0.001090830782496456,-37.1961549994525,15.129543433517897,-4.75
1772909110.0521295,0.0007598630942553341,0.765280542352205,-9.217227763671161,0.8116966403199264,-1.3659534022041557,9.7559810582984,0.00215272029487513,-0.0011468889711920187,-0.001090830782496456,-37.1961549994525,15.129543433517897,-4.75
1772909110.0707066,0.0007598630942553341,0.765280542352205,-9.217227763671161,0.8127352207313209,-1.367819338892947,9.760670550899425,0.0017785992949036669,0.0012634206474232963,-0.001090830782496456,-38.775701611617826,14.007519035388762,-3.5625
1772909110.0961375,0.0007598630942553341,0.765280542352205,-9.217227763671161,0.8161534862590063,-1.3671239133928375,9.763791355840342,0.0015210099711634815,-0.0002575893237401853,0.0,-38.775701611617826,14.007519035388762,-3.5625
1772909110.110039,0.0007598630942553341,0.765280542352205,-9.217227763671161,0.8161534862590063,-1.3671239133928375,9.763791355840342,0.0015210099711634815,-0.0002575893237401853,0.0,-38.775701611617826,14.007519035388762,-3.5625
1772909110.1240187,0.0007598630942553341,0.765280542352205,-9.217227763671161,0.818428303783153,-1.3666611154909263,9.769213328374166,-0.001005831323683111,0.0032996092660671486,-0.002181661564992912,-37.46040782457278,14.09853279127605,-5.5
1772909110.1401107,0.0007598630942553341,0.765280542352205,-9.217227763671161,0.8133406965232466,-1.3628361104484064,9.772821590528025,-0.00215272029487513,0.0011468889711920187,-0.002181661564992912,-37.46040782457278,14.09853279127605,-5.5
1772909110.162136,0.0007598630942553341,0.765280542352205,-9.217227763671161,0.8133406965232466,-1.3628361104484064,9.772821590528025,-0.00215272029487513,0.0011468889711920187,-0.002181661564992912,-37.46040782457278,14.09853279127605,-5.5
1772909110.1950684,0.0007598630942553341,0.765280542352205,-9.217227763671161,0.8138293217693193,-1.3657448160519265,9.77522284868449,-0.00025758932374018534,-0.0015210099711634815,0.002181661564992912,-37.46040782457278,14.09853279127605,-5.5
1772909110.2178767,0.0007598630942553341,0.765280542352205,-9.217227763671161,0.8122173108896573,-1.3649534252730928,9.770130635749165,-0.002784430618586778,0.0020361886186438523,-0.001090830782496456,-37.46181305921545,13.560889298508211,-4.25
1772909110.2317677,0.0007598630942553341,0.765280542352205,-9.217227763671161,0.8122173108896573,-1.3649534252730928,9.770130635749165,-0.002784430618586778,0.0020361886186438523,-0.001090830782496456,-37.46181305921545,13.560889298508211,-4.25
1772909110.248897,0.0007598630942553341,0.765280542352205,-9.217227763671161,0.8111445356565837,-1.3644267635501934,9.766741824924454,0.0,0.0,-0.001090830782496456,-37.46181305921545,13.560889298508211,-4.25
1772909110.2632394,0.0007598630942553341,0.765280542352205,-9.217227763671161,0.8104306157226577,-1.3640762760568008,9.764486609176105,0.00025758932374018534,0.0015210099711634815,0.0,-37.46181305921545,13.560889298508211,-4.25
1772909110.2763054,0.0007598630942553341,0.765280542352205,-9.217227763671161,0.8104306157226577,-1.3640762760568008,9.764486609176105,0.00025758932374018534,0.0015210099711634815,0.0,-37.46181305921545,13.560889298508211,-4.25
1772909110.2912796,0.0007598630942553341,0.765280542352205,-9.217227763671161,0.8099555099816382,-1.3638430305451499,9.76298578828799,-0.0008892996474518334,-0.0006317103237116482,0.0,-37.154689125444015,14.315698803817172,-5.0625
1772909110.3045928,0.0007598630942553341,0.765280542352205,-9.217227763671161,0.8099555099816382,-1.3638430305451499,9.76298578828799,-0.0008892996474518334,-0.0006317103237116482,0.0,-37.154689125444015,14.315698803817172,-5.0625
1772909110.3219068,0.0007598630942553341,0.765280542352205,-9.217227763671161,0.8096393324182687,-1.363687808262669,9.761987008752216,-0.0012634206474232963,0.0017785992949036669,-0.001090830782496456,-37.154689125444015,14.315698803817172,-5.0625
1772909110.3396363,0.0007598630942553341,0.765280542352205,-9.217227763671161,0.809428919781781,-1.363584509567625,9.757977220420939,-0.0012634206474232963,0.0017785992949036669,0.001090830782496456,-37.154689125444015,14.315698803817172,-5.0625
1772909110.3579671,0.0007598630942553341,0.765280542352205,-9.217227763671161,0.8092888925226617,-1.363515765439995,9.761998974493382,0.00025758932374018534,0.0015210099711634815,-0.002181661564992912,-38.58137638804495,13.3022574119586,-3.5625
1772909110.3859847,0.0007598630942553341,0.765280542352205,-9.217227763671161,0.8092888925226617,-1.363515765439995,9.761998974493382,0.00025758932374018534,0.0015210099711634815,-0.002181661564992912,-38.58137638804495,13.3022574119586,-3.5625
1772909110.418992,0.0007598630942553341,0.765280542352205,-9.217227763671161,0.8091957059459247,-1.3634700169909795,9.761330295195338,0.0006317103237116482,-0.0008892996474518334,-0.002181661564992912,-38.58137638804495,13.3022574119586,-3.5625
1772909110.431656,0.0007598630942553341,0.765280542352205,-9.217227763671161,0.8091957059459247,-1.3634700169909795,9.761330295195338,0.0006317103237116482,-0.0008892996474518334,-0.002181661564992912,-38.58137638804495,13.3022574119586,-3.5625
1772909110.447408,0.0007598630942553341,0.765280542352205,-9.217227763671161,0.8118607931856741,-1.3615023863865814,9.764230408299445,-0.0006317103237116482,0.0008892996474518334,0.0,-37.33566080256162,14.570464386424481,-4.0
1772909110.4701684,0.0007598630942553341,0.765280542352205,-9.217227763671161,0.8136343789727521,-1.3601929501992285,9.769505512881162,0.00025758932374018534,0.0015210099711634815,0.0,-37.33566080256162,14.570464386424481,-4.0
1772909110.5273633,0.0007598630942553341,0.765280542352205,-9.217227763671161,0.8120875786361956,-1.3612587205665276,9.773016036053516,0.00025758932374018534,0.0015210099711634815,0.0,-37.55282681510274,14.876183085553254,-5.5
1772909110.571701,0.0007598630942553341,0.765280542352205,-9.217227763671161,0.8110582002911091,-1.3619679788405301,9.772007138302284,0.0012634206474232963,-0.0017785992949036669,0.001090830782496456,-37.55282681510274,14.876183085553254,-5.5
1772909110.598753,0.0007598630942553341,0.765280542352205,-9.217227763671161,0.8103731605013637,-1.3624399822989448,9.767990616411646,0.00037412099997146276,-0.002410309618615315,-0.001090830782496456,-37.154689125444015,14.315698803817172,-4.0
1772909110.627006,0.0007598630942553341,0.765280542352205,-9.217227763671161,0.8145815615619114,-1.3635440116708795,9.765317665960916,-0.0006317103237116482,0.0008892996474518334,-0.002181661564992912,-37.154689125444015,14.315698803817172,-4.0
1772909110.646483,0.0007598630942553341,0.765280542352205,-9.217227763671161,0.8145815615619114,-1.3635440116708795,9.765317665960916,-0.0006317103237116482,0.0008892996474518334,-0.002181661564992912,-37.154689125444015,14.315698803817172,-4.0
1772909110.6639998,0.0007598630942553341,0.765280542352205,-9.217227763671161,0.815445019934164,-1.3615516290194802,9.76019373558745,0.00037412099997146276,-0.002410309618615315,0.0,-38.683282621087876,13.229868741111558,-5.5
1772909110.6856527,0.0007598630942553341,0.765280542352205,-9.217227763671161,0.815445019934164,-1.3615516290194802,9.76019373558745,0.00037412099997146276,-0.002410309618615315,0.0,-38.683282621087876,13.229868741111558,-5.5
1772909110.7206373,0.0007598630942553341,0.765280542352205,-9.217227763671161,0.8160196418354361,-1.3602257206213464,9.76012892886928,0.0017785992949036669,0.0012634206474232963,0.001090830782496456,-38.683282621087876,13.229868741111558,-5.5
1772909110.7481754,0.0007598630942553341,0.765280542352205,-9.217227763671161,0.8164020462917854,-1.3593433433937558,9.760085800722276,0.0006317103237116482,-0.0008892996474518334,0.0,-37.8961450842977,14.172326696765756,-3.5625
1772909110.7663643,0.0007598630942553341,0.765280542352205,-9.217227763671161,0.8166565321857481,-1.3587561312055936,9.760057099422218,-0.0006317103237116482,0.0008892996474518334,-0.001090830782496456,-37.8961450842977,14.172326696765756,-3.5625
1772909110.8096962,0.0007598630942553341,0.765280542352205,-9.217227763671161,0.8166565321857481,-1.3587561312055936,9.760057099422218,-0.0006317103237116482,0.0008892996474518334,-0.001090830782496456,-37.8961450842977,14.172326696765756,-3.5625
1772909110.83667,0.0007598630942553341,0.765280542352205,-9.217227763671161,0.8168258897053866,-1.3583653480539617,9.760037999027643,-0.0015210099711634815,0.0002575893237401853,-0.001090830782496456,-37.46040782457278,14.09853279127605,-5.0625
1772909110.853596,0.0007598630942553341,0.765280542352205,-9.217227763671161,0.8168258897053866,-1.3583653480539617,9.760037999027643,-0.0015210099711634815,0.0002575893237401853,-0.001090830782496456,-37.46040782457278,14.09853279127605,-5.0625
1772909110.872051,0.0007598630942553341,0.765280542352205,-9.217227763671161,0.814211493377253,-1.360042471754506,9.76002528792842,0.001005831323683111,-0.0032996092660671486,0.0,-37.46040782457278,14.09853279127605,-5.0625
1772909110.8947935,0.0007598630942553341,0.765280542352205,-9.217227763671161,0.8124716418256006,-1.3611585788425193,9.75667171712656,0.0008892996474518334,0.0006317103237116482,0.0,-38.3775639219591,13.44703475365268,-4.75
1772909110.908596,0.0007598630942553341,0.765280542352205,-9.217227763671161,0.8124716418256006,-1.3611585788425193,9.75667171712656,0.0008892996474518334,0.0006317103237116482,0.0,-38.3775639219591,13.44703475365268,-4.75
1772909110.9336724,0.0007598630942553341,0.765280542352205,-9.217227763671161,0.8113137900533913,-1.361901335641859,9.75778506492708,-0.0008892996474518334,-0.0006317103237116482,0.0,-38.3775639219591,13.44703475365268,-4.75
1772909110.9471233,0.0007598630942553341,0.765280542352205,-9.217227763671161,0.8132703544986434,-1.3604584464720606,9.758525985451419,-0.0006317103237116482,0.0008892996474518334,0.001090830782496456,-38.3775639219591,13.44703475365268,-4.75
1772909110.9622304,0.0007598630942553341,0.765280542352205,-9.217227763671161,0.8145724262807017,-1.3594982198476881,9.76570928319838,0.0,0.0,0.0,-38.558535599076706,13.70180033625999,-4.75
1772909110.9814217,0.0007598630942553341,0.765280542352205,-9.217227763671161,0.8145724262807017,-1.3594982198476881,9.76570928319838,0.0,0.0,0.0,-38.558535599076706,13.70180033625999,-4.75
1772909110.9975607,0.0007598630942553341,0.765280542352205,-9.217227763671161,0.8154389405065666,-1.358859199755602,9.76379946419165,-0.00025758932374018534,-0.0015210099711634815,0.0,-38.558535599076706,13.70180033625999,-4.75
1772909111.01774,0.0007598630942553341,0.765280542352205,-9.217227763671161,0.8154389405065666,-1.358859199755602,9.76379946419165,-0.00025758932374018534,-0.0015210099711634815,0.0,-38.558535599076706,13.70180033625999,-4.75
1772909111.052382,0.0007598630942553341,0.765280542352205,-9.217227763671161,0.8105613923130703,-1.3623083100678848,9.769218724391385,0.0,0.0,0.0,-37.33566080256162,14.570464386424481,-4.25
1772909111.0687985,0.0007598630942553341,0.765280542352205,-9.217227763671161,0.807315438476082,-1.3646036544516222,9.769480069809887,0.0,0.0,0.001090830782496456,-37.33566080256162,14.570464386424481,-4.25
1772909111.0966604,0.0007598630942553341,0.765280542352205,-9.217227763671161,0.807882394322852,-1.3641939949757007,9.76965399226648,-0.0008892996474518334,-0.0006317103237116482,-0.001090830782496456,-37.715173407180096,13.917561114158447,-4.75
1772909111.117049,0.0007598630942553341,0.765280542352205,-9.217227763671161,0.807882394322852,-1.3641939949757007,9.76965399226648,-0.0008892996474518334,-0.0006317103237116482,-0.001090830782496456,-37.715173407180096,13.917561114158447,-4.75
1772909111.145667,0.0007598630942553341,0.765280542352205,-9.217227763671161,0.8082596971055657,-1.3639213711706712,9.769769735718501,0.0015210099711634815,-0.0002575893237401853,0.002181661564992912,-37.715173407180096,13.917561114158447,-4.75
1772909111.1592662,0.0007598630942553341,0.765280542352205,-9.217227763671161,0.811237889758319,-1.3618027575512097,9.769846761692882,0.0018951309711349445,-0.0026678989423555006,0.0,-37.715173407180096,13.917561114158447,-4.75
1772909111.177992,0.0007598630942553341,0.765280542352205,-9.217227763671161,0.8132198437001346,-1.3603928438539228,9.766552909911077,0.0017785992949036669,0.0012634206474232963,0.0,-38.201863783426475,13.955160684224634,-4.75
1772909111.205614,0.0007598630942553341,0.765280542352205,-9.217227763671161,0.8132198437001346,-1.3603928438539228,9.766552909911077,0.0017785992949036669,0.0012634206474232963,0.0,-38.201863783426475,13.955160684224634,-4.75
1772909111.243201,0.0007598630942553341,0.765280542352205,-9.217227763671161,0.8145388119085366,-1.3594545620381464,9.764360888345022,0.0,0.0,0.0,-38.201863783426475,13.955160684224634,-4.75
1772909111.2599528,0.0007598630942553341,0.765280542352205,-9.217227763671161,0.8154165705173879,-1.358830145971042,9.75621189906466,0.00025758932374018534,0.0015210099711634815,0.0,-37.46040782457278,14.09853279127605,-4.75
1772909111.2888951,29.623303174139448,15.077284461365549,126.72555390833594,0.8179378945889941,-1.361141705919174,9.75747906114339,-0.0008892996474518334,-0.0006317103237116482,-0.002181661564992912,-37.46040782457278,14.09853279127605,-4.75
1772909111.311743,29.623303174139448,15.077284461365549,126.72555390833594,0.8179378945889941,-1.361141705919174,9.75747906114339,-0.0008892996474518334,-0.0006317103237116482,-0.002181661564992912,-37.46040782457278,14.09853279127605,-4.75
1772909111.327946,0.0007598630942553341,0.765280542352205,-9.217227763671161,0.8141616038624014,-1.366554394288083,9.758322343351658,-0.0006317103237116482,0.0008892996474518334,0.002181661564992912,-37.46040782457278,14.09853279127605,-5.0625
1772909111.3443377,0.0007598630942553341,0.765280542352205,-9.217227763671161,0.8171027282989968,-1.3662821068886575,9.75888353824118,0.00037412099997146276,-0.002410309618615315,-0.001090830782496456,-37.46040782457278,14.09853279127605,-5.0625
1772909111.356898,0.0007598630942553341,0.765280542352205,-9.217227763671161,0.8171027282989968,-1.3662821068886575,9.75888353824118,0.00037412099997146276,-0.002410309618615315,-0.001090830782496456,-37.46040782457278,14.09853279127605,-5.0625
1772909111.370336,0.0007598630942553341,0.765280542352205,-9.217227763671161,0.8171228282344164,-1.3633738008003837,9.755911895463882,0.0,0.0,-0.001090830782496456,-37.46040782457278,14.09853279127605,-5.0625
1772909111.3954706,0.0007598630942553341,0.765280542352205,-9.217227763671161,0.8171228282344164,-1.3633738008003837,9.755911895463882,0.0,0.0,-0.001090830782496456,-37.46040782457278,14.09853279127605,-5.0625
1772909111.408587,0.0007598630942553341,0.765280542352205,-9.217227763671161,0.8171362045169073,-1.3614383555865452,9.753934300391014,0.002269251971106407,-0.005078208560970815,0.002181661564992912,-38.558535599076706,13.70180033625999,-4.75
1772909111.4226973,0.0007598630942553341,0.765280542352205,-9.217227763671161,0.8171451062834819,-1.3601503384170752,9.752618232961206,0.0,0.0,0.0,-38.558535599076706,13.70180033625999,-4.75
1772909111.4383473,0.0007598630942553341,0.765280542352205,-9.217227763671161,0.8198781321753038,-1.3573559918562659,9.751742404788104,0.0006317103237116482,-0.0008892996474518334,-0.001090830782496456,-38.558535599076706,13.70180033625999,-4.75
1772909111.455725,0.0007598630942553341,0.765280542352205,-9.217227763671161,0.8198781321753038,-1.3573559918562659,9.751742404788104,0.0006317103237116482,-0.0008892996474518334,-0.001090830782496456,-38.558535599076706,13.70180033625999,-4.75
1772909111.5061164,0.0007598630942553341,0.765280542352205,-9.217227763671161,0.818969828510806,-1.3574335709575653,9.751159550922546,0.00215272029487513,-0.0011468889711920187,-0.001090830782496456,-38.124203573994464,13.090362938002444,-4.0
1772909111.5388203,0.0007598630942553341,0.765280542352205,-9.217227763671161,0.815638260702894,-1.3594223845054867,9.750771668185921,0.0006317103237116482,-0.0008892996474518334,0.001090830782496456,-38.124203573994464,13.090362938002444,-4.0
1772909111.560831,0.0007598630942553341,0.765280542352205,-9.217227763671161,0.8134211395427793,-1.3607459177051253,9.753858648264952,0.0008892996474518334,0.0006317103237116482,-0.003272492347489368,-36.68416276493825,13.653308289038165,-4.75
1772909111.6073434,0.0007598630942553341,0.765280542352205,-9.217227763671161,0.8146727720431948,-1.3596895287420283,9.75591299902372,0.00037412099997146276,-0.002410309618615315,0.003272492347489368,-36.68416276493825,13.653308289038165,-4.75
1772909111.6340432,0.0007598630942553341,0.765280542352205,-9.217227763671161,0.8146727720431948,-1.3596895287420283,9.75591299902372,0.00037412099997146276,-0.002410309618615315,0.003272492347489368,-36.68416276493825,13.653308289038165,-4.75
1772909111.6542737,0.0007598630942553341,0.765280542352205,-9.217227763671161,0.8135685339679484,-1.3562594118221196,9.757280146505078,0.00025758932374018534,0.0015210099711634815,0.002181661564992912,-38.201863783426475,13.955160684224634,-3.5625
1772909111.6712284,0.0007598630942553341,0.765280542352205,-9.217227763671161,0.816708046909263,-1.3594309110600482,9.758189967881883,0.0006317103237116482,-0.0008892996474518334,0.001090830782496456,-38.201863783426475,13.955160684224634,-3.5625
1772909111.7104366,0.0007598630942553341,0.765280542352205,-9.217227763671161,0.8168601721784287,-1.3588144065093164,9.762140555552095,0.0,0.0,-0.001090830782496456,-38.201863783426475,13.955160684224634,-3.5625
1772909111.7364488,0.0007598630942553341,0.765280542352205,-9.217227763671161,0.816171493502724,-1.3630684170058387,9.764769627515667,-0.0006317103237116482,0.0008892996474518334,0.001090830782496456,-38.3775639219591,13.44703475365268,-5.0625
1772909111.755604,0.0007598630942553341,0.765280542352205,-9.217227763671161,0.8137760000144655,-1.3631723116052579,9.763174133831447,0.0006317103237116482,-0.0008892996474518334,-0.001090830782496456,-38.3775639219591,13.44703475365268,-5.0625
1772909111.7748291,0.0007598630942553341,0.765280542352205,-9.217227763671161,0.8141190113800669,-1.3659685541661981,9.76211235060743,-0.00025758932374018534,-0.0015210099711634815,-0.001090830782496456,-38.3775639219591,13.44703475365268,-5.0625
1772909111.799867,0.0007598630942553341,0.765280542352205,-9.217227763671161,0.8141190113800669,-1.3659685541661981,9.76211235060743,-0.00025758932374018534,-0.0015210099711634815,-0.001090830782496456,-38.3775639219591,13.44703475365268,-5.0625
1772909111.8179085,0.0007598630942553341,0.765280542352205,-9.217227763671161,0.8162844671348085,-1.3705565242200335,9.761405745732741,0.0018951309711349445,-0.0026678989423555006,-0.001090830782496456,-37.64137950169039,14.353298373883359,-4.75
1772909111.8437264,0.0007598630942553341,0.765280542352205,-9.217227763671161,0.8204526556154689,-1.3716725815172555,9.76093550808193,0.0006317103237116482,-0.0008892996474518334,-0.001090830782496456,-37.64137950169039,14.353298373883359,-4.75
1772909111.8710601,0.0007598630942553341,0.765280542352205,-9.217227763671161,0.8204526556154689,-1.3716725815172555,9.76093550808193,0.0006317103237116482,-0.0008892996474518334,-0.001090830782496456,-37.64137950169039,14.353298373883359,-4.75
1772909111.9008524,0.0007598630942553341,0.765280542352205,-9.217227763671161,0.8193521674423886,-1.3669611014501686,9.760622570178214,-0.0015210099711634815,0.0002575893237401853,0.0,-37.64137950169039,14.353298373883359,-4.75
1772909111.9185975,0.0007598630942553341,0.765280542352205,-9.217227763671161,0.8186198048564619,-1.363825664096203,9.760414313499037,-0.00215272029487513,0.0011468889711920187,-0.002181661564992912,-38.11331109683882,14.47804539589453,-5.0625
1772909111.935721,0.0007598630942553341,0.765280542352205,-9.217227763671161,0.8154053238709482,-1.363676251084891,9.760275721005424,0.0007482419999429255,-0.00482061923723063,0.0,-38.11331109683882,14.47804539589453,-5.0625
1772909111.9576287,0.0007598630942553341,0.765280542352205,-9.217227763671161,0.8154053238709482,-1.363676251084891,9.760275721005424,0.0007482419999429255,-0.00482061923723063,0.0,-38.11331109683882,14.47804539589453,-5.0625
1772909111.9752977,0.0007598630942553341,0.765280542352205,-9.217227763671161,0.8159932245488,-1.3616396328722937,9.760183489249105,-0.00215272029487513,0.0011468889711920187,0.0,-38.11331109683882,14.47804539589453,-5.0625
1772909112.0075202,0.0007598630942553341,0.765280542352205,-9.217227763671161,0.8109302621514182,-1.3641586572475701,9.76012211004557,0.0015210099711634815,-0.0002575893237401853,0.0,-37.154689125444015,14.315698803817172,-5.0625
1772909112.02677,0.0007598630942553341,0.765280542352205,-9.217227763671161,0.8109302621514182,-1.3641586572475701,9.76012211004557,0.0015210099711634815,-0.0002575893237401853,0.0,-37.154689125444015,14.315698803817172,-5.0625
1772909112.0475702,0.0007598630942553341,0.765280542352205,-9.217227763671161,0.8102880190985621,-1.3638978543073486,9.760081262871267,-0.0008892996474518334,-0.0006317103237116482,0.0,-37.154689125444015,14.315698803817172,-5.0625
1772909112.0605752,0.0007598630942553341,0.765280542352205,-9.217227763671161,0.8117977990438331,-1.3664513947295966,9.766744302947702,-0.0017785992949036669,-0.0012634206474232963,-0.001090830782496456,-37.154689125444015,14.315698803817172,-5.0625
1772909112.0748477,0.0007598630942553341,0.765280542352205,-9.217227763671161,0.8117977990438331,-1.3664513947295966,9.766744302947702,-0.0017785992949036669,-0.0012634206474232963,-0.001090830782496456,-37.154689125444015,14.315698803817172,-5.0625
1772909112.09029,0.0007598630942553341,0.765280542352205,-9.217227763671161,0.8128025407320639,-1.368150747355687,9.764488258272895,0.0025268412948465926,-0.0035571985898073337,0.001090830782496456,-38.558535599076706,13.70180033625999,-4.375
1772909112.107818,0.0007598630942553341,0.765280542352205,-9.217227763671161,0.8128025407320639,-1.368150747355687,9.764488258272895,0.0025268412948465926,-0.0035571985898073337,0.001090830782496456,-38.558535599076706,13.70180033625999,-4.375
1772909112.1400807,0.0007598630942553341,0.765280542352205,-9.217227763671161,0.816198286967487,-1.3673444620227158,9.762986885743482,0.0006317103237116482,-0.0008892996474518334,0.002181661564992912,-38.558535599076706,13.70180033625999,-4.375
1772909112.1590817,0.0007598630942553341,0.765280542352205,-9.217227763671161,0.8165209326315683,-1.364080786274815,9.761987739096588,0.0008892996474518334,0.0006317103237116482,0.0,-38.558535599076706,13.70180033625999,-4.375
1772909112.1870182,0.0007598630942553341,0.765280542352205,-9.217227763671161,0.8140085478512206,-1.3638460320448558,9.757977706456959,0.0006317103237116482,-0.0008892996474518334,0.0,-37.64137950169039,14.353298373883359,-4.75
1772909112.214057,0.0007598630942553341,0.765280542352205,-9.217227763671161,0.8140085478512206,-1.3638460320448558,9.757977706456959,0.0006317103237116482,-0.0008892996474518334,0.0,-37.64137950169039,14.353298373883359,-4.75
1772909112.2480223,0.0007598630942553341,0.765280542352205,-9.217227763671161,0.8123365838450761,-1.3636898057271947,9.758654186237605,0.0015210099711634815,-0.0002575893237401853,-0.002181661564992912,-37.64137950169039,14.353298373883359,-4.75
1772909112.278407,0.0007598630942553341,0.765280542352205,-9.217227763671161,0.8120138268190326,-1.358921551469726,9.75910437597485,-0.0012634206474232963,0.0017785992949036669,-0.002181661564992912,-37.33566080256162,14.570464386424481,-5.0625
1772909112.298443,0.0007598630942553341,0.765280542352205,-9.217227763671161,0.8117990356236326,-1.3557483315262706,9.762749083923358,0.0015210099711634815,-0.0002575893237401853,-0.001090830782496456,-37.33566080256162,14.570464386424481,-5.0625
1772909112.3200095,0.0007598630942553341,0.765280542352205,-9.217227763671161,0.8135932800050908,-1.356363690966696,9.768519708056354,-0.0006317103237116482,0.0008892996474518334,-0.001090830782496456,-37.33566080256162,14.570464386424481,-5.0625
1772909112.3365483,0.0007598630942553341,0.765280542352205,-9.217227763671161,0.8135932800050908,-1.356363690966696,9.768519708056354,-0.0006317103237116482,0.0008892996474518334,-0.001090830782496456,-37.33566080256162,14.570464386424481,-5.0625
1772909112.351553,0.0007598630942553341,0.765280542352205,-9.217227763671161,0.8147873295979281,-1.356773205800284,9.772359993954767,-0.0005151786474803707,-0.003042019942326963,0.0,-37.76753175834423,13.343723285967089,-5.0625
1772909112.373171,0.0007598630942553341,0.765280542352205,-9.217227763671161,0.8155819562635535,-1.3570457333474562,9.774915661321357,0.0008892996474518334,0.0006317103237116482,-0.001090830782496456,-37.76753175834423,13.343723285967089,-5.0625
1772909112.4058836,0.0007598630942553341,0.765280542352205,-9.217227763671161,0.8155819562635535,-1.3570457333474562,9.774915661321357,0.0008892996474518334,0.0006317103237116482,-0.001090830782496456,-37.76753175834423,13.343723285967089,-5.0625
1772909112.4227242,0.0007598630942553341,0.765280542352205,-9.217227763671161,0.8141735859103438,-1.3544999955201615,9.76658109428319,0.0,0.0,0.0,-37.33566080256162,14.570464386424481,-4.75
1772909112.4389777,0.0007598630942553341,0.765280542352205,-9.217227763671161,0.8132363311728106,-1.3528058354338517,9.761034533022503,0.00215272029487513,-0.0011468889711920187,0.003272492347489368,-37.33566080256162,14.570464386424481,-4.75
1772909112.4560192,0.0007598630942553341,0.765280542352205,-9.217227763671161,0.8132363311728106,-1.3528058354338517,9.761034533022503,0.00215272029487513,-0.0011468889711920187,0.003272492347489368,-37.33566080256162,14.570464386424481,-4.75
1772909112.492645,0.0007598630942553341,0.765280542352205,-9.217227763671161,0.8145497841374254,-1.3544054926870264,9.757343358462665,0.00037412099997146276,-0.002410309618615315,0.0,-37.33566080256162,14.570464386424481,-4.75
1772909112.5112388,0.0007598630942553341,0.765280542352205,-9.217227763671161,0.81269677054754,-1.3574072322422936,9.754886923026215,0.0017785992949036669,0.0012634206474232963,0.0,-38.775701611617826,14.007519035388762,-4.25
1772909112.529351,0.0007598630942553341,0.765280542352205,-9.217227763671161,0.81269677054754,-1.3574072322422936,9.754886923026215,0.0017785992949036669,0.0012634206474232963,0.0,-38.775701611617826,14.007519035388762,-4.25
1772909112.5446918,0.0007598630942553341,0.765280542352205,-9.217227763671161,0.814190712568595,-1.3574676708620743,9.753252192683439,0.0015210099711634815,-0.0002575893237401853,0.0,-38.775701611617826,14.007519035388762,-4.25
1772909112.5614238,0.0007598630942553341,0.765280542352205,-9.217227763671161,0.8124578124295755,-1.3594450776110165,9.755509409608775,0.0015210099711634815,-0.0002575893237401853,0.0,-38.775701611617826,14.007519035388762,-4.25
1772909112.5756166,0.0007598630942553341,0.765280542352205,-9.217227763671161,0.8124578124295755,-1.3594450776110165,9.755509409608775,0.0015210099711634815,-0.0002575893237401853,0.0,-38.775701611617826,14.007519035388762,-4.25
1772909112.5998735,0.0007598630942553341,0.765280542352205,-9.217227763671161,0.811304586744821,-1.3607610197133566,9.757011562257821,-0.00037412099997146276,0.002410309618615315,-0.001090830782496456,-36.97898898691138,14.823824734389124,-5.0625
1772909112.6133676,0.0007598630942553341,0.765280542352205,-9.217227763671161,0.8105371279339919,-1.3616367644824277,9.758011228065616,0.0008892996474518334,0.0006317103237116482,-0.001090830782496456,-36.97898898691138,14.823824734389124,-5.0625
1772909112.6253607,0.0007598630942553341,0.765280542352205,-9.217227763671161,0.8105371279339919,-1.3616367644824277,9.758011228065616,0.0008892996474518334,0.0006317103237116482,-0.001090830782496456,-36.97898898691138,14.823824734389124,-5.0625
1772909112.6382756,0.0007598630942553341,0.765280542352205,-9.217227763671161,0.8100263926684617,-1.3622195628435343,9.758676494493706,0.00215272029487513,-0.0011468889711920187,0.001090830782496456,-36.97898898691138,14.823824734389124,-5.0625
1772909112.650953,0.0007598630942553341,0.765280542352205,-9.217227763671161,0.8100263926684617,-1.3622195628435343,9.758676494493706,0.00215272029487513,-0.0011468889711920187,0.001090830782496456,-36.97898898691138,14.823824734389124,-5.0625
1772909112.7009838,0.0007598630942553341,0.765280542352205,-9.217227763671161,0.8096865040545381,-1.3626074086425666,9.759119221870087,0.0011468889711920187,0.00215272029487513,0.001090830782496456,-36.97898898691138,14.823824734389124,-4.75
1772909112.724348,0.0007598630942553341,0.765280542352205,-9.217227763671161,0.8075231264561549,-1.3601384138236954,9.762758963700799,0.00025758932374018534,0.0015210099711634815,-0.001090830782496456,-36.97898898691138,14.823824734389124,-4.75
1772909112.7385778,0.0007598630942553341,0.765280542352205,-9.217227763671161,0.8075231264561549,-1.3601384138236954,9.762758963700799,0.00025758932374018534,0.0015210099711634815,-0.001090830782496456,-36.97898898691138,14.823824734389124,-4.75
1772909112.7513423,0.0007598630942553341,0.765280542352205,-9.217227763671161,0.8080206083535638,-1.3612224272178217,9.765181171230557,0.0006317103237116482,-0.0008892996474518334,0.0,-36.97898898691138,14.823824734389124,-4.75
1772909112.768476,0.0007598630942553341,0.765280542352205,-9.217227763671161,0.8080206083535638,-1.3612224272178217,9.765181171230557,0.0006317103237116482,-0.0008892996474518334,0.0,-36.97898898691138,14.823824734389124,-4.75
1772909112.794977,0.0007598630942553341,0.765280542352205,-9.217227763671161,0.8083516769990525,-1.3619438260223897,9.76679312328378,0.0,0.0,-0.001090830782496456,-36.97898898691138,14.823824734389124,-5.0625
1772909112.8304234,0.0007598630942553341,0.765280542352205,-9.217227763671161,0.8087186216371457,-1.3627433986393382,9.763008507068466,0.0,0.0,0.0,-36.97898898691138,14.823824734389124,-5.0625
1772909112.8553913,0.0007598630942553341,0.765280542352205,-9.217227763671161,0.8087186216371457,-1.3627433986393382,9.763008507068466,0.0,0.0,0.0,-36.97898898691138,14.823824734389124,-5.0625
1772909112.8970234,0.0007598630942553341,0.765280542352205,-9.217227763671161,0.808816197041957,-1.3629560155130447,9.7553119044322,0.0017785992949036669,0.0012634206474232963,-0.001090830782496456,-37.207047476608146,13.741860975625814,-4.75
1772909112.9365616,0.0007598630942553341,0.765280542352205,-9.217227763671161,0.8061540305182645,-1.365034695190032,9.75018990135445,0.0017785992949036669,0.0012634206474232963,0.003272492347489368,-37.207047476608146,13.741860975625814,-4.75
1772909112.9743001,0.0007598630942553341,0.765280542352205,-9.217227763671161,0.8043823884350958,-1.3664180332946938,9.756816600644688,0.0015210099711634815,-0.0002575893237401853,0.001090830782496456,-36.79801730979378,14.569059151781815,-5.5
1772909113.027689,0.0007598630942553341,0.765280542352205,-9.217227763671161,0.8059304822848914,-1.3654014438278252,9.761226594997261,0.0,0.0,-0.001090830782496456,-36.79801730979378,14.569059151781815,-5.5
1772909113.0680454,0.0007598630942553341,0.765280542352205,-9.217227763671161,0.8088979069712109,-1.3674520167592783,9.764161396976032,-0.0006317103237116482,0.0008892996474518334,0.0,-37.46040782457278,14.09853279127605,-3.5625
1772909113.11159,0.0007598630942553341,0.765280542352205,-9.217227763671161,0.8108726949516508,-1.3688166501387597,9.766114474909019,-0.0012634206474232963,0.0017785992949036669,-0.001090830782496456,-37.46040782457278,14.09853279127605,-3.5625
1772909113.1585603,0.0007598630942553341,0.765280542352205,-9.217227763671161,0.8102497087701845,-1.3669976965432453,9.767414226456111,0.0008892996474518334,0.0006317103237116482,0.001090830782496456,-37.46040782457278,14.09853279127605,-4.75
1772909113.2139628,0.0007598630942553341,0.765280542352205,-9.217227763671161,0.8098351184256305,-1.3657872032444736,9.768279196591525,0.00215272029487513,-0.0011468889711920187,-0.002181661564992912,-37.46040782457278,14.09853279127605,-4.75
1772909113.2623463,0.0007598630942553341,0.765280542352205,-9.217227763671161,0.8095592131826073,-1.364981633476237,9.768854824554293,-0.0006317103237116482,0.0008892996474518334,-0.001090830782496456,-38.02089210630887,13.700395101617325,-4.75
1772909113.347208,0.0007598630942553341,0.765280542352205,-9.217227763671161,0.8093756013254388,-1.3644455357942797,9.76923789853333,0.0,0.0,0.0,-38.02089210630887,13.700395101617325,-4.75
1772909113.3889923,0.0007598630942553341,0.765280542352205,-9.217227763671161,0.8119805115511778,-1.3621515832529187,9.766147718279843,0.0008892996474518334,0.0006317103237116482,-0.001090830782496456,-36.90132877747937,13.959026988166936,-4.75
1772909113.4196444,0.0007598630942553341,0.765280542352205,-9.217227763671161,0.8119805115511778,-1.3621515832529187,9.766147718279843,0.0008892996474518334,0.0006317103237116482,-0.001090830782496456,-36.90132877747937,13.959026988166936,-4.75
1772909113.4365509,0.0007598630942553341,0.765280542352205,-9.217227763671161,0.8137140502076531,-1.3606249834617719,9.764091237840722,0.0018951309711349445,-0.0026678989423555006,-0.003272492347489368,-36.90132877747937,13.959026988166936,-4.75
1772909113.4610314,0.0007598630942553341,0.765280542352205,-9.217227763671161,0.8168048863412636,-1.3623361502196063,9.762722673080878,0.0006317103237116482,-0.0008892996474518334,0.001090830782496456,-36.90132877747937,13.959026988166936,-4.75
1772909113.5087745,0.0007598630942553341,0.765280542352205,-9.217227763671161,0.8169246177386578,-1.3607478107163544,9.761811908521073,0.0,0.0,0.0,-37.46040782457278,14.09853279127605,-5.0625
1772909113.5614328,0.0007598630942553341,0.765280542352205,-9.217227763671161,0.8142771957805305,-1.3616279740424768,9.76120580488043,-0.0008892996474518334,-0.0006317103237116482,0.001090830782496456,-37.46040782457278,14.09853279127605,-5.0625
1772909113.5813656,0.0007598630942553341,0.765280542352205,-9.217227763671161,0.8125153660410378,-1.3622137129039427,9.760802449678202,0.0015210099711634815,-0.0002575893237401853,-0.001090830782496456,-37.46040782457278,14.09853279127605,-5.0625
1772909113.6244004,0.0007598630942553341,0.765280542352205,-9.217227763671161,0.813280073552955,-1.365330617438722,9.767224244711532,0.0018951309711349445,-0.0026678989423555006,-0.001090830782496456,-38.3775639219591,13.44703475365268,-5.0625
1772909113.63893,0.0007598630942553341,0.765280542352205,-9.217227763671161,0.813280073552955,-1.365330617438722,9.767224244711532,0.0018951309711349445,-0.0026678989423555006,-0.001090830782496456,-38.3775639219591,13.44703475365268,-5.0625
1772909113.677794,0.0007598630942553341,0.765280542352205,-9.217227763671161,0.8137889778597933,-1.3674048825885128,9.771497877570061,0.0,0.0,-0.001090830782496456,-38.3775639219591,13.44703475365268,-5.0625
1772909113.7015374,0.0007598630942553341,0.765280542352205,-9.217227763671161,0.8137889778597933,-1.3674048825885128,9.771497877570061,0.0,0.0,-0.001090830782496456,-38.3775639219591,13.44703475365268,-5.0625
1772909113.731347,0.0007598630942553341,0.765280542352205,-9.217227763671161,0.8141276479911604,-1.3687852828746383,9.774341932497807,-0.0008892996474518334,-0.0006317103237116482,0.001090830782496456,-37.715173407180096,13.917561114158447,-6.75
1772909113.7475255,0.0007598630942553341,0.765280542352205,-9.217227763671161,0.8141276479911604,-1.3687852828746383,9.774341932497807,-0.0008892996474518334,-0.0006317103237116482,0.001090830782496456,-37.715173407180096,13.917561114158447,-6.75
1772909113.790748,0.0007598630942553341,0.765280542352205,-9.217227763671161,0.8124158436577704,-1.3669768219793679,9.772889507574726,0.0025268412948465926,-0.0035571985898073337,0.001090830782496456,-37.715173407180096,13.917561114158447,-6.75
1772909113.8321605,0.0007598630942553341,0.765280542352205,-9.217227763671161,0.8124158436577704,-1.3669768219793679,9.772889507574726,0.0025268412948465926,-0.0035571985898073337,0.001090830782496456,-37.715173407180096,13.917561114158447,-6.75
1772909113.8548713,0.0007598630942553341,0.765280542352205,-9.217227763671161,0.8112766569960066,-1.3657733114553972,9.771922935013066,0.0,0.0,-0.001090830782496456,-37.154689125444015,14.315698803817172,-5.0625
1772909113.9382904,0.0007598630942553341,0.765280542352205,-9.217227763671161,0.8116154578808518,-1.3668117763333305,9.761650386093082,-0.00025758932374018534,-0.0015210099711634815,-0.001090830782496456,-38.02089210630887,13.700395101617325,-5.0625
1772909113.962532,0.0007598630942553341,0.765280542352205,-9.217227763671161,0.812681194724984,-1.3683905772872458,9.754408090094287,0.0,0.0,-0.001090830782496456,-38.02089210630887,13.700395101617325,-5.0625
1772909114.028362,0.0007598630942553341,0.765280542352205,-9.217227763671161,0.8114532451670717,-1.3667141498201085,9.749588423008836,0.0,0.0,-0.002181661564992912,-37.207047476608146,13.741860975625814,-5.0625
1772909114.0637686,0.0007598630942553341,0.765280542352205,-9.217227763671161,0.8133631603189819,-1.3636613205450285,9.746380988402677,-0.0015210099711634815,0.0002575893237401853,-0.001090830782496456,-37.207047476608146,13.741860975625814,-5.0625
1772909114.1011326,0.0007598630942553341,0.765280542352205,-9.217227763671161,0.814634187517428,-1.3616296967648003,9.75428181162363,-0.0015210099711634815,0.0002575893237401853,0.0,-38.11331109683882,14.47804539589453,-4.75
1772909114.1279998,0.0007598630942553341,0.765280542352205,-9.217227763671161,0.8174172274423115,-1.3630047756993888,9.762884832926513,-0.0006317103237116482,0.0008892996474518334,0.0,-38.11331109683882,14.47804539589453,-4.75
1772909114.154359,0.0007598630942553341,0.765280542352205,-9.217227763671161,0.816542207558123,-1.365857060892341,9.768610047501538,0.00037412099997146276,-0.002410309618615315,0.002181661564992912,-38.201863783426475,13.955160684224634,-5.5
1772909114.1732786,0.0007598630942553341,0.765280542352205,-9.217227763671161,0.816542207558123,-1.365857060892341,9.768610047501538,0.00037412099997146276,-0.002410309618615315,0.002181661564992912,-38.201863783426475,13.955160684224634,-5.5
1772909114.1981256,0.0007598630942553341,0.765280542352205,-9.217227763671161,0.8159598915998081,-1.3677552248261373,9.765729890431741,0.0,0.0,0.0,-38.201863783426475,13.955160684224634,-5.5
1772909114.2118862,0.0007598630942553341,0.765280542352205,-9.217227763671161,0.8136351813118231,-1.3662913298545927,9.760468066367935,-0.00025758932374018534,-0.0015210099711634815,-0.001090830782496456,-36.97898898691138,14.823824734389124,-4.0
1772909114.2285101,0.0007598630942553341,0.765280542352205,-9.217227763671161,0.8136351813118231,-1.3662913298545927,9.760468066367935,-0.00025758932374018534,-0.0015210099711634815,-0.001090830782496456,-36.97898898691138,14.823824734389124,-4.0
1772909114.247102,0.0007598630942553341,0.765280542352205,-9.217227763671161,0.809361010718279,-1.36725430962643,9.753621269524578,-0.0012634206474232963,0.0017785992949036669,0.001090830782496456,-36.97898898691138,14.823824734389124,-4.0
1772909114.26506,0.0007598630942553341,0.765280542352205,-9.217227763671161,0.809243699799495,-1.365957976384777,9.749064802709055,-0.0017785992949036669,-0.0012634206474232963,0.001090830782496456,-36.97898898691138,14.823824734389124,-4.0
1772909114.3026268,0.0007598630942553341,0.765280542352205,-9.217227763671161,0.8083757143505093,-1.3697595684816755,9.749377636649715,-0.00025758932374018534,-0.0015210099711634815,0.001090830782496456,-38.775701611617826,14.007519035388762,-4.0
1772909114.3326418,0.0007598630942553341,0.765280542352205,-9.217227763671161,0.8083757143505093,-1.3697595684816755,9.749377636649715,-0.00025758932374018534,-0.0015210099711634815,0.001090830782496456,-38.775701611617826,14.007519035388762,-4.0
